Shimmer 1,Shimmer 1,Shimmer 1,Shimmer 1,Shimmer 1,Shimmer 1,Shimmer 1,Shimmer 1,Shimmer 1,Shimmer 1,Shimmer 1,Shimmer 1,Shimmer 1,Shimmer 1,Shimmer 1,Shimmer 1,Shimmer 1,Shimmer 1,Shimmer 1,Shimmer 1,Shimmer 1,Shimmer 1,Shimmer 1,Shimmer 1
Timestamp,Accelerometer X,Accelerometer Y,Accelerometer Z,Gyroscope X,Gyroscope Y,Gyroscope Z,VSenseBatt,VSenseReg,Magnetometer X,Magnetometer Y,Magnetometer Z,Timestamp,Accelerometer X,Accelerometer Y,Accelerometer Z,Gyroscope X,Gyroscope Y,Gyroscope Z,VSenseBatt,VSenseReg,Magnetometer X,Magnetometer Y,Magnetometer Z
RAW,RAW,RAW,RAW,RAW,RAW,RAW,RAW,RAW,RAW,RAW,RAW,CAL,CAL,CAL,CAL,CAL,CAL,CAL,CAL,CAL,CAL,CAL,CAL
No unit,No unit,No unit,No unit,No unit,No unit,No unit,No unit,No unit,No unit,No unit,No unit,mSecs,m/(sec^2),m/(sec^2),m/(sec^2),deg/sec,deg/sec,deg/sec,mVolts,mVolts,local,local,local
46721,1990,2172,2655,1618,1321,1794,2372,2299,-200,34,-493,1425.81176757813,2.58979245403882,1.6819230030107,27.8076996989302,-112.449284075825,97.9741710204996,3.65669943739936,3475.45787545788,3348.28717948718,0.0535491905354919,0.332506203473945,0.540816326530612
47361,2008,2162,2641,1841,1624,1815,2387,2319,-202,22,-491,1445.34301757813,1.82079042822369,1.28747958170521,27.2520418294792,-5.24952628110068,2.20881419794809,-0.149166809580975,3497.4358974359,3377.41538461538,0.0510585305105853,0.317617866004963,0.538265306122449
48001,1992,2164,2652,1839,1643,1811,2385,2320,-196,24,-490,1464.87426757813,2.49796250774027,1.36298189844768,27.7018101552324,1.3018437161161,2.88581063621747,1.46644800242194,3494.50549450549,3378.87179487179,0.0585305105853051,0.320099255583127,0.536989795918367
48641,1989,2158,2648,1846,1647,1811,2386,2319,-196,29,-481,1484.40551757813,2.61527712163432,1.12443916415775,27.5560835842248,2.74840273187927,-0.0860643883021373,1.5548166832276,3495.9706959707,3377.41538461538,0.0585305105853051,0.326302729528536,0.525510204081633
49281,1994,2172,2664,1844,1644,1813,2387,2306,-191,26,-484,1503.93676757813,2.43019412059872,1.67835313774475,28.1646862255247,1.70494640905492,0.790890310424991,0.767344792384584,3497.4358974359,3358.48205128205,0.0647571606475716,0.32258064516129,0.529336734693878
49921,2004,2166,2648,1842,1645,1810,2384,2324,-195,29,-486,1523.46801757813,1.99611485224094,1.44472313859885,27.5276861401149,2.01366016774632,1.60278153057717,1.88087674877335,3493.04029304029,3384.69743589744,0.0597758405977584,0.326302729528536,0.531887755102041
50561,2002,2158,2671,1845,1645,1814,2382,2306,-197,37,-489,1542.99926757813,2.0916280987765,1.11533934405227,28.4660655947729,2.06775098230524,0.370643567910908,0.408473983493879,3490.10989010989,3358.48205128205,0.0572851805728518,0.336228287841191,0.535714285714286
51201,1996,2145,2674,1844,1644,1812,2387,2312,-190,31,-486,1562.53051757813,2.33421645794632,0.593830071744283,28.6169928255717,1.69760264758029,0.783546548950364,1.14187662759058,3497.4358974359,3367.22051282051,0.0660024906600249,0.3287841191067,0.531887755102041
51841,1983,2171,2638,1845,1647,1815,2386,2300,-196,34,-487,1582.06176757813,2.8673379681528,1.64865085783529,27.1349142164713,2.76953918822431,0.363814993784629,0.0481144838887936,3495.9706959707,3349.74358974359,0.0585305105853051,0.332506203473945,0.533163265306122
52481,1996,2169,2654,1843,1644,1812,2384,2315,-203,29,-488,1601.59301757813,2.33661861027481,1.56231383319454,27.7686166805458,1.68936405802682,1.20405088513862,1.13330176907574,3493.04029304029,3371.58974358974,0.049813200498132,0.326302729528536,0.534438775510204
53121,2007,2136,2647,1843,1643,1811,2386,2328,-201,33,-483,1621.12426757813,1.84745215046015,0.244552785962889,27.5447214037111,1.33479807432997,1.20379329146445,1.50074743648128,3495.9706959707,3390.52307692308,0.0523038605230386,0.331265508684864,0.528061224489796
53761,1981,2165,2658,1843,1643,1812,2383,2318,-200,24,-478,1640.65551757813,2.96199444702453,1.40050785503811,27.9492144961886,1.3421418358046,1.21113705293907,1.12621560127529,3491.57509157509,3375.95897435897,0.0535491905354919,0.320099255583127,0.521683673469388
54401,1965,2162,2655,1845,1645,1813,2385,2306,-201,29,-479,1660.18676757813,3.62426517493007,1.28151590491747,27.8484095082527,2.06040722083061,0.363299806436281,0.783005818699872,3494.50549450549,3358.48205128205,0.0523038605230386,0.326302729528536,0.522959183673469
55041,1988,2168,2652,1843,1645,1811,2384,2315,-188,19,-485,1679.71801757813,2.66773795987872,1.52302796639122,27.697203360878,2.02924251877442,1.18962095586354,1.51491977208219,3493.04029304029,3371.58974358974,0.0684931506849315,0.313895781637717,0.530612244897959
55681,2007,2170,2649,1843,1643,1813,2387,2319,-201,28,-494,1699.24926757813,1.87490074440032,1.60442723346785,27.5572766532146,1.34948559727923,1.2184808144137,0.751683766069296,3497.4358974359,3377.41538461538,0.0523038605230386,0.325062034739454,0.542091836734694
56321,1978,2167,2641,1845,1645,1813,2388,2306,-190,24,-484,1718.78051757813,3.07508927999488,1.48732864646724,27.2671353532765,2.06040722083061,0.363299806436281,0.783005818699872,3498.9010989011,3358.48205128205,0.0660024906600249,0.320099255583127,0.529336734693878
56961,1996,2197,2638,1843,1644,1812,2383,2312,-199,34,-487,1738.31176757813,2.34523432995964,2.68927559092947,27.0724409070527,1.68936405802682,1.20405088513862,1.13330176907574,3491.57509157509,3367.22051282051,0.0547945205479452,0.332506203473945,0.533163265306122
57601,1982,2161,2651,1843,1645,1813,2387,2316,-199,25,-486,1757.84301757813,2.91171956739906,1.24323927572438,27.6760724275618,2.04393004172367,1.20430847881279,0.765856101670203,3497.4358974359,3373.04615384615,0.0547945205479452,0.321339950372208,0.531887755102041
58241,1996,2165,2638,1843,1644,1812,2384,2316,-199,30,-482,1777.37426757813,2.32089251969765,1.40864014156684,27.1359858433156,1.68936405802682,1.20405088513862,1.13330176907574,3493.04029304029,3373.04615384615,0.0547945205479452,0.327543424317618,0.526785714285714
58881,1983,2158,2653,1844,1644,1813,2386,2316,-198,23,-478,1796.90551757813,2.86933976175987,1.1223873257105,27.7612674289497,1.70494640905492,0.790890310424991,0.767344792384584,3495.9706959707,3373.04615384615,0.0560398505603985,0.318858560794045,0.521683673469388
59521,1986,2162,2664,1845,1645,1813,2387,2310,-199,27,-486,1816.43676757813,2.75605275660325,1.27808783336536,28.1912166634638,2.06040722083061,0.363299806436281,0.783005818699872,3497.4358974359,3364.30769230769,0.0547945205479452,0.323821339950372,0.531887755102041
60161,1982,2150,2644,1844,1644,1813,2385,2317,-198,28,-483,1835.96801757813,2.89780309824269,0.80582335105588,27.4176648944121,1.70494640905492,0.790890310424991,0.767344792384584,3494.50549450549,3374.50256410256,0.0560398505603985,0.325062034739454,0.528061224489796
60801,2000,2165,2642,1844,1644,1813,2387,2313,-195,29,-490,1855.49926757813,2.15733063491555,1.40707206990797,27.2927930092029,1.70494640905492,0.790890310424991,0.767344792384584,3497.4358974359,3368.67692307692,0.0597758405977584,0.326302729528536,0.536989795918367
61441,2010,2159,2648,1844,1644,1813,2388,2312,-192,27,-475,1875.03051757813,1.74069099246258,1.16463417889095,27.5365821109047,1.70494640905492,0.790890310424991,0.767344792384584,3498.9010989011,3367.22051282051,0.0635118306351183,0.323821339950372,0.517857142857143
62081,2006,2165,2647,1843,1644,1812,2385,2321,-200,31,-489,1894.56176757813,1.911195097474,1.40512032114108,27.4879678858924,1.68936405802682,1.20405088513862,1.13330176907574,3494.50549450549,3380.3282051282,0.0535491905354919,0.3287841191067,0.535714285714286
62721,1996,2136,2643,1843,1644,1811,2385,2320,-204,27,-481,1914.09301757813,2.30279630548972,0.246062471974889,27.393752802511,1.6820202965522,1.19670712366399,1.50783360428173,3494.50549450549,3378.87179487179,0.0485678704856787,0.323821339950372,0.525510204081633
63361,2016,2167,2642,1843,1643,1811,2386,2319,-197,32,-478,1933.62426757813,1.49192109463413,1.48724523840027,27.2754761599727,1.33479807432997,1.20379329146445,1.50074743648128,3495.9706959707,3377.41538461538,0.0572851805728518,0.330024813895782,0.521683673469388
64001,1994,2155,2654,1843,1644,1812,2385,2319,-200,31,-491,1953.15551757813,2.40933543121303,1.002019142485,27.7980857515,1.68936405802682,1.20405088513862,1.13330176907574,3494.50549450549,3377.41538461538,0.0535491905354919,0.3287841191067,0.538265306122449
64641,2009,2157,2635,1846,1646,1814,2387,2305,-193,26,-486,1972.68676757813,1.77054757729592,1.08979078587748,27.020921412252,2.42321179408093,-0.0569469360778019,0.424135009809167,3497.4358974359,3357.02564102564,0.062266500622665,0.32258064516129,0.531887755102041
65281,1991,2166,2635,1844,1645,1811,2386,2319,-196,24,-488,1992.21801757813,2.52769097778276,1.44981937149019,27.0180628509811,2.03748110832789,0.769116619675283,1.52349463059702,3495.9706959707,3377.41538461538,0.0585305105853051,0.320099255583127,0.534438775510204
385,2005,2147,2634,1844,1645,1813,2386,2310,-198,26,-487,2011.74926757813,1.92888077717635,0.689959203446288,27.0040796553712,2.05216863127714,0.783804142624538,0.774430960185037,3495.9706959707,3364.30769230769,0.0560398505603985,0.32258064516129,0.533163265306122
1025,1986,2181,2654,1844,1645,1811,2384,2309,-195,30,-488,2031.28051757813,2.7625786037623,2.04246871863857,27.7531281361433,2.03748110832789,0.769116619675283,1.52349463059702,3493.04029304029,3362.85128205128,0.0597758405977584,0.327543424317618,0.534438775510204
1665,1986,2140,2681,1844,1644,1812,2385,2314,-201,33,-479,2050.81176757813,2.75279383661094,0.39084486366451,28.915513633549,1.69760264758029,0.783546548950364,1.14187662759058,3494.50549450549,3370.13333333333,0.0523038605230386,0.331265508684864,0.522959183673469
2305,1999,2191,2652,1846,1646,1814,2384,2304,-194,31,-488,2070.34301757813,2.22671863990135,2.44357644449427,27.6423555505733,2.42321179408093,-0.0569469360778019,0.424135009809167,3493.04029304029,3355.56923076923,0.0610211706102117,0.3287841191067,0.534438775510204
2945,1996,2172,2651,1843,1644,1812,2384,2316,-199,29,-484,2089.87426757813,2.33652252418167,1.68357448273653,27.6425517263468,1.68936405802682,1.20405088513862,1.13330176907574,3493.04029304029,3373.04615384615,0.0547945205479452,0.326302729528536,0.529336734693878
3585,1961,2175,2660,1840,1645,1812,2384,2313,-198,23,-487,2109.40551757813,3.80485031254671,1.79973889938718,28.0261100612816,2.01187051158864,2.45847772590294,1.11466336133169,3493.04029304029,3368.67692307692,0.0560398505603985,0.318858560794045,0.533163265306122
4225,2018,2164,2637,1845,1645,1814,2387,2309,-198,24,-485,2128.93676757813,1.40230913565221,1.36920414024299,27.0795859757009,2.06775098230524,0.370643567910908,0.408473983493879,3497.4358974359,3362.85128205128,0.0560398505603985,0.320099255583127,0.530612244897959
4865,1990,2180,2630,1844,1643,1812,2385,2320,-197,25,-490,2148.46801757813,2.57606014989431,2.01209083338671,26.7909166613286,1.35038042535807,0.790632716750818,1.13479045979012,3494.50549450549,3378.87179487179,0.0572851805728518,0.321339950372208,0.536989795918367
5505,2006,2167,2665,1844,1645,1813,2388,2310,-192,31,-488,2167.99926757813,1.92698524544659,1.47795357974078,28.2046420259219,2.05216863127714,0.783804142624538,0.774430960185037,3498.9010989011,3364.30769230769,0.0635118306351183,0.3287841191067,0.534438775510204
6145,1995,2171,2670,1846,1645,1812,2384,2309,-194,30,-481,2187.53051757813,2.39250651917451,1.63593946843038,28.406053156962,2.06130204890945,-0.064548291226603,1.1661125124207,3493.04029304029,3362.85128205128,0.0610211706102117,0.327543424317618,0.525510204081633
6785,2009,2166,2649,1844,1644,1812,2384,2316,-189,28,-481,2207.06176757813,1.78849165518972,1.44436448391092,27.5635516089082,1.69760264758029,0.783546548950364,1.14187662759058,3493.04029304029,3373.04615384615,0.0672478206724782,0.325062034739454,0.525510204081633
7425,1993,2150,2681,1843,1644,1812,2384,2317,-197,33,-487,2226.59301757813,2.46861838207034,0.791101827237205,28.8898172762795,1.68936405802682,1.20405088513862,1.13330176907574,3493.04029304029,3374.50256410256,0.0572851805728518,0.331265508684864,0.533163265306122
8065,1991,2173,2665,1844,1643,1812,2385,2319,-196,32,-498,2246.12426757813,2.55679705682959,1.71794761439583,28.2052385604168,1.35038042535807,0.790632716750818,1.13479045979012,3494.50549450549,3377.41538461538,0.0585305105853051,0.330024813895782,0.54719387755102
8705,1998,2164,2645,1845,1645,1814,2387,2305,-195,27,-490,2265.65551757813,2.24231444707792,1.36583445433775,27.4165545662247,2.06775098230524,0.370643567910908,0.408473983493879,3497.4358974359,3357.02564102564,0.0597758405977584,0.323821339950372,0.536989795918367
9345,1988,2164,2639,1845,1645,1814,2385,2306,-198,27,-479,2285.18676757813,2.65439000010676,1.36815319859928,27.1846801400722,2.06775098230524,0.370643567910908,0.408473983493879,3494.50549450549,3358.48205128205,0.0560398505603985,0.323821339950372,0.522959183673469
9985,1995,2184,2652,1844,1644,1813,2386,2314,-193,34,-485,2304.71801757813,2.38812659476224,2.16340407671941,27.6595923280593,1.70494640905492,0.790890310424991,0.767344792384584,3495.9706959707,3370.13333333333,0.062266500622665,0.332506203473945,0.530612244897959
10625,1986,2172,2655,1844,1644,1813,2387,2309,-206,21,-480,2324.24926757813,2.75652517989452,1.68188963978391,27.8110360216087,1.70494640905492,0.790890310424991,0.767344792384584,3497.4358974359,3362.85128205128,0.0460772104607721,0.316377171215881,0.524234693877551
11265,2005,2179,2646,1845,1646,1813,2387,2310,-202,25,-487,2343.78051757813,1.96273511065915,1.96579034815194,27.4209651848056,2.40762944305283,0.356213638635828,0.790091986500325,3497.4358974359,3364.30769230769,0.0510585305105853,0.321339950372208,0.533163265306122
11905,1987,2156,2646,1844,1644,1811,2387,2320,-194,30,-478,2363.31176757813,2.69553670088399,1.04518348440202,27.4816515597976,1.69025888610567,0.776202787475737,1.51640846279657,3497.4358974359,3378.87179487179,0.0610211706102117,0.327543424317618,0.521683673469388
12545,1998,2172,2636,1844,1645,1812,2384,2311,-201,34,-482,2382.84301757813,2.24126550722781,1.68959654517114,27.040345482886,2.04482486980251,0.776460381149911,1.14896279539103,3493.04029304029,3365.7641025641,0.0523038605230386,0.332506203473945,0.526785714285714
13185,1997,2166,2642,1843,1644,1812,2384,2315,-200,30,-494,2402.37426757813,2.28314086087801,1.44706690528046,27.2933094719535,1.68936405802682,1.20405088513862,1.13330176907574,3493.04029304029,3371.58974358974,0.0535491905354919,0.327543424317618,0.542091836734694
13825,2005,2173,2662,1845,1645,1811,2382,2312,-196,33,-488,2421.90551757813,1.97085438552943,1.71926546185382,28.0734538146179,2.04571969788136,0.348612283487026,1.53206948911186,3490.10989010989,3367.22051282051,0.0585305105853051,0.331265508684864,0.534438775510204
14465,1995,2169,2631,1845,1645,1813,2386,2306,-193,25,-490,2441.43676757813,2.36006945556552,1.57151374298038,26.8486257019623,2.06040722083061,0.363299806436281,0.783005818699872,3495.9706959707,3358.48205128205,0.062266500622665,0.321339950372208,0.536989795918367
15105,1992,2172,2629,1843,1643,1812,2384,2321,-194,30,-478,2460.96801757813,2.48581562413256,1.69234901138086,26.7650988619136,1.3421418358046,1.21113705293907,1.12621560127529,3493.04029304029,3380.3282051282,0.0610211706102117,0.327543424317618,0.521683673469388
15745,1981,2140,2684,1844,1645,1814,2388,2307,-204,25,-485,2480.49926757813,2.96358787473576,0.389602083466786,29.0397916533214,2.05951239275177,0.791147904099165,0.399899124979045,3498.9010989011,3359.93846153846,0.0485678704856787,0.321339950372208,0.530612244897959
16385,1992,2147,2643,1846,1645,1814,2387,2313,-189,28,-486,2500.03051757813,2.47789652862298,0.686247544466509,27.3752455533491,2.07598957185871,-0.0498607682773484,0.417048842008714,3497.4358974359,3368.67692307692,0.0672478206724782,0.325062034739454,0.531887755102041
17025,1980,2158,2659,1844,1644,1813,2385,2317,-195,31,-475,2519.56176757813,2.99914556776205,1.11996015096193,28.0039849038071,1.70494640905492,0.790890310424991,0.767344792384584,3494.50549450549,3374.50256410256,0.0597758405977584,0.3287841191067,0.517857142857143
17665,1996,2152,2655,1844,1643,1812,2384,2314,-199,24,-484,2539.09301757813,2.32447973384152,0.881575891999231,27.8424108000769,1.35038042535807,0.790632716750818,1.13479045979012,3493.04029304029,3370.13333333333,0.0547945205479452,0.320099255583127,0.529336734693878
18305,1987,2142,2659,1844,1644,1813,2387,2314,-202,30,-481,2558.62426757813,2.69519239238358,0.479700811927487,28.0299188072513,1.70494640905492,0.790890310424991,0.767344792384584,3497.4358974359,3370.13333333333,0.0510585305105853,0.327543424317618,0.525510204081633
18945,1989,2162,2646,1843,1644,1812,2383,2316,-190,32,-490,2578.15551757813,2.61673442738027,1.28531931277091,27.4680687229091,1.68936405802682,1.20405088513862,1.13330176907574,3491.57509157509,3373.04615384615,0.0660024906600249,0.330024813895782,0.536989795918367
19585,2016,2156,2650,1846,1646,1814,2385,2304,-199,22,-479,2597.68676757813,1.48989527950377,1.04382393291055,27.6176067089445,2.42321179408093,-0.0569469360778019,0.424135009809167,3494.50549450549,3355.56923076923,0.0547945205479452,0.317617866004963,0.522959183673469
20225,2019,2165,2630,1843,1644,1812,2385,2319,-203,26,-483,2617.21801757813,1.35583766388017,1.41203484989217,26.796515010783,1.68936405802682,1.20405088513862,1.13330176907574,3494.50549450549,3377.41538461538,0.049813200498132,0.32258064516129,0.528061224489796
20865,2004,2173,2662,1845,1645,1813,2386,2304,-196,28,-482,2636.74926757813,2.01253756699336,1.71925712104713,28.0742878952875,2.06040722083061,0.363299806436281,0.783005818699872,3495.9706959707,3355.56923076923,0.0585305105853051,0.325062034739454,0.526785714285714
21505,1982,2161,2659,1845,1644,1814,2388,2313,-198,27,-484,2656.28051757813,2.91806124954626,1.24003640595307,27.9963594046933,1.72052876008302,0.377729735711362,0.401387815693426,3498.9010989011,3368.67692307692,0.0560398505603985,0.323821339950372,0.529336734693878
22145,2008,2147,2640,1844,1644,1813,2387,2315,-201,30,-489,2675.81176757813,1.80858749439498,0.68758207353789,27.241792646211,1.70494640905492,0.790890310424991,0.767344792384584,3497.4358974359,3371.58974358974,0.0523038605230386,0.327543424317618,0.535714285714286
22785,1995,2165,2663,1843,1650,1812,2386,2309,-200,16,-489,2695.34301757813,2.38239345787159,1.39862283272479,28.1377167275212,3.77269739136016,1.1615338783359,1.17581877587846,3495.9706959707,3362.85128205128,0.0535491905354919,0.310173697270471,0.535714285714286
23425,2005,2151,2649,1843,1643,1813,2388,2319,-203,25,-488,2714.87426757813,1.94381415748511,0.844033253795401,27.5966746204599,1.34948559727923,1.2184808144137,0.751683766069296,3498.9010989011,3377.41538461538,0.049813200498132,0.321339950372208,0.534438775510204
24065,1995,2162,2646,1844,1643,1812,2383,2316,-201,27,-493,2734.40551757813,2.36663533859672,1.28536935761109,27.4630642388914,1.35038042535807,0.790632716750818,1.13479045979012,3491.57509157509,3373.04615384615,0.0523038605230386,0.323821339950372,0.540816326530612
24705,1999,2161,2656,1844,1645,1813,2387,2310,-194,26,-487,2753.93676757813,2.20706903385433,1.24137927583115,27.8620724168855,2.05216863127714,0.783804142624538,0.774430960185037,3497.4358974359,3364.30769230769,0.0610211706102117,0.32258064516129,0.533163265306122
25345,1973,2168,2655,1843,1644,1811,2384,2322,-193,22,-484,2773.46801757813,3.2953638126428,1.52170177812653,27.8298221873465,1.6820202965522,1.19670712366399,1.50783360428173,3493.04029304029,3381.78461538462,0.062266500622665,0.317617866004963,0.529336734693878
25985,2012,2157,2627,1845,1644,1813,2387,2312,-201,32,-486,2792.99926757813,1.63915635075695,1.09301867806888,26.6981321931117,1.71318499860839,0.370385974236735,0.775919650899418,3497.4358974359,3367.22051282051,0.0523038605230386,0.330024813895782,0.531887755102041
26625,1994,2154,2665,1845,1645,1815,2388,2308,-195,38,-489,2812.53051757813,2.41729456259475,0.95759533875686,28.2404661243141,2.07509474377986,0.377987329385536,0.0339421482878866,3498.9010989011,3361.39487179487,0.0597758405977584,0.337468982630273,0.535714285714286
27265,2010,2169,2658,1844,1644,1812,2384,2314,-194,22,-482,2832.06176757813,1.75622491085346,1.56082916960263,27.9170830397369,1.69760264758029,0.783546548950364,1.14187662759058,3493.04029304029,3370.13333333333,0.0610211706102117,0.317617866004963,0.526785714285714
27905,1988,2165,2667,1845,1644,1813,2389,2317,-198,34,-485,2851.59301757813,2.67734656919266,1.39696301219226,28.3036987807742,1.71318499860839,0.370385974236735,0.775919650899418,3500.3663003663,3374.50256410256,0.0560398505603985,0.332506203473945,0.530612244897959
28545,1992,2161,2643,1843,1644,1811,2386,2327,-193,31,-480,2871.12426757813,2.4885460706126,1.24652555356266,27.3474446437341,1.6820202965522,1.19670712366399,1.50783360428173,3495.9706959707,3389.06666666667,0.062266500622665,0.3287841191067,0.524234693877551
29185,1972,2151,2642,1844,1645,1813,2385,2314,-193,30,-483,2890.65551757813,3.31381017391583,0.846560518224329,27.3439481775671,2.05216863127714,0.783804142624538,0.774430960185037,3494.50549450549,3370.13333333333,0.062266500622665,0.327543424317618,0.528061224489796
29825,2000,2170,2661,1845,1646,1814,2386,2308,-199,32,-488,2910.18676757813,2.1761955378686,1.59956454316401,28.0435456835992,2.41497320452746,0.363557400110455,0.415560151294333,3495.9706959707,3361.39487179487,0.0547945205479452,0.330024813895782,0.534438775510204
30465,1992,2163,2629,1844,1645,1812,2385,2313,-200,24,-489,2929.71801757813,2.47896948999637,1.33217029124762,26.7829708752375,2.04482486980251,0.776460381149911,1.14896279539103,3494.50549450549,3368.67692307692,0.0535491905354919,0.320099255583127,0.535714285714286
31105,2010,2167,2641,1844,1644,1812,2384,2307,-203,38,-481,2949.24926757813,1.74122747314928,1.48759555228151,27.2404447718489,1.69760264758029,0.783546548950364,1.14187662759058,3493.04029304029,3359.93846153846,0.049813200498132,0.337468982630273,0.525510204081633
31745,1961,1985,2677,1844,1646,1804,2378,2301,-195,25,-487,2968.78051757813,3.67379688867892,-5.81084017946747,29.084017946747,2.33329700022772,0.710624121552439,4.15230364483942,3484.24908424908,3351.2,0.0597758405977584,0.321339950372208,0.533163265306122
32385,1952,2187,2382,1864,1662,1791,2443,2273,-205,26,-485,2988.31176757813,3.96875366995495,2.3912018501911,16.8798149808895,7.95815544768249,-7.90831018619011,9.30609335762127,3579.48717948718,3310.42051282051,0.0473225404732254,0.32258064516129,0.530612244897959
33025,1930,2204,2696,1887,1664,1820,2388,2319,-194,28,-481,3007.84301757813,5.14762627314074,2.94564329639357,29.4356703606431,9.0550565346209,-17.3811131713567,-1.34393578191041,3498.9010989011,3377.41538461538,0.0610211706102117,0.325062034739454,0.525510204081633
33665,1937,2224,2882,1837,1637,1849,2410,2338,-190,29,-485,3027.37426757813,5.0185017442295,3.67163211570901,36.8367884290991,-0.518903860288332,4.04839925143255,-12.8254284592382,3531.13553113553,3405.08717948718,0.0660024906600249,0.326302729528536,0.530612244897959
34305,2100,2523,2666,1857,1660,1739,2407,2335,-201,22,-492,3046.90551757813,-1.71963846272927,15.7254066310081,27.459336899195,6.82416527968314,-5.33248309395202,28.7075524431281,3526.73992673993,3400.71794871795,0.0523038605230386,0.317617866004963,0.539540816326531
34945,2020,2347,2461,1882,1644,1848,2405,2318,-204,20,-476,3066.43676757813,1.31863049292166,8.76331793286785,19.668206713215,2.27504446369868,-14.9312428131168,-12.0154248162614,3523.80952380952,3375.95897435897,0.0485678704856787,0.315136476426799,0.519132653061225
35585,1910,2056,2513,1871,1660,1776,2429,2356,-194,19,-497,3085.96801757813,5.72364305084022,-2.90419682702368,22.419682702368,7.21122470799291,-10.9478246260264,14.9699225597141,3558.97435897436,3431.30256410256,0.0610211706102117,0.313895781637717,0.545918367346939
36225,1993,2142,2709,1760,1667,1735,2404,2321,-196,14,-485,3105.49926757813,2.48472881702005,0.459732920696945,30.0267079303056,8.42620260265375,35.3774592958072,29.4235216826163,3522.34432234432,3380.3282051282,0.0585305105853051,0.307692307692308,0.530612244897959
36865,1998,2187,2901,1481,1715,1711,2389,2315,-197,24,-486,3125.03051757813,2.46274395191425,2.18379935088506,37.620064911494,22.6180525085117,152.181782762518,36.3600362563431,3500.3663003663,3371.58974358974,0.0572851805728518,0.320099255583127,0.531887755102041
37505,2022,2179,3230,1593,1664,1702,2383,2311,-207,16,-487,3144.56176757813,1.71706382251831,1.73212264855978,50.7877351440224,5.76634735189515,105.380597813985,40.3298123690354,3491.57509157509,3365.7641025641,0.0448318804483188,0.310173697270471,0.533163265306122
38145,2105,2207,3138,1816,1541,1742,2411,2337,-229,21,-489,3164.09301757813,-1.79427049970107,2.89020395607798,46.9796043922021,-34.8110300520296,12.7734799424444,26.389133770148,3532.60073260073,3403.63076923077,0.0174346201743462,0.316377171215881,0.535714285714286
38785,2225,2139,2969,1777,1361,1740,2407,2329,-227,36,-484,3183.62426757813,-6.98194665753849,0.23751514690496,40.248485309504,-97.6470225675641,30.4339717349187,25.5282677543998,3526.73992673993,3391.97948717949,0.0199252801992528,0.334987593052109,0.529336734693878
39425,2139,2119,2911,1726,1366,1731,2402,2330,-224,47,-474,3203.15551757813,-3.45838387862191,-0.540378512480516,38.0378512480516,-96.3971733769516,51.7781681882459,28.4971673259994,3519.41391941392,3393.4358974359,0.0236612702366127,0.34863523573201,0.516581632653061
40065,2189,2230,2823,2080,1695,1753,2417,2328,-233,55,-478,3222.68676757813,-5.52786580109111,3.93747431031538,34.2525689684624,20.9169611885292,-99.2501532763044,25.6243160720682,3541.39194139194,3390.52307692308,0.012453300124533,0.358560794044665,0.521683673469388
40705,2150,2142,2712,2231,1872,1813,2386,2317,-211,61,-479,3242.21801757813,-4.05715254201098,0.459841351183994,30.0158648816006,84.0599472329139,-163.559934052934,5.70146129612894,3495.9706959707,3374.50256410256,0.0398505603985056,0.366004962779156,0.522959183673469
41345,2117,2180,2670,2062,1922,1793,2371,2294,-209,53,-480,3261.74926757813,-2.68599548528815,1.99713576698055,28.2864233019452,99.8818614799963,-92.9958848566336,12.0972553012644,3473.99267399267,3341.00512820513,0.0423412204234122,0.356079404466501,0.524234693877551
41985,2112,2122,2651,2067,1930,1803,2377,2303,-176,24,-497,3281.28051757813,-2.536760604168,-0.316450873315824,27.6450873315824,102.774269820288,-95.0816582652322,8.45150058418231,3482.78388278388,3354.11282051282,0.0834371108343711,0.320099255583127,0.545918367346939
42625,2043,2068,2638,2054,1820,1847,2408,2332,-172,18,-488,3300.81176757813,0.287996878536502,-2.47289404639891,27.2894046398907,64.7958492165317,-88.5124979318514,-8.9188517836241,3528.20512820513,3396.34871794872,0.0884184308841843,0.312655086848635,0.534438775510204
43265,2096,2088,2478,2013,1653,1882,2432,2259,-150,10,-490,3320.34301757813,-2.03283175058186,-1.60799743236607,20.7997432366067,6.72898758534037,-69.8313984738452,-23.5624252376178,3563.36996336996,3290.03076923077,0.115815691158157,0.30272952853598,0.536989795918367
43905,1984,2154,2543,1655,1584,1891,2435,2266,-150,8,-493,3339.87426757813,2.73741572448914,1.00635569470245,23.3644305297547,-20.112666954863,81.2641933130537,-30.4919566810138,3567.76556776557,3300.22564102564,0.115815691158157,0.300248138957816,0.540816326530612
44545,1933,2231,2507,1813,1804,1970,2417,2346,-167,10,-489,3359.40551757813,4.89329289042983,4.10187227756069,21.8127722439306,58.1580762399694,13.8457084357049,-57.1661871008435,3541.39194139194,3416.73846153846,0.0946450809464508,0.30272952853598,0.535714285714286
45185,1845,2104,2298,1961,1860,1964,2411,2325,-161,-4,-494,3378.93676757813,8.29912985368223,-0.897708680310892,13.7708680310892,78.7777693694795,-48.8298212858303,-53.2530916325867,3532.60073260073,3386.15384615385,0.102117061021171,0.285359801488834,0.542091836734694
45825,1857,2156,2377,1913,1754,1930,2390,2318,-157,-8,-506,3398.46801757813,7.90111122899451,1.151795675592,16.8204324408003,41.3270736252201,-28.1441672520832,-41.6817362311431,3501.8315018315,3375.95897435897,0.107098381070984,0.280397022332506,0.557397959183674
46465,1833,2189,2422,1898,1632,1928,2387,2314,-156,-11,-501,3417.99926757813,8.96228203803942,2.45423466092285,18.5765339077146,-1.17230385214231,-20.9867772605533,-41.9258079101089,3497.4358974359,3370.13333333333,0.108343711083437,0.276674937965261,0.551020408163265
47105,1798,2243,2420,1939,1597,1946,2402,2319,-156,-5,-500,3437.53051757813,10.4606847735571,4.61581577093076,18.4184229069246,-12.8551117516846,-37.8472514647127,-48.5638276177245,3519.41391941392,3377.41538461538,0.108343711083437,0.284119106699752,0.549744897959184
47745,1863,2218,2514,1891,1617,1897,2440,2272,-144,-8,-506,3457.06176757813,7.80677570436444,3.5782277587385,22.1772241261504,-6.66596391806337,-18.1646109959421,-30.4816375453338,3575.09157509157,3308.9641025641,0.123287671232877,0.280397022332506,0.557397959183674
48385,1777,2220,2456,1965,1609,1903,2441,2264,-154,-9,-498,3476.59301757813,11.3470734778361,3.68077097078983,19.9229029210172,-8.79002350003672,-49.1811799626217,-32.1509783688756,3576.55677655678,3297.31282051282,0.110834371108344,0.279156327543424,0.54719387755102
49025,1786,2266,2437,1950,1656,1925,2389,2325,-145,-2,-502,3496.12426757813,10.9918547018128,5.52936631221575,19.0633687784255,7.5674048535475,-43.0451020539774,-40.1862517345087,3500.3663003663,3386.15384615385,0.122042341220423,0.287841191066998,0.552295918367347
49665,1794,2244,2465,1940,1643,1911,2449,2278,-141,-8,-501,3515.65551757813,10.6638501430615,4.6377861230329,20.2213876967096,2.86831740847914,-38.8507511713337,-35.120674808179,3588.27838827839,3317.70256410256,0.127023661270237,0.280397022332506,0.551020408163265
50305,1770,2230,2446,1938,1586,1897,2440,2259,-145,0,-494,3535.18676757813,11.6385354611065,4.08491475028292,19.508524971708,-17.0426390979392,-37.7086435949761,-30.2982903969506,3575.09157509157,3290.03076923077,0.122042341220423,0.290322580645161,0.542091836734694
50945,1767,2298,2434,1910,1557,1865,2419,2342,-134,1,-500,3554.71801757813,11.8057988290842,6.81104436241539,18.8955637584609,-27.5777644170689,-25.9640236826799,-18.7588665749874,3544.32234432234,3410.91282051282,0.13574097135741,0.291563275434243,0.549744897959184
51585,1805,2304,2404,1826,1664,1825,2394,2319,-126,5,-494,3574.24926757813,10.2026207148272,7.06349122146777,17.6508778532232,8.58922137923246,8.30637014350007,-3.73966132734528,3507.69230769231,3377.41538461538,0.145703611457036,0.296526054590571,0.542091836734694
52225,1778,2280,2397,1760,1719,1829,2399,2324,-134,5,-498,3593.78051757813,11.3042612847778,6.1055919437149,17.4408056285098,27.1720717368243,35.6992921487986,-5.41399010112338,3515.01831501831,3384.69743589744,0.13574097135741,0.296526054590571,0.54719387755102
52865,1804,2330,2420,1720,1722,1823,2395,2330,-138,0,-492,3613.31176757813,10.2767649814234,8.09759344372558,18.2406556274422,27.8401322525044,52.4541445240797,-3.48853492707945,3509.15750915751,3393.4358974359,0.130759651307597,0.290322580645161,0.539540816326531
53505,1856,2301,2483,1686,1742,1804,2377,2311,-144,-2,-504,3632.84301757813,8.13712052665855,6.91222869023979,20.7771309760212,34.364933184113,66.4700371304535,3.47774810833911,3482.78388278388,3365.7641025641,0.123287671232877,0.287841191066998,0.55484693877551
54145,1913,2216,2587,1661,1692,1782,2437,2280,-157,-4,-506,3652.37426757813,5.77896311762006,3.46937889682489,25.0621103175112,16.6362945817234,77.1753911727408,11.1487686299774,3570.69597069597,3320.61538461538,0.107098381070984,0.285359801488834,0.557397959183674
54785,1923,2130,2585,1698,1554,1769,2428,2354,-159,-3,-496,3671.90551757813,5.29512726736489,0.0285552521726134,25.1444747827387,-31.0710131706351,62.4991529910677,15.3570610962416,3557.50915750916,3428.38974358974,0.104607721046077,0.286600496277916,0.544642857142857
55425,1863,2249,2481,1711,1448,1766,2424,2334,-172,-9,-499,3691.43676757813,7.80419739419854,4.83205518811522,20.7944811884782,-67.7914983464194,57.7616991230445,15.8409959757044,3551.64835164835,3399.26153846154,0.0884184308841843,0.279156327543424,0.548469387755102
56065,2009,2267,2665,1708,1659,1741,2410,2338,-177,2,-504,3710.96801757813,1.87800385812355,5.47996438141909,28.0035618580915,5.26408073694338,57.3444366888479,26.6737486862054,3531.13553113553,3405.08717948718,0.0821917808219178,0.292803970223325,0.55484693877551
56705,2098,2160,2789,1720,1744,1774,2431,2347,-187,3,-498,3730.49926757813,-1.81489614694767,1.14893744795337,33.1062552046634,35.1191768291366,51.938404520213,15.0194206896242,3561.90476190476,3418.19487179487,0.0697384806973848,0.294044665012407,0.54719387755102
57345,2000,2148,2688,1719,1606,1783,2436,2261,-197,2,-500,3750.03051757813,2.18086372056029,0.708317986249012,29.1682013750988,-12.7396345738119,53.4028938661355,10.6621681577928,3569.23076923077,3292.94358974359,0.0572851805728518,0.292803970223325,0.549744897959184
57985,1972,2179,2581,1732,1461,1782,2435,2258,-191,-5,-502,3769.56176757813,3.28675393152264,1.99153841842291,24.8461581577093,-62.9870988933137,48.9564880652793,10.1206788226259,3567.76556776557,3288.57435897436,0.0647571606475716,0.284119106699752,0.552295918367347
58625,2030,2232,2729,1730,1553,1781,2437,2265,-206,10,-497,3789.09301757813,1.02676664958469,4.05382155744881,30.6178442551193,-31.0664753894508,49.1382255385395,11.1299883784439,3570.69597069597,3298.76923076923,0.0460772104607721,0.30272952853598,0.545918367346939
59265,2065,2219,2660,1714,1592,1787,2439,2266,-206,6,-496,3808.62426757813,-0.49673057059125,3.5614800861572,27.8519913842803,-17.6125635867918,55.6339969421816,9.02196017518832,3573.62637362637,3300.22564102564,0.0460772104607721,0.297766749379653,0.544642857142857
59905,2029,2191,2620,1722,1537,1796,2372,2305,-219,10,-489,3828.15551757813,0.950856467394786,2.45663814778041,26.3361852219589,-36.5777832393147,52.7257953349722,5.33003329742812,3475.45787545788,3357.02564102564,0.0298879202988792,0.30272952853598,0.535714285714286
60545,2028,2209,2462,1615,1536,1766,2424,2335,-212,14,-492,3847.68676757813,0.880983694723806,3.24024392522367,19.9756074776333,-38.0268473879968,97.5065326306773,15.6413923247201,3551.64835164835,3400.71794871795,0.0386052303860523,0.307692307692308,0.539540816326531
61185,2057,2136,2518,1659,1487,1772,2427,2360,-245,28,-482,3867.21801757813,-0.338966547359768,0.296616101360152,22.3383898639848,-54.6341757676854,79.395626629464,13.4242728659147,3556.04395604396,3437.12820512821,-0.0024906600249066,0.325062034739454,0.526785714285714
61825,2267,2143,2934,1677,1591,1727,2402,2325,-251,39,-488,3886.74926757813,-8.75734241213461,0.41195744720603,38.804255279397,-18.70523931097,70.75911786047,31.1695143546985,3519.41391941392,3386.15384615385,-0.0099626400996264,0.338709677419355,0.534438775510204
62465,2265,2218,3006,1714,1724,1774,2431,2349,-262,40,-483,3906.28051757813,-8.55984979208037,3.38460427209446,41.5395727905537,28.1253008473713,54.6031538933516,14.8262481825261,3561.90476190476,3421.10769230769,-0.0236612702366127,0.339950372208437,0.528061224489796
63105,2201,2148,2962,1775,1754,1789,2442,2274,-262,29,-488,3925.81176757813,-5.98025314014691,0.600296198727393,39.9703801272607,39.154677898919,28.8499607739738,9.94392205785471,3578.02197802198,3311.87692307692,-0.0236612702366127,0.326302729528536,0.534438775510204
63745,2180,2098,2883,1828,1665,1780,2432,2263,-264,32,-487,3945.34301757813,-5.20556451914249,-1.3692435088506,36.9243508850597,8.62245151420339,7.12780603696488,13.1385071417545,3563.36996336996,3295.85641025641,-0.0261519302615193,0.330024813895782,0.533163265306122
64385,2166,2155,2754,1866,1593,1774,2431,2366,-260,30,-486,3964.87426757813,-4.68090075374202,0.963417889095296,31.6582110904704,-16.1085446516126,-8.38521722540399,15.2013386949215,3561.90476190476,3445.86666666667,-0.0211706102117061,0.327543424317618,0.531887755102041
65025,2143,2197,2637,1865,1612,1790,2443,2270,-260,32,-486,3984.40551757813,-3.78298605550573,2.69090204823522,26.9097951764781,-9.40206083534978,-7.98184989383032,9.33489166131942,3579.48717948718,3306.05128205128,-0.0211706102117061,0.330024813895782,0.531887755102041
129,2139,2191,2602,1854,1662,1796,2371,2295,-257,35,-484,4003.93676757813,-3.64856227846817,2.46476209350244,25.5237906497555,7.91248835952094,-3.6665480169344,7.34768559644296,3473.99267399267,3342.46153846154,-0.0174346201743462,0.333746898263027,0.529336734693878
769,2134,2184,2616,1845,1678,1801,2377,2307,-261,38,-490,4023.46801757813,-3.43437319838575,2.17897636282109,26.1023637178912,13.4306154164684,0.0413311313257874,5.51123137858675,3482.78388278388,3359.93846153846,-0.0224159402241594,0.337468982630273,0.536989795918367
1409,2162,2159,2705,1852,1673,1800,2374,2303,-262,28,-483,4042.99926757813,-4.54996810475519,1.14308153438815,29.6918465611855,11.744830670757,-2.87411214446437,5.91035638439431,3478.38827838828,3354.11282051282,-0.0236612702366127,0.325062034739454,0.528061224489796
2049,2164,2144,2750,1874,1663,1800,2374,2299,-254,28,-480,4062.53051757813,-4.60907272916533,0.524784206649158,31.5215793350842,8.45385741871104,-12.0543458626015,6.02814159371614,3478.38827838828,3348.28717948718,-0.0136986301369863,0.325062034739454,0.524234693877551
2689,2168,2148,2859,1904,1643,1795,2374,2309,-251,33,-480,4082.06176757813,-4.68635730948263,0.641257900412103,35.8742099587897,1.71985185349751,-24.5644713996133,8.01632316918207,3478.38827838828,3362.85128205128,-0.0099626400996264,0.331265508684864,0.524234693877551
3329,2158,2134,2899,1949,1619,1787,2438,2264,-251,34,-483,4101.59301757813,-4.24846662609698,0.0648821343924157,37.5117865607584,-6.30149504172676,-43.3758485926709,11.2283784567867,3572.16117216117,3297.31282051282,-0.0099626400996264,0.332506203473945,0.528061224489796
3969,2140,2177,2879,1991,1617,1789,2443,2275,-245,34,-486,4121.12426757813,-3.48131425757479,1.79359305938121,36.6406940618794,-6.63523120197627,-61.0081708540276,10.8252865083968,3579.48717948718,3313.33333333333,-0.0024906600249066,0.332506203473945,0.531887755102041
4609,2082,2184,2680,1998,1631,1817,2389,2310,-238,36,-482,4140.65551757813,-1.21611430508402,2.15291968270237,28.7080317297632,-1.51082464270132,-63.8452822352621,0.497625481439232,3500.3663003663,3364.30769230769,0.0062266500622665,0.334987593052109,0.526785714285714
5249,2111,2187,2676,1994,1700,1846,2408,2323,-228,33,-475,4160.18676757813,-2.42581536389939,2.27482257435996,28.517742564004,22.6275234151823,-62.4392413859762,-9.9091515953626,3528.20512820513,3383.24102564103,0.0186799501867995,0.331265508684864,0.517857142857143
5889,2081,2164,2692,1983,1731,1869,2424,2348,-222,36,-489,4179.71801757813,-1.18013223181304,1.34770988138706,29.2290118612944,33.4696943328995,-57.864458375803,-18.3980360469495,3551.64835164835,3419.65128205128,0.0261519302615193,0.334987593052109,0.535714285714286
6529,2067,2144,2627,1996,1719,1885,2433,2253,-215,22,-486,4199.24926757813,-0.663307490177866,0.573219271133602,26.6780728866398,29.527629514022,-63.1284805490509,-24.364106263158,3564.83516483516,3281.29230769231,0.0348692403486924,0.317617866004963,0.531887755102041
7169,2029,2167,2686,1992,1709,1890,2435,2261,-204,24,-481,4218.78051757813,0.984918987412722,1.46973788514509,29.026211485491,26.059171740959,-61.3388827189202,-26.3419265512519,3567.76556776557,3292.94358974359,0.0485678704856787,0.320099255583127,0.525510204081633
7809,2000,2191,2663,1988,1750,1890,2435,2267,-191,21,-496,4238.31176757813,2.19375527138983,2.4391808393654,28.0819160634595,40.2623284938562,-59.9473982539858,-26.0856931054926,3567.76556776557,3301.68205128205,0.0647571606475716,0.316377171215881,0.544642857142857
8449,1960,2176,2646,1985,1755,1885,2435,2267,-184,7,-484,4257.84301757813,3.83619623182371,1.84535543847287,27.4644561527128,41.9370050289338,-58.7580348917964,-24.2033276660049,3567.76556776557,3301.68205128205,0.0734744707347447,0.299007444168734,0.529336734693878
9089,1958,2190,2669,1988,1753,1870,2423,2351,-174,12,-488,4277.37426757813,3.9484444729144,2.3964085153631,28.3591484636901,41.1571199310304,-60.1155319868797,-18.5737978979714,3550.18315018315,3424.02051282051,0.0859277708592777,0.305210918114144,0.534438775510204
9729,1940,2197,2625,1983,1780,1867,2421,2349,-176,-1,-503,4296.90551757813,4.66918725845024,2.69401316913288,26.5986830867124,50.4688956988391,-58.2263681209745,-17.3017501543153,3547.25274725275,3421.10769230769,0.0834371108343711,0.289081885856079,0.553571428571429
10369,1908,2176,2601,1978,1789,1864,2416,2328,-167,-4,-502,4316.43676757813,5.96804970586979,1.86293785898832,25.706214101168,53.5306714666479,-56.2096532346612,-16.1572534310674,3539.92673992674,3390.52307692308,0.0946450809464508,0.285359801488834,0.552295918367347
11009,1886,2203,2551,1974,1763,1853,2414,2342,-158,-13,-496,4335.96801757813,6.86598258706468,2.96330845771144,23.6691542288557,44.3891579544354,-54.4241769033173,-12.2559430406727,3536.99633699634,3410.91282051282,0.105853051058531,0.274193548387097,0.544642857142857
11649,1867,2235,2586,1965,1727,1851,2411,2329,-144,-23,-501,4355.49926757813,7.71004970453526,4.22977287649734,25.0227123502658,31.8003231255049,-50.3992233597559,-11.8391551377105,3532.60073260073,3391.97948717949,0.123287671232877,0.261786600496278,0.551020408163265
12289,1827,2259,2525,1951,1724,1847,2409,2333,-142,-20,-498,4375.03051757813,9.34727799441633,5.21433771325775,22.5662286742254,30.6139411591911,-44.5202791956174,-10.4823343194956,3529.67032967033,3397.80512820513,0.125778331257783,0.265508684863524,0.54719387755102
12929,1844,2240,2592,1934,1727,1842,2403,2327,-135,-27,-501,4394.56176757813,8.67732254766938,4.42727817457776,25.2721825422245,31.4788329960757,-37.4296827911916,-8.73418923481645,3520.87912087912,3389.06666666667,0.134495641344956,0.25682382133995,0.551020408163265
13569,1832,2287,2575,1934,1712,1838,2401,2330,-130,-27,-492,4414.09301757813,9.19979668449598,6.31491749941281,24.5082500587193,26.2411246168439,-37.3527653200833,-7.34235441099928,3517.94871794872,3393.4358974359,0.140722291407223,0.25682382133995,0.539540816326531
14209,1816,2326,2526,1927,1706,1827,2394,2321,-122,-36,-505,4433.62426757813,9.85755136602396,7.89517607776568,22.4823922234322,24.0193397804154,-34.4474993361837,-3.32504524013993,3507.69230769231,3380.3282051282,0.150684931506849,0.245657568238213,0.556122448979592
14849,1835,2304,2598,1913,1706,1822,2392,2322,-125,-31,-496,4453.15551757813,9.1059110629791,6.98607185371426,25.3928146285739,23.8672807192937,-28.5971574369212,-1.57243408331765,3504.7619047619,3381.78461538462,0.146948941469489,0.251861042183623,0.544642857142857
15489,1824,2332,2620,1921,1683,1826,2394,2313,-109,-36,-497,4472.68676757813,9.60316476896633,8.09772823116179,26.2271768838212,15.9764533705088,-31.7688352211183,-3.16494441543337,3507.69230769231,3368.67692307692,0.166874221668742,0.245657568238213,0.545918367346939
16129,1808,2363,2584,1923,1671,1824,2389,2322,-108,-46,-510,4492.21801757813,10.265139231418,9.35262328379562,24.7376716204386,11.8115763599998,-32.5394974028386,-2.48376504159716,3500.3663003663,3381.78461538462,0.168119551681196,0.233250620347395,0.5625
16769,1829,2371,2548,1918,1665,1823,2396,2323,-111,-43,-497,4511.74926757813,9.36734030357868,9.68737021704781,23.2629782952192,9.67970631742452,-30.4018024765693,-2.19462450576806,3510.62271062271,3383.24102564103,0.164383561643836,0.23697270471464,0.545918367346939
17409,1792,2391,2468,1907,1661,1822,2393,2320,-101,-39,-495,4531.28051757813,10.8614148276856,10.5194874607648,20.0512539235155,8.19284918197286,-25.7552538687713,-1.94276078542706,3506.22710622711,3378.87179487179,0.176836861768369,0.241935483870968,0.543367346938776
18049,1796,2376,2440,1887,1643,1815,2389,2322,-104,-50,-502,4550.81176757813,10.6610759907544,9.9304330013025,18.95669986975,1.7266710605811,-17.2690224549203,0.379913870310029,3500.3663003663,3381.78461538462,0.173100871731009,0.228287841191067,0.552295918367347
18689,1755,2382,2375,1864,1620,1803,2379,2308,-101,-43,-497,4570.34301757813,12.3231243527534,10.1962334918754,16.3766508124613,-6.53705274795532,-7.52256600087553,4.51409228753031,3485.71428571429,3361.39487179487,0.176836861768369,0.23697270471464,0.545918367346939
19329,1781,2346,2419,1833,1602,1801,2379,2311,-99,-47,-498,4589.87426757813,11.2468563499562,8.7381196885743,18.1880311425704,-13.0571365470621,5.62593191841934,4.86978432357427,3485.71428571429,3365.7641025641,0.179327521793275,0.232009925558313,0.54719387755102
19969,1752,2359,2347,1808,1600,1801,2377,2308,-104,-40,-503,4609.40551757813,12.4084823335042,9.28696178442551,15.3038215574488,-13.9575457303432,16.1527126587267,4.6412405251025,3482.78388278388,3361.39487179487,0.173100871731009,0.240694789081886,0.553571428571429
20609,1775,2339,2392,1769,1596,1786,2438,2259,-103,-43,-499,4628.93676757813,11.4702274904982,8.46874032466423,17.1259675335768,-15.7778960339368,32.4705700191511,9.89645389991202,3572.16117216117,3290.03076923077,0.174346201743462,0.23697270471464,0.548469387755102
21249,1730,2309,2428,1725,1631,1759,2421,2344,-106,-35,-496,4648.46801757813,13.3516877789166,7.25335634061452,18.6643659385476,-4.18589775632659,50.5264633786036,19.879535548837,3547.25274725275,3413.82564102564,0.170610211706102,0.246898263027295,0.544642857142857
21889,1756,2281,2454,1693,1641,1751,2416,2335,-109,-37,-502,4667.99926757813,12.2672364438537,6.12260785663955,19.7392143360451,-1.03606049161238,63.8529903668262,22.6722564360147,3539.92673992674,3400.71794871795,0.166874221668742,0.244416873449132,0.552295918367347
22529,1786,2260,2471,1665,1647,1747,2412,2324,-115,-30,-499,4687.53051757813,11.0142427615143,5.27563496893216,20.4365031067837,0.787217288325332,75.5552197273962,23.9728047452261,3534.06593406593,3384.69743589744,0.159402241594022,0.253101736972705,0.548469387755102
23169,1873,2226,2611,1643,1665,1735,2405,2333,-140,-42,-505,4707.06176757813,7.47292223832554,3.85963523316892,26.0364766831081,6.7678431804535,84.5906389654341,28.4060909007798,3523.80952380952,3397.80512820513,0.12826899128269,0.238213399503722,0.556122448979592
23809,1886,2235,2684,1661,1677,1743,2413,2330,-141,-46,-505,4726.59301757813,6.99575486302394,4.19069619712596,28.9303802874042,11.1415545508796,76.9952769922371,25.6492176860043,3535.53113553114,3393.4358974359,0.127023661270237,0.233250620347395,0.556122448979592
24449,1952,2238,2768,1691,1651,1747,2414,2350,-159,-48,-502,4746.12426757813,4.31353459366259,4.27767613114684,32.2323868853159,2.3903095056044,64.5937623152997,24.2240957378136,3536.99633699634,3422.5641025641,0.104607721046077,0.230769230769231,0.552295918367347
25089,1940,2257,2768,1715,1585,1738,2407,2336,-163,-40,-507,4765.65551757813,4.82818572107275,5.03795333952555,32.2046660474452,-20.3947248650507,54.9032514683398,27.3329917841936,3526.73992673993,3402.17435897436,0.099626400996264,0.240694789081886,0.558673469387755
25729,1895,2256,2633,1733,1535,1735,2404,2319,-179,-48,-502,4785.18676757813,6.59615231914462,5.05160657282258,26.8393427177418,-37.6295726486232,47.66645052255,28.2566263530559,3522.34432234432,3377.41538461538,0.0797011207970112,0.230769230769231,0.552295918367347
26369,1904,2285,2521,1705,1504,1740,2406,2340,-176,-32,-504,4804.71801757813,6.15427990145837,6.25709769286614,22.2902307133859,-48.5874232376361,59.6969619450084,25.9241999367965,3525.27472527472,3408,0.0834371108343711,0.250620347394541,0.55484693877551
27009,1992,2291,2523,1679,1589,1720,2393,2321,-184,-25,-509,4824.24926757813,2.4923094425939,6.49715011316807,22.2849886831935,-19.4346129066299,69.880875193372,33.7942145825692,3506.22710622711,3380.3282051282,0.0734744707347447,0.259305210918114,0.561224489795918
27649,2050,2239,2652,1664,1649,1715,2395,2321,-182,-29,-499,4843.78051757813,0.137389100634168,4.36495499967971,27.5045000320287,1.23842277602823,75.7265513607955,35.9634209489039,3509.15750915751,3380.3282051282,0.0759651307596513,0.254342431761787,0.548469387755102
28289,2069,2332,2688,1681,1642,1729,2401,2324,-200,-16,-497,4863.31176757813,-0.555310391444067,8.07254733574616,28.7452664253838,-0.949264096473575,68.7303934808431,30.816144676169,3517.94871794872,3384.69743589744,0.0535491905354919,0.270471464019851,0.545918367346939
28929,2104,2304,2750,1699,1630,1735,2405,2333,-215,-28,-494,4882.84301757813,-1.98637279001986,6.92746100506054,31.2538994939466,-4.92357358233004,61.2904120119076,28.6382671045946,3523.80952380952,3397.80512820513,0.0348692403486924,0.255583126550869,0.542091836734694
29569,2092,2269,2730,1715,1597,1736,2404,2325,-212,-25,-496,4902.37426757813,-1.52865267279482,5.53467306706809,30.5326932931907,-16.2427457213333,54.8035299317851,28.167089468211,3522.34432234432,3386.15384615385,0.0386052303860523,0.259305210918114,0.544642857142857
30209,2115,2276,2754,1726,1579,1741,2409,2324,-219,-23,-505,4921.90551757813,-2.46301602902868,5.80539530085623,31.4604699143766,-22.365402428872,50.3422520614956,26.2612027154361,3529.67032967033,3384.69743589744,0.0298879202988792,0.261786600496278,0.556122448979592
30849,2139,2298,2747,1728,1628,1747,2412,2322,-238,-19,-492,4941.43676757813,-3.45222636148656,6.68883486270365,31.1165137296351,-5.29097379202838,49.1980837357446,24.378383643452,3534.06593406593,3381.78461538462,0.0062266500622665,0.266749379652605,0.539540816326531
31489,2138,2249,2698,1732,1671,1754,2419,2348,-240,-17,-502,4960.96801757813,-3.48665938013794,4.74747106740973,29.2528932590268,9.72394245206344,47.2627675058945,22.0956654464889,3544.32234432234,3419.65128205128,0.0037359900373599,0.269230769230769,0.552295918367347
32129,2130,2251,2743,1747,1656,1763,2422,2343,-243,-15,-491,4980.49926757813,-3.11600060320714,4.80942791407768,31.057208592232,4.70528181530378,41.1275888333491,18.7472092903507,3548.71794871795,3412.36923076923,0,0.271712158808933,0.538265306122449
32769,2151,2241,2738,1768,1630,1767,2427,2346,-252,-26,-496,5000.03051757813,-4.00291778099844,4.41140628669955,30.8593713300451,-4.12011053595265,32.510613182106,17.2449136155265,3556.04395604396,3416.73846153846,-0.0112079701120797,0.258064516129032,0.544642857142857
33409,2124,2246,2707,1781,1629,1767,2422,2329,-258,-24,-496,5019.56176757813,-2.89824249193944,4.62369149424551,29.6308505754489,-4.36023109397978,27.0511429794591,17.3493006084189,3548.71794871795,3391.97948717949,-0.0186799501867995,0.260545905707196,0.544642857142857
34049,2096,2219,2584,1777,1616,1769,2425,2339,-254,-21,-497,5039.09301757813,-1.84915517637136,3.59216591399227,24.783408600773,-8.89238681813329,28.8399680285673,16.4738173225416,3553.11355311355,3406.54358974359,-0.0136986301369863,0.264267990074442,0.545918367346939
34689,2127,2191,2620,1747,1655,1760,2418,2346,-261,-21,-498,5058.62426757813,-3.13409531606987,2.45745554683663,26.2544453163368,4.33602830865768,41.1126437167257,19.8637186281682,3542.85714285714,3416.73846153846,-0.0224159402241594,0.264267990074442,0.54719387755102
35329,2160,2240,2644,1753,1689,1748,2414,2342,-267,-22,-486,5078.15551757813,-4.4533418609741,4.40909521598019,27.0904784019815,16.1028902638385,38.2605628566852,24.6504795069446,3536.99633699634,3410.91282051282,-0.0298879202988792,0.26302729528536,0.531887755102041
35969,2161,2291,2587,1758,1679,1748,2412,2324,-276,-23,-487,5097.68676757813,-4.5014147676318,6.47293675132919,24.7063248670809,12.6718609893836,36.2289028537484,24.6224921215142,3534.06593406593,3384.69743589744,-0.0410958904109589,0.261786600496278,0.533163265306122
36609,2187,2228,2632,1752,1666,1746,2412,2338,-280,-27,-487,5117.21801757813,-5.59742846256913,3.93388642890697,26.6113571093033,8.09385304022468,38.8293615293346,25.2279864594313,3534.06593406593,3405.08717948718,-0.0460772104607721,0.25682382133995,0.533163265306122
37249,2242,2256,2714,1763,1649,1748,2414,2337,-278,-20,-489,5136.74926757813,-7.80370211709692,5.02207177631158,29.7928223688425,2.29638727048431,34.3389662068207,24.4527813800748,3536.99633699634,3403.63076923077,-0.0435865504358655,0.265508684863524,0.535714285714286
37889,2294,2319,2840,1790,1658,1759,2424,2340,-279,-26,-486,5156.28051757813,-9.82342312044926,7.49331134029424,34.6688659705763,5.72461056464886,23.0023549957546,20.6282278829135,3551.64835164835,3408,-0.0448318804483188,0.258064516129032,0.531887755102041
38529,2361,2367,3052,1853,1637,1780,2435,2267,-282,-27,-491,5175.81176757813,-12.4116289862383,9.32994729944697,43.0052700553029,-0.893805969182121,-3.18638966932885,13.1544659062127,3567.76556776557,3301.68205128205,-0.0485678704856787,0.25682382133995,0.538265306122449
39169,2361,2443,3003,1942,1591,1823,2392,2315,-289,-15,-486,5195.34301757813,-12.3926599900177,12.3910740690325,40.892593096748,-15.8170119777367,-39.9695301278539,-2.5132043186456,3504.7619047619,3371.58974358974,-0.0572851805728518,0.271712158808933,0.531887755102041
39809,2326,2441,2869,1982,1564,1839,2403,2339,-270,-15,-487,5214.87426757813,-11.0414931778874,12.3643904938825,35.5609506117481,-24.7449682120039,-56.4808768611779,-8.35404587196034,3520.87912087912,3406.54358974359,-0.0336239103362391,0.271712158808933,0.533163265306122
40449,2330,2418,2863,2006,1603,1872,2422,2344,-274,-13,-493,5234.40551757813,-11.2304778414793,11.4463692802084,35.36307197916,-10.7632312673913,-66.606997345251,-20.2314392851844,3548.71794871795,3413.82564102564,-0.0386052303860523,0.274193548387097,0.540816326530612
41089,2313,2418,2762,2037,1644,1908,2446,2268,-257,-5,-491,5253.93676757813,-10.601927493701,11.4866637173574,31.3336282642581,3.99265153296392,-79.668789233819,-33.1582318588216,3583.88278388278,3303.13846153846,-0.0174346201743462,0.284119106699752,0.538265306122449
41729,2257,2396,2651,2054,1665,1931,2392,2316,-260,-10,-485,5273.46801757813,-8.3723951660688,10.6501995788226,26.9800421177375,11.593280735956,-86.7972659589124,-41.4778819499978,3504.7619047619,3373.04615384615,-0.0211706102117061,0.277915632754342,0.530612244897959
42369,2172,2292,2667,2036,1700,1931,2390,2323,-243,-14,-488,5292.99926757813,-4.89575226069225,6.48101966028228,27.898033971772,23.5977639017713,-79.4762037805397,-41.3842135302489,3501.8315018315,3383.24102564103,0,0.272952853598015,0.534438775510204
43009,2140,2185,2645,2047,1673,1938,2400,2318,-230,-10,-495,5312.53051757813,-3.660723007815,2.20743586253283,27.2564137467171,14.3647947171819,-83.8590186176759,-44.1029394636399,3516.48351648352,3375.95897435897,0.0161892901618929,0.277915632754342,0.543367346938776
43649,2096,2156,2699,2070,1603,1928,2388,2321,-220,-19,-492,5332.06176757813,-1.80591643445861,1.02487362009694,29.512637990306,-9.82471089339018,-93.1080242187203,-40.6564311117705,3498.9010989011,3380.3282051282,0.0286425902864259,0.266749379652605,0.539540816326531
44289,2041,2104,2651,2105,1468,1901,2443,2271,-215,-16,-497,5351.59301757813,0.409053011498303,-1.03740051085773,27.7400510857729,-56.6096418188337,-107.067324892063,-31.2005841662508,3579.48717948718,3307.50769230769,0.0348692403486924,0.270471464019851,0.545918367346939
44929,1948,2116,2621,2091,1425,1890,2435,2266,-184,-3,-498,5371.12426757813,4.27093575843956,-0.545927150727052,26.5927150727051,-71.7363190043587,-100.956340346229,-27.505487213612,3567.76556776557,3300.22564102564,0.0734744707347447,0.286600496277916,0.54719387755102
45569,1944,2235,2588,2060,1557,1905,2447,2273,-178,2,-493,5390.65551757813,4.50203015234984,4.22961440117012,25.0385598829885,-26.0482255250635,-88.7459236519333,-32.4539112060019,3585.34798534799,3310.42051282051,0.0809464508094645,0.292803970223325,0.540816326530612
46209,1946,2190,2709,2025,1693,1923,2385,2308,-154,17,-486,5410.18676757813,4.48035106121752,2.38029407682617,29.970592317383,21.0178337693306,-74.8598029996627,-38.5318854668673,3494.50549450549,3361.39487179487,0.110834371108344,0.311414392059553,0.531887755102041
46849,1938,2172,2686,2044,1704,1908,2444,2274,-163,-3,-500,5429.71801757813,4.78189190848334,1.66907816069865,29.0921839301347,24.8836549931715,-83.037489655164,-32.6730377811906,3580.95238095238,3311.87692307692,0.099626400996264,0.286600496277916,0.549744897959184
47489,1896,2219,2682,2047,1705,1894,2437,2263,-152,2,-501,5449.24926757813,6.56516672271689,3.55126259795443,28.8737402045566,25.1527803234094,-84.408901492174,-27.3967813449617,3570.69597069597,3295.85641025641,0.11332503113325,0.292803970223325,0.551020408163265
48129,1927,2185,2688,2065,1679,1875,2428,2348,-124,5,-488,5468.78051757813,5.25188118554225,2.18844384568574,29.1556154314266,16.1337656895761,-91.9332706487687,-20.3105693855927,3557.50915750916,3419.65128205128,0.148194271481943,0.296526054590571,0.534438775510204
48769,1894,2108,2720,2089,1614,1852,2411,2335,-127,4,-499,5488.31176757813,6.59422042149766,-0.906171930049324,30.6171930049324,-6.40685911950151,-101.733680324174,-11.9511414785283,3532.60073260073,3400.71794871795,0.144458281444583,0.295285359801489,0.548469387755102
49409,1853,2166,2521,2134,1465,1824,2391,2320,-95,2,-489,5507.84301757813,8.18960104920676,1.49430923440736,22.5690765592638,-57.9778590219961,-119.806161771667,-2.13422046186051,3503.2967032967,3378.87179487179,0.184308841843088,0.292803970223325,0.535714285714286
50049,1694,2284,2417,2068,1570,1834,2398,2327,-98,17,-487,5527.37426757813,14.8245454593983,6.25696357269447,18.3036427305532,-21.9898349844454,-92.7234855875438,-5.70143185685189,3513.55311355311,3389.06666666667,0.180572851805729,0.311414392059553,0.533163265306122
50689,1758,2248,2487,2040,1793,1879,2430,2357,-80,19,-479,5546.90551757813,12.1849270279504,4.78875739329106,21.1242606708945,55.5405093299713,-82.1991103274155,-21.2152450600358,3560.43956043956,3432.75897435897,0.202988792029888,0.313895781637717,0.522959183673469
51329,1724,2120,2455,2023,1741,1887,2435,2255,-69,11,-475,5566.43676757813,13.479421228087,-0.321256512501868,20.1256512501868,37.4036478438037,-74.6233057947945,-24.7257530620595,3567.76556776557,3284.20512820513,0.216687422166874,0.303970223325062,0.517857142857143
51969,1701,2165,2443,2011,1666,1859,2417,2347,-58,14,-483,5585.96801757813,14.4628525492174,1.48424955426729,19.575044573271,11.0574927812059,-69.251416496791,-14.8732225635037,3541.39194139194,3418.19487179487,0.230386052303861,0.307692307692308,0.528061224489796
52609,1646,2205,2376,1995,1657,1827,2398,2333,-46,17,-483,5605.49926757813,16.732743204578,3.11140915593705,16.8590844062947,7.56567498116233,-62.6945719747629,-3.0891770833534,3513.55311355311,3397.80512820513,0.2453300124533,0.311414392059553,0.528061224489796
53249,1650,2202,2438,1964,1665,1811,2387,2319,-40,8,-468,5625.03051757813,16.612876470651,2.9665607050584,19.3439294941601,9.97055629918854,-49.8331270789246,2.69420100838623,3497.4358974359,3377.41538461538,0.25280199252802,0.300248138957816,0.508928571428572
53889,1599,2204,2403,1941,1654,1798,2376,2309,-42,11,-470,5644.56176757813,18.7124952290586,3.06018759475156,17.9812405248436,5.86615539584417,-40.1790483999599,7.28794527441795,3481.31868131868,3362.85128205128,0.250311332503113,0.303970223325062,0.511479591836735
54529,1606,2234,2462,1910,1678,1804,2379,2307,-26,10,-470,5664.09301757813,18.4903033117673,4.23722054961245,20.2779450387547,13.9881550218677,-27.269419436487,4.94500167643301,3485.71428571429,3359.93846153846,0.270236612702366,0.30272952853598,0.511479591836735
55169,1626,2246,2502,1880,1712,1815,2387,2321,-23,6,-472,5683.62426757813,17.6974762720731,4.70161131040079,21.8388689599214,25.6273342670401,-14.8144376798338,0.80883543893748,3497.4358974359,3380.3282051282,0.273972602739726,0.297766749379653,0.514030612244898
55809,1594,2263,2454,1864,1709,1813,2387,2314,-23,2,-470,5703.15551757813,19.0062195727372,5.4008992056883,19.9100794311703,24.4391626445687,-8.07979732036962,1.39944286971075,3497.4358974359,3370.13333333333,0.273972602739726,0.292803970223325,0.511479591836735
56449,1562,2276,2349,1830,1675,1809,2384,2305,-30,2,-468,5722.68676757813,20.2667356618197,5.9629281169261,15.7071883073901,12.3241199982967,6.42890476934802,2.36509531581493,3493.04029304029,3357.02564102564,0.265255292652553,0.292803970223325,0.508928571428572
57089,1530,2282,2197,1771,1650,1822,2391,2319,-24,0,-475,5742.21801757813,21.4846695972925,6.2636348835223,9.63651164776973,3.2529565582567,31.5112836986367,-3.18688938924955,3503.2967032967,3377.41538461538,0.272727272727273,0.290322580645161,0.517857142857143
57729,1614,2264,2298,1711,1682,1843,2408,2330,-31,-7,-480,5761.74926757813,18.0496538231589,5.50354184015545,13.6458159844554,14.0239712871269,56.6690054912847,-11.3397920698509,3528.20512820513,3393.4358974359,0.2640099626401,0.281637717121588,0.524234693877551
58369,1650,2253,2342,1673,1689,1830,2399,2325,-50,-6,-476,5781.28051757813,16.5755710449896,5.04600788973587,15.399211026413,16.0459915404805,72.5030981926651,-6.74711966113358,3515.01831501831,3386.15384615385,0.240348692403487,0.28287841191067,0.519132653061225
59009,1603,2207,2161,1616,1617,1816,2386,2321,-47,-3,-485,5800.81176757813,18.356208662962,3.27716734193838,8.28326580616232,-9.526420724712,96.8792367763837,-2.50264498522791,3495.9706959707,3380.3282051282,0.244084682440847,0.286600496277916,0.530612244897959
59649,1619,2162,2204,1543,1530,1795,2374,2300,-66,-9,-478,5820.34301757813,17.6891336303995,1.4591917691585,10.0808230841501,-40.4903900864157,128.038330925799,4.12006228387556,3478.38827838828,3349.74358974359,0.220423412204234,0.279156327543424,0.521683673469388
60289,1810,2193,2527,1522,1611,1721,2391,2316,-86,4,-495,5839.87426757813,10.0072725161745,2.57208458779066,22.791541220934,-13.081838816161,135.751504044793,32.2293256521442,3503.2967032967,3373.04615384615,0.195516811955168,0.295285359801489,0.543367346938776
60929,1886,2262,2537,1505,1739,1711,2388,2308,-93,-1,-489,5859.40551757813,6.89976485597762,5.33008508957359,22.9914910426409,31.1491119911282,141.919610666789,36.73590088791,3498.9010989011,3361.39487179487,0.186799501867995,0.289081885856079,0.535714285714286
61569,1849,2107,2449,1489,1708,1728,2397,2319,-120,-2,-497,5878.93676757813,8.25437842306707,-0.838069910639933,19.8069910639933,20.3782496144525,148.992195192684,30.0119907513567,3512.08791208791,3377.41538461538,0.153175591531756,0.287841191066998,0.545918367346939
62209,1888,1925,2605,1499,1497,1697,2378,2317,-144,-8,-493,5898.46801757813,6.61395310197937,-8.18381469796938,26.3814697969381,-53.0309099846151,146.054676630983,40.2130448219951,3484.24908424908,3374.50256410256,0.123287671232877,0.280397022332506,0.540816326530612
62849,2099,2132,2903,1555,1489,1672,2361,2299,-159,-1,-490,5917.99926757813,-1.78750944179318,-0.017251123673478,37.7251123673478,-55.5309207842643,122.379529109979,49.9998434365721,3459.34065934066,3348.28717948718,0.104607721046077,0.289081885856079,0.536989795918367
63489,2056,2190,2829,1565,1549,1725,2405,2341,-168,4,-489,5937.53051757813,-0.00967366760617516,2.33316851899302,34.6831481006982,-34.2259821972411,118.138535038225,30.66057482383,3523.80952380952,3409.45641025641,0.0933997509339975,0.295285359801489,0.535714285714286
64129,2013,2167,2668,1584,1536,1727,2401,2330,-199,7,-495,5957.06176757813,1.63758110600431,1.47681088922341,28.3189110776589,-38.5686503616648,110.255760355003,29.982313283794,3517.94871794872,3393.4358974359,0.0547945205479452,0.299007444168734,0.543367346938776
64769,2065,2122,2647,1575,1517,1702,2383,2312,-207,10,-497,5976.59301757813,-0.580821916437128,-0.315241456344885,27.5241456344885,-45.4236139267339,113.99134253204,39.1337982491017,3491.57509157509,3367.22051282051,0.0448318804483188,0.30272952853598,0.545918367346939
65409,2172,2179,2852,1599,1621,1666,2358,2297,-225,14,-481,5996.12426757813,-4.83505787852583,1.88470936625883,35.5290633741165,-9.37915207942617,102.897901599188,53.5597023721206,3454.94505494505,3345.37435897436,0.0224159402241594,0.307692307692308,0.525510204081633
513,2199,2208,2849,1612,1674,1716,2391,2312,-231,23,-493,6015.65551757813,-5.94082214330707,3.04671152018876,35.3288479811244,9.49791543627806,97.4229664090481,35.3201506659379,3503.2967032967,3367.22051282051,0.0149439601494396,0.318858560794045,0.540816326530612
1153,2190,2229,2757,1652,1604,1739,2406,2319,-245,21,-482,6035.18676757813,-5.62262854184016,3.92388646894284,31.6113531057161,-14.3091900232223,81.267731221466,26.5528810507617,3525.27472527472,3377.41538461538,-0.0024906600249066,0.316377171215881,0.526785714285714
1793,2186,2187,2734,1658,1563,1743,2410,2341,-244,24,-478,6054.71801757813,-5.50607677812654,2.25222732902014,30.7772670979865,-28.4664945511141,79.0646131300536,24.8156699812081,3531.13553113553,3409.45641025641,-0.0012453300124533,0.320099255583127,0.521683673469388
2433,2222,2264,2738,1672,1633,1736,2405,2329,-261,15,-480,6074.24926757813,-6.94492798881131,5.33245521320436,30.7544786795636,-4.0970050721324,72.6301143470639,28.0534725928895,3523.80952380952,3391.97948717949,-0.0224159402241594,0.30893300248139,0.524234693877551
3073,2256,2227,2689,1674,1696,1756,2418,2348,-268,31,-477,6093.78051757813,-8.42914417985182,3.8716216396558,28.8378360344202,17.9413473364671,71.4895523327513,21.0264141772279,3542.85714285714,3419.65128205128,-0.0311332503113325,0.3287841191067,0.520408163265306
3713,2268,2236,2743,1692,1670,1774,2430,2353,-279,16,-479,6113.31176757813,-8.8796898687891,4.21028107851301,30.9718921486986,9.19405187719503,64.2369023507178,14.2549482339752,3560.43956043956,3426.93333333333,-0.0448318804483188,0.310173697270471,0.522959183673469
4353,2256,2204,2722,1722,1660,1775,2425,2348,-286,29,-479,6132.84301757813,-8.42048041712041,2.93795307261973,30.2046927380266,5.97633110305149,51.6999777045492,14.0668004762097,3553.11355311355,3419.65128205128,-0.0535491905354919,0.326302729528536,0.522959183673469
4993,2285,2189,2699,1724,1671,1786,2439,2269,-288,21,-479,6152.37426757813,-9.65893523930776,2.34710533971772,29.289466028228,9.89303410282377,50.8618025625886,10.0420478517785,3573.62637362637,3304.59487179487,-0.0560398505603985,0.316377171215881,0.522959183673469
5633,2293,2210,2680,1741,1673,1793,2371,2305,-303,19,-475,6171.90551757813,-9.99148787313433,3.19519589552239,28.4804104477612,10.7789408999996,43.7504628421097,7.58026993568963,3473.99267399267,3357.02564102564,-0.074719800747198,0.313895781637717,0.517857142857143
6273,2271,2166,2719,1742,1674,1801,2377,2299,-307,26,-472,6191.43676757813,-9.0770121695706,1.4185246647663,30.1475335233703,11.1931518035723,43.3816224299181,4.59967628035698,3482.78388278388,3348.28717948718,-0.0797011207970112,0.32258064516129,0.514030612244898
6913,2297,2188,2758,1764,1694,1804,2377,2313,-312,21,-476,6210.96801757813,-10.1131241926099,2.28356440704204,31.6435592957957,18.3408765026169,34.0108349621912,3.80645101807443,3482.78388278388,3368.67692307692,-0.0859277708592777,0.316377171215881,0.519132653061225
7553,2308,2178,2871,1800,1704,1806,2383,2319,-313,20,-472,6230.49926757813,-10.4896697440907,1.83821704247005,36.1782957529947,22.1243754717133,18.8165047043587,3.43694393220102,3491.57509157509,3377.41538461538,-0.087173100871731,0.315136476426799,0.514030612244898
8193,2353,2218,3066,1866,1707,1822,2391,2325,-313,10,-473,6250.03051757813,-12.1804071448017,3.36131673979886,43.868326020114,23.8272892325029,-8.84053980387358,-1.96836626571442,3503.2967032967,3386.15384615385,-0.087173100871731,0.30272952853598,0.51530612244898
8833,2372,2287,3203,1965,1718,1845,2408,2332,-311,8,-481,6269.56176757813,-12.811299257468,6.06799625798048,49.2003742019516,28.6312605566571,-50.3795104183996,-9.65573963667864,3528.20512820513,3396.34871794872,-0.0846824408468244,0.300248138957816,0.525510204081633
9473,2387,2303,2927,2082,1627,1847,2404,2326,-305,8,-479,6289.09301757813,-13.6431641083744,6.81893810187261,38.1061898127389,-1.98735916486004,-98.9189889596351,-10.0463861306963,3522.34432234432,3387.61025641026,-0.0772104607721046,0.300248138957816,0.522959183673469
10113,2229,2227,2580,2060,1633,1856,2411,2347,-285,4,-476,6308.62426757813,-7.39010369958149,3.91503553850917,24.4964461490829,-0.0191809484313662,-89.6443167170245,-13.5633025280738,3532.60073260073,3418.19487179487,-0.0523038605230386,0.295285359801489,0.519132653061225
10753,2190,2194,2454,2018,1718,1870,2424,2343,-277,7,-477,6328.15551757813,-5.88944360813956,2.64450013879102,19.5499861208977,29.2514998398566,-72.4826461995115,-18.5645680155422,3551.64835164835,3412.36923076923,-0.0423412204234122,0.299007444168734,0.520408163265306
11393,2167,2162,2580,1979,1747,1873,2426,2343,-275,0,-485,6347.68676757813,-4.85519075091282,1.31322765197617,24.6772348023829,39.0216705761397,-56.2664446699588,-19.8170841370256,3554.57875457875,3412.36923076923,-0.0398505603985056,0.290322580645161,0.530612244897959
12033,2168,2183,2561,1993,1730,1881,2431,2351,-274,-1,-493,6367.21801757813,-4.89596111449192,2.16125982213397,23.8740177866035,33.2929831439075,-61.9742904321896,-22.8137556520736,3561.90476190476,3424.02051282051,-0.0386052303860523,0.289081885856079,0.540816326530612
12673,2149,2109,2586,2002,1620,1890,2435,2269,-256,-12,-501,6386.74926757813,-4.14045334619819,-0.8103770978797,25.03770978797,-4.7612201412841,-64.9132571465624,-26.8868469003439,3567.76556776557,3304.59487179487,-0.0161892901618929,0.275434243176179,0.551020408163265
13313,2143,2112,2668,2016,1489,1883,2433,2267,-246,-4,-498,6406.28051757813,-3.82306997069374,-0.72319698449811,28.319698449811,-50.183397328969,-69.923436201661,-25.0733640165537,3564.83516483516,3301.68205128205,-0.0037359900373599,0.285359801488834,0.54719387755102
13953,2093,2168,2670,2017,1463,1873,2426,2352,-234,7,-488,6425.81176757813,-1.6947273090022,1.51669729410886,28.3302705891145,-59.2763741319396,-70.2331377897837,-21.5037111687907,3554.57875457875,3425.47692307692,0.0112079701120797,0.299007444168734,0.534438775510204
14593,2118,2199,2809,2007,1594,1880,2426,2344,-229,10,-491,6445.34301757813,-2.60303898960135,2.70187154356971,33.8128456430295,-13.8212425860408,-66.9049760794382,-23.2828946185216,3554.57875457875,3413.82564102564,0.0174346201743462,0.30272952853598,0.538265306122449
15233,2055,2215,2672,2012,1645,1877,2430,2364,-221,14,-494,6464.87426757813,-0.0734289590139433,3.39651294226294,28.3487057737066,3.90625241063599,-69.3909236026265,-21.7550302625063,3560.43956043956,3442.95384615385,0.0273972602739726,0.307692307692308,0.542091836734694
15873,2050,2228,2665,2003,1706,1863,2419,2345,-214,21,-496,6484.40551757813,0.139326836845814,3.91953190058292,28.0468099417078,24.9098479995655,-66.1414534734046,-16.1565020604282,3544.32234432234,3415.28205128205,0.0361145703611457,0.316377171215881,0.544642857142857
16513,2053,2214,2725,2018,1754,1859,2413,2330,-197,10,-500,6503.93676757813,0.0511903665684452,3.335257390622,30.4742609378003,41.6707184636357,-72.8185296165487,-14.18961578746,3535.53113553114,3393.4358974359,0.0572851805728518,0.30272952853598,0.549744897959184
17153,1994,2201,2534,2020,1711,1862,2418,2346,-188,8,-500,6523.46801757813,2.34920155125659,2.89097564751351,22.9024352486495,26.778671371611,-73.3328017890819,-15.6007667914678,3542.85714285714,3416.73846153846,0.0684931506849315,0.300248138957816,0.549744897959184
17793,1950,2215,2460,1985,1667,1851,2410,2338,-177,0,-503,6542.99926757813,4.13525051779728,3.48051320649969,19.948679350031,11.1317615832409,-58.3841400154938,-12.092828035441,3531.13553113553,3405.08717948718,0.0821917808219178,0.290322580645161,0.553571428571429
18433,1938,2209,2553,1951,1698,1847,2410,2339,-179,1,-494,6562.53051757813,4.7046066609015,3.20306060897231,23.6939391027694,21.5861633814134,-44.3360388328056,-10.6665746823074,3531.13553113553,3406.54358974359,0.0797011207970112,0.291563275434243,0.542091836734694
19073,1972,2235,2606,1949,1726,1857,2415,2336,-165,-4,-501,6582.06176757813,3.34916985619115,4.22264148677215,25.7358513227852,31.3653460392749,-43.6200052440956,-14.2306300529843,3538.46153846154,3402.17435897436,0.0971357409713574,0.285359801488834,0.551020408163265
19713,1986,2230,2696,1966,1688,1868,2420,2333,-166,-5,-498,6601.59301757813,2.8331458319988,3.98662668417569,29.3373315824312,18.3917389934604,-50.4185232066578,-18.4739820219152,3545.78754578755,3397.80512820513,0.0958904109589041,0.284119106699752,0.54719387755102
20353,1955,2250,2655,1989,1619,1866,2420,2345,-167,-7,-499,6621.12426757813,4.10803696778981,4.80317998259774,27.6820017402259,-5.39179430309246,-59.6158648837057,-18.0166421838934,3545.78754578755,3415.28205128205,0.0946450809464508,0.281637717121588,0.548469387755102
20993,1869,2223,2568,1974,1570,1849,2411,2338,-151,-3,-495,6640.65551757813,7.60328637792796,3.75675772158521,24.3242278414793,-22.654105980352,-53.0859215637282,-12.1254460853362,3532.60073260073,3405.08717948718,0.114570361145704,0.286600496277916,0.543367346938776
21633,1836,2215,2441,1956,1616,1845,2407,2319,-144,0,-485,6660.18676757813,8.87207170958512,3.48716917024321,19.2830829756795,-6.85955341599076,-45.872182277059,-10.4557024789584,3526.73992673993,3377.41538461538,0.123287671232877,0.290322580645161,0.530612244897959
22273,1796,2220,2457,1917,1612,1831,2396,2325,-131,5,-495,6679.71801757813,10.55588574029,3.68052908739564,19.947091260436,-8.6725599581097,-29.54698115516,-5.57502093935488,3510.62271062271,3386.15384615385,0.13947696139477,0.296526054590571,0.543367346938776
22913,1807,2247,2497,1899,1637,1824,2390,2319,-129,10,-485,6699.24926757813,10.1496175573314,4.74514264781244,21.485735218756,-0.191705344838971,-22.2064636291051,-2.93049135116861,3501.8315018315,3377.41538461538,0.141967621419676,0.30272952853598,0.530612244897959
23553,1810,2226,2494,1881,1653,1824,2390,2327,-128,3,-498,6718.78051757813,10.00621556915,3.90595173275255,21.4048267247454,5.21555559875415,-14.7507642625237,-2.97146011962838,3501.8315018315,3389.06666666667,0.14321295143213,0.294044665012407,0.54719387755102
24193,1795,2157,2426,1865,1627,1816,2386,2314,-125,8,-495,6738.31176757813,10.5250719644802,1.17168082602011,18.8319173979886,-4.00278970367614,-7.89720461249681,-0.296643537029579,3495.9706959707,3370.13333333333,0.146948941469489,0.300248138957816,0.543367346938776
24833,1800,2202,2516,1845,1625,1808,2380,2300,-125,7,-498,6757.84301757813,10.4222306519975,2.9365838457925,22.3416154207503,-4.92075603098697,0.468304355072215,2.51394163872076,3487.17948717949,3349.74358974359,0.146948941469489,0.299007444168734,0.54719387755102
25473,1821,2203,2581,1825,1645,1811,2386,2319,-128,7,-495,6777.37426757813,9.59917069027182,2.95075554363376,24.9244456366237,1.88094790681199,8.75869900725216,1.36057231881517,3495.9706959707,3377.41538461538,0.14321295143213,0.299007444168734,0.543367346938776
26113,1837,2182,2579,1822,1642,1811,2383,2310,-132,8,-497,6796.90551757813,8.91468005332778,2.1112727003395,24.8727299660496,0.814565471484915,10.0414705192183,1.3135892398693,3491.57509157509,3364.30769230769,0.138231631382316,0.300248138957816,0.545918367346939
26753,1840,2194,2655,1819,1634,1810,2384,2305,-126,7,-494,6816.43676757813,8.85900466818269,2.56110875344309,27.8891246556915,-1.9952718364279,11.3523291087121,1.60570715712716,3493.04029304029,3357.02564102564,0.145703611457036,0.299007444168734,0.542091836734694
27393,1872,2194,2702,1827,1636,1808,2381,2314,-135,13,-494,6835.96801757813,7.56240024395192,2.54255879935089,29.7441200649115,-1.24960619850496,7.95943456065585,2.43754203125873,3488.64468864469,3370.13333333333,0.134495641344956,0.306451612903226,0.542091836734694
28033,1872,2222,2692,1842,1630,1810,2384,2318,-143,12,-485,6855.49926757813,7.57577222524716,3.66711840475733,29.2881595242671,-3.19467316558701,1.70907404758397,1.77458423176654,3493.04029304029,3375.95897435897,0.12453300124533,0.305210918114144,0.530612244897959
28673,1861,2234,2664,1853,1625,1810,2382,2310,-128,14,-496,6875.03051757813,8.02121951268337,4.15847499359426,28.152500640574,-4.84015979160997,-2.88104281148458,1.83347683642745,3490.10989010989,3364.30769230769,0.14321295143213,0.307692307692308,0.544642857142857
29313,1854,2215,2630,1848,1626,1811,2386,2319,-134,14,-489,6894.56176757813,8.27159668396217,3.41165150641642,26.8348493583584,-4.52678675568046,-0.778263536869127,1.42315687644774,3495.9706959707,3377.41538461538,0.13574097135741,0.307692307692308,0.535714285714286
29953,1844,2232,2633,1846,1635,1813,2385,2302,-129,13,-495,6914.09301757813,8.7037382161083,4.09070460465911,26.9295395340892,-1.40357641183814,0.0136571482525595,0.720718999210171,3494.50549450549,3352.65641025641,0.141967621419676,0.306451612903226,0.543367346938776
30593,1851,2192,2636,1843,1654,1818,2385,2303,-124,11,-493,6933.62426757813,8.38390681383853,2.48876760243845,27.1232397561548,5.20564884909681,1.17725177598185,-1.04302756415568,3494.50549450549,3354.11282051282,0.148194271481943,0.303970223325062,0.540816326530612
31233,1862,2214,2648,1846,1651,1817,2390,2316,-133,10,-499,6953.15551757813,7.95163933551129,3.36449191809194,27.5508081908056,4.18135418961592,-0.0703464906561876,-0.664029656806543,3501.8315018315,3373.04615384615,0.136986301369863,0.30272952853598,0.548469387755102
31873,1854,2199,2671,1850,1638,1817,2389,2312,-133,10,-491,6972.68676757813,8.29192689983559,2.75491907415711,28.5080925842889,-0.299580341059094,-1.66024365400332,-0.7218504041531,3500.3663003663,3367.22051282051,0.136986301369863,0.30272952853598,0.538265306122449
32513,1877,2232,2625,1851,1634,1817,2390,2318,-130,6,-488,6992.21801757813,7.32185154565157,4.0941827210514,26.5817278948605,-1.68023064039451,-2.05240331898976,-0.74162021684008,3501.8315018315,3375.95897435897,0.140722291407223,0.297766749379653,0.534438775510204
33153,1856,2199,2613,1850,1631,1815,2389,2323,-132,15,-484,7011.74926757813,8.16258334134051,2.77815656161254,26.1843438387462,-2.7448234195639,-1.6253280023494,-0.0223899083442901,3500.3663003663,3383.24102564103,0.138231631382316,0.30893300248139,0.529336734693878
33793,1860,2181,2627,1846,1634,1817,2390,2319,-127,12,-487,7031.28051757813,7.99325629097004,2.05222746247304,26.7772537526957,-1.72142358816186,0.0501183619515222,-0.784494509414253,3501.8315018315,3377.41538461538,0.144458281444583,0.305210918114144,0.533163265306122
34433,1865,2205,2635,1847,1634,1813,2387,2321,-124,11,-487,7050.81176757813,7.80943842349412,3.00954288375718,27.045711624282,-1.7425600445069,-0.399761020135244,0.722207689924552,3497.4358974359,3380.3282051282,0.148194271481943,0.303970223325062,0.533163265306122
35073,1853,2203,2628,1846,1643,1815,2388,2306,-129,17,-493,7070.34301757813,8.30256626604104,2.93220558954156,26.7794410458437,1.38888888888889,-0.0283446712018141,0.0283446712018141,3498.9010989011,3358.48205128205,0.141967621419676,0.311414392059553,0.540816326530612
35713,1861,2170,2651,1843,1651,1817,2391,2325,-123,18,-487,7089.87426757813,7.96223065867017,1.60240875824739,27.759124175261,4.15663842095552,1.19116651790858,-0.689754232351046,3503.2967032967,3386.15384615385,0.149439601494396,0.312655086848635,0.533163265306122
36353,1854,2183,2656,1850,1637,1816,2386,2317,-128,7,-486,7109.40551757813,8.26786534067858,2.12060673029701,27.9393269702987,-0.654146324755943,-1.66050124767749,-0.354404736747562,3495.9706959707,3374.50256410256,0.14321295143213,0.299007444168734,0.531887755102041
36993,1872,2199,2661,1854,1640,1817,2389,2314,-122,10,-487,7128.93676757813,7.53370253080093,2.75907279589179,28.0927204108214,0.427818461599224,-3.35643333435725,-0.673378634492855,3500.3663003663,3370.13333333333,0.150684931506849,0.30272952853598,0.533163265306122
37633,1868,2193,2689,1857,1650,1821,2393,2327,-128,14,-486,7148.46801757813,7.71806705474772,2.50771024170991,29.2289758290095,3.95413149838036,-4.65943297502805,-2.07491972176779,3506.22710622711,3389.06666666667,0.14321295143213,0.307692307692308,0.531887755102041
38273,1859,2210,2677,1869,1647,1823,2392,2306,-121,10,-493,7167.99926757813,8.09663475140393,3.19277706158051,28.7222938419491,3.02601542930457,-9.66953898293652,-2.74234359340312,3504.7619047619,3358.48205128205,0.151930261519303,0.30272952853598,0.540816326530612
38913,1892,2238,2699,1874,1658,1829,2396,2325,-135,10,-488,7187.53051757813,6.75982847297846,4.30480043452267,29.5199565477334,6.93071539036412,-11.805945940835,-4.86871246625991,3510.62271062271,3386.15384615385,0.134495641344956,0.30272952853598,0.534438775510204
39553,1854,2237,2664,1883,1658,1833,2398,2326,-121,15,-490,7207.06176757813,8.3152838276429,4.27847618132513,28.1523818674866,7.03423774224385,-15.5611099206308,-6.28966608045037,3513.55311355311,3387.61025641026,0.151930261519303,0.30893300248139,0.536989795918367
40193,1880,2214,2716,1892,1645,1836,2397,2320,-116,18,-488,7226.59301757813,7.25524636741187,3.3374176595563,30.2582340443704,2.61652744376005,-19.2314974804954,-7.42820804084073,3512.08791208791,3378.87179487179,0.158156911581569,0.312655086848635,0.534438775510204
40833,1906,2193,2776,1915,1650,1842,2404,2331,-122,19,-488,7246.12426757813,6.20307195246941,2.47319598360131,32.6804016398693,4.5861886834487,-28.8944654829798,-9.44274646723323,3522.34432234432,3394.89230769231,0.150684931506849,0.313895781637717,0.534438775510204
41473,1867,2242,2765,1942,1650,1852,2410,2336,-115,16,-491,7265.65551757813,7.85726961357376,4.43824766991224,32.1752330087759,4.88206821613862,-40.1746449453164,-12.9565436393926,3531.13553113553,3402.17435897436,0.159402241594022,0.310173697270471,0.538265306122449
42113,1836,2236,2723,1958,1656,1855,2413,2329,-110,7,-491,7285.18676757813,9.11159031825849,4.21468502444857,30.5314975551427,7.11925026675134,-46.9232000467074,-13.9004244019705,3535.53113553114,3391.97948717949,0.165628891656289,0.299007444168734,0.538265306122449
42753,1820,2207,2644,1964,1632,1846,2408,2334,-98,14,-484,7304.71801757813,9.69383734492772,3.08560403454829,27.4395965451711,-1.23074538253283,-49.3422518898977,-10.6482567612385,3528.20512820513,3399.26153846154,0.180572851805729,0.307692307692308,0.529336734693878
43393,1794,2221,2555,1958,1610,1841,2402,2319,-103,21,-486,7324.24926757813,10.7176983910918,3.68129710887622,23.870289112378,-8.95578461611567,-46.7000489885313,-8.98294242790749,3519.41391941392,3377.41538461538,0.174346201743462,0.316377171215881,0.531887755102041
44033,1794,2203,2557,1954,1593,1835,2399,2331,-90,24,-487,7343.78051757813,10.7055915433562,2.96013895116691,23.9861048833088,-14.9355793209551,-44.9416293600183,-6.89051570333858,3515.01831501831,3394.89230769231,0.190535491905355,0.320099255583127,0.533163265306122
44673,1773,2173,2581,1953,1574,1829,2395,2328,-90,17,-485,7363.31176757813,11.5771429534196,1.74975945113488,25.0240548865116,-21.5851027015785,-44.4305504044692,-4.78653673882608,3509.15750915751,3390.52307692308,0.190535491905355,0.311414392059553,0.530612244897959
45313,1760,2170,2615,1962,1540,1817,2386,2310,-77,20,-480,7382.84301757813,12.1436944168642,1.615979250742,26.4020749258002,-33.4046360888484,-48.0622848626436,-0.45591069493608,3495.9706959707,3364.30769230769,0.206724782067248,0.315136476426799,0.524234693877551
45953,1746,2155,2605,1966,1505,1800,2374,2316,-76,28,-473,7402.37426757813,12.7079216311148,1.01956819977366,26.0431800226336,-45.649303453481,-49.6211302794495,5.69741406460926,3478.38827838828,3373.04615384615,0.207970112079701,0.325062034739454,0.51530612244898
46593,1705,2159,2588,1971,1472,1787,2437,2270,-65,47,-462,7421.90551757813,14.4064987228557,1.1861117561335,25.3888243866504,-57.1619127382171,-51.5852773221459,10.3753586774464,3570.69597069597,3306.05128205128,0.221668742216687,0.34863523573201,0.501275510204082
47233,1661,2169,2495,1946,1535,1805,2380,2300,-65,45,-467,7441.43676757813,16.174443468014,1.62317669965623,21.6823300343775,-35.3606897705105,-41.3869097823248,3.86584275229621,3487.17948717949,3349.74358974359,0.221668742216687,0.346153846153846,0.50765306122449
47873,1640,2132,2561,1915,1647,1816,2385,2314,-52,55,-473,7460.96801757813,17.0739639383554,0.115843128776717,24.4156871223283,3.35358421844173,-29.0641447779187,0.273822744721217,3494.50549450549,3370.13333333333,0.23785803237858,0.358560794044665,0.51530612244898
48513,1676,2102,2534,1907,1646,1796,2371,2306,-48,53,-462,7480.49926757813,15.5291457812867,-1.0736426504815,23.3642650481498,2.79357805029921,-25.8398991501048,7.68877441292194,3473.99267399267,3358.48205128205,0.242839352428394,0.356079404466501,0.501275510204082
49153,1671,2126,2549,1899,1650,1766,2425,2355,-48,55,-466,7500.03051757813,15.7677087003288,-0.119213148314223,23.9213148314223,3.89624537852153,-22.7245219760393,18.8844752721848,3553.11355311355,3429.84615384615,0.242839352428394,0.358560794044665,0.506377551020408
49793,1668,2116,2526,1895,1639,1747,2415,2343,-46,45,-460,7519.56176757813,15.8669190928405,-0.510228498067602,23.0228498067602,-0.0956848921547028,-21.1040882534992,25.8883328612344,3538.46153846154,3412.36923076923,0.2453300124533,0.346153846153846,0.498724489795918
50433,1717,2128,2563,1901,1593,1699,2379,2299,-45,47,-462,7539.09301757813,13.8629016598873,-0.0443947777208378,24.4394777720838,-16.3709761278382,-23.65365110259,43.5913463833902,3485.71428571429,3348.28717948718,0.246575342465753,0.34863523573201,0.501275510204082
51073,1665,2109,2549,1896,1569,1646,2417,2346,-28,47,-463,7558.62426757813,16.0048762024107,-0.799600775628296,23.9600775628296,-25.1347217670941,-21.7702807525931,63.2285913295227,3541.39194139194,3416.73846153846,0.26774595267746,0.34863523573201,0.502551020408163
51713,1597,2151,2510,1874,1587,1660,2425,2341,-33,56,-459,7578.15551757813,18.8403654674588,0.896280066939978,22.3719933060022,-18.9631580766257,-12.5439237162148,57.9240497697206,3553.11355311355,3409.45641025641,0.261519302615193,0.359801488833747,0.497448979591837
52353,1601,2157,2476,1849,1625,1684,2370,2295,-26,47,-450,7597.68676757813,18.6512446819017,1.15004477345034,20.9955226549655,-5.79842809562688,-2.1243394125346,48.9901886383232,3472.52747252747,3342.46153846154,0.270236612702366,0.34863523573201,0.485969387755102
52993,1601,2150,2577,1835,1678,1730,2399,2322,-11,49,-456,7617.21801757813,18.7259836480153,0.829469538039417,25.0530461960583,12.8268224562352,3.72496742850982,32.0172430930639,3515.01831501831,3381.78461538462,0.288916562889166,0.351116625310174,0.493622448979592
53633,1641,2141,2579,1833,1700,1740,2407,2335,-15,40,-467,7636.74926757813,17.0533956758589,0.468823732731194,25.1176267268806,20.5226717807634,4.48351802402263,28.4106707155843,3526.73992673993,3400.71794871795,0.283935242839352,0.339950372208437,0.50765306122449
54273,1655,2139,2597,1837,1686,1744,2409,2338,-17,44,-456,7656.28051757813,16.4825785570538,0.381694331454317,25.8305668545684,15.7238900737647,2.93008207437446,26.8476364596133,3529.67032967033,3405.08717948718,0.281444582814446,0.344913151364764,0.493622448979592
54913,1624,2162,2570,1840,1658,1753,2420,2345,-7,36,-455,7675.81176757813,17.7708496813145,1.31270218115431,24.7297818845686,6.09247747347452,1.93307561749403,23.3041618198911,3545.78754578755,3415.28205128205,0.293897882938979,0.334987593052109,0.49234693877551
55553,1612,2206,2561,1839,1656,1767,2425,2341,-14,35,-459,7695.34301757813,18.2973834555762,3.07707906284031,24.2920937159695,5.49260710012139,2.47056494992798,18.0379689328915,3553.11355311355,3409.45641025641,0.285180572851806,0.333746898263027,0.497448979591837
56193,1640,2179,2558,1830,1662,1779,2434,2275,-13,35,-454,7714.87426757813,17.1073378413725,1.99797752119232,24.2022478807678,7.58991826516903,6.30071210651509,13.5089301905888,3566.30036630037,3313.33333333333,0.286425902864259,0.333746898263027,0.491071428571429
56833,1651,2178,2553,1829,1650,1779,2432,2263,-10,34,-462,7734.40551757813,16.6440986123567,1.96005120588047,23.9948794119531,3.4150130089489,6.80625045630879,13.4153213184685,3563.36996336996,3295.85641025641,0.290161892901619,0.332506203473945,0.501275510204082
57473,1653,2201,2598,1830,1656,1792,2367,2290,-17,32,-459,7753.93676757813,16.6138998876327,2.8625084742596,25.7491525740397,5.60205383100585,6.43869801248797,8.59749932610818,3468.13186813187,3335.17948717949,0.281444582814446,0.330024813895782,0.497448979591837
58113,1651,2189,2570,1830,1654,1802,2379,2314,-15,31,-466,7773.46801757813,16.665942184197,2.39346354333483,24.6536456665172,4.98104700130768,6.52630796283515,4.83800863844735,3485.71428571429,3370.13333333333,0.283935242839352,0.3287841191067,0.506377551020408
58753,1659,2185,2574,1836,1643,1808,2380,2308,-10,26,-468,7792.99926757813,16.3326048472765,2.23184940373241,24.8150596267589,1.25509666303181,4.12529236035836,2.56431893249542,3487.17948717949,3361.39487179487,0.290161892901619,0.32258064516129,0.508928571428572
59393,1668,2179,2595,1836,1639,1811,2385,2319,-14,24,-459,7812.53051757813,15.9695390403135,1.98339779108748,25.6602208912519,-0.111760941433194,4.17566831598406,1.41237875567562,3494.50549450549,3377.41538461538,0.285180572851806,0.320099255583127,0.497448979591837
60033,1659,2190,2579,1838,1651,1814,2387,2311,-19,32,-463,7832.06176757813,16.3403718064719,2.42994689908825,25.005310091175,4.09341418876429,3.27165691442598,0.390966980692759,3497.4358974359,3365.7641025641,0.278953922789539,0.330024813895782,0.502551020408163
60673,1666,2193,2584,1841,1660,1820,2389,2313,-12,29,-459,7851.59301757813,16.0548351322785,2.5480630645058,25.1936935494203,7.28719252627246,1.9904309645049,-1.76672394479461,3500.3663003663,3368.67692307692,0.287671232876712,0.326302729528536,0.497448979591837
61313,1677,2172,2595,1841,1659,1821,2393,2327,-28,29,-455,7871.12426757813,15.5890656361433,1.70333385379967,25.6666146200329,6.94731406552487,2.00486089377998,-2.14834194780106,3506.22710622711,3389.06666666667,0.26774595267746,0.326302729528536,0.49234693877551
61953,1676,2171,2576,1840,1653,1821,2390,2323,-7,26,-467,7890.65551757813,15.6149266409369,1.67091247090727,24.9087529092734,4.85574214263806,2.46788223677096,-2.19943381311861,3501.8315018315,3383.24102564103,0.293897882938979,0.32258064516129,0.50765306122449
62593,1675,2153,2624,1841,1662,1823,2393,2314,-15,31,-457,7910.18676757813,15.6809676470117,0.931329471206201,26.8670528793799,8.00366825514079,1.99828991332787,-2.87614711481168,3506.22710622711,3370.13333333333,0.283935242839352,0.3287841191067,0.494897959183674
63233,1652,2172,2598,1841,1656,1819,2390,2323,-18,27,-461,7929.71801757813,16.6335233035466,1.70192425746802,25.8075742531975,5.89095987590894,2.01143187423208,-1.42053678079043,3501.8315018315,3383.24102564103,0.280199252801993,0.323821339950372,0.5
63873,1650,2178,2607,1841,1663,1818,2389,2324,-16,28,-456,7949.24926757813,16.7285881483142,1.9384234941174,26.1576505882604,8.31417166998987,1.95448493815428,-0.996401770981266,3500.3663003663,3384.69743589744,0.282689912826899,0.325062034739454,0.493622448979592
64513,1660,2200,2597,1838,1679,1820,2389,2323,-22,28,-469,7968.78051757813,16.3205642255461,2.82294736083531,25.7052639164692,13.8596989798343,3.11730678486105,-1.6578113321305,3500.3663003663,3383.24102564103,0.275217932752179,0.325062034739454,0.510204081632653
65153,1672,2200,2592,1837,1688,1827,2392,2323,-12,23,-456,7988.31176757813,15.816402496637,2.82504924412273,25.4950755877266,17.0278667206032,3.52544194116762,-4.2243335268832,3504.7619047619,3383.24102564103,0.287671232876712,0.318858560794045,0.493622448979592
257,1653,2221,2571,1832,1702,1835,2398,2317,-22,24,-456,8007.84301757813,16.6077103417996,3.67371531558944,24.6284684410565,21.906534975744,5.58750736469957,-7.16425615189896,3513.55311355311,3374.50256410256,0.275217932752179,0.320099255583127,0.493622448979592
897,1656,2188,2549,1830,1705,1843,2403,2312,-23,13,-468,8027.37426757813,16.4401186796703,2.36189292272543,23.8107077274571,22.9904745551007,6.46600762547174,-10.1564020471752,3520.87912087912,3367.22051282051,0.273972602739726,0.306451612903226,0.508928571428572
1537,1669,2210,2567,1829,1685,1839,2402,2324,-26,19,-463,8046.90551757813,15.9292411000256,3.23523176766383,24.4768232336173,16.0084164752043,6.99886027177056,-8.80857292087514,3519.41391941392,3384.69743589744,0.270236612702366,0.313895781637717,0.502551020408163
2177,1666,2202,2581,1829,1680,1845,2407,2325,-24,16,-472,8066.43676757813,16.0593031356095,2.90944286080328,25.055713919672,14.316367932941,7.07835367962059,-11.0911947711134,3526.73992673993,3386.15384615385,0.272727272727273,0.310173697270471,0.514030612244898
2817,1652,2210,2583,1826,1683,1843,2405,2330,-22,19,-468,8085.96801757813,16.6505385492068,3.22868423440736,25.1315765592638,15.318631307998,8.30392066183475,-10.3465971728445,3523.80952380952,3393.4358974359,0.275217932752179,0.313895781637717,0.508928571428572
3457,1680,2197,2583,1827,1679,1840,2401,2331,-27,13,-470,8105.49926757813,15.4735206077979,2.70865962569129,25.1340374308714,13.9159497242387,7.88972971242442,-9.24277147991353,3517.94871794872,3394.89230769231,0.268991282689913,0.306451612903226,0.511479591836735
4097,1677,2210,2573,1827,1674,1839,2402,2322,-36,10,-467,8125.03051757813,15.6005319099246,3.23289634178891,24.710365821109,12.1724948516529,7.91781678995206,-8.9036704837098,3519.41391941392,3381.78461538462,0.257783312577833,0.30272952853598,0.50765306122449
4737,1689,2225,2606,1820,1685,1839,2402,2331,-37,9,-474,8144.56176757813,15.1379033947751,3.82008246055132,25.9917539448679,15.9342691692231,10.7833992974649,-8.88574664750865,3519.41391941392,3394.89230769231,0.25653798256538,0.301488833746898,0.516581632653061
5377,1680,2226,2573,1822,1681,1841,2403,2318,-32,10,-478,8164.09301757813,15.4876532706639,3.87323908889031,24.6760911109688,14.5765449823904,9.98542281923942,-9.64600527209278,3520.87912087912,3375.95897435897,0.262764632627646,0.30272952853598,0.521683673469388
6017,1673,2232,2538,1817,1668,1839,2403,2331,-31,7,-473,8183.62426757813,15.7562547709414,4.12731240524844,23.2687594751564,10.0067756227849,12.1653771586373,-9.03193607566087,3520.87912087912,3394.89230769231,0.2640099626401,0.299007444168734,0.51530612244898
6657,1668,2200,2539,1807,1642,1845,2408,2329,-32,13,-471,8203.15551757813,15.9411215782675,2.84623489313091,23.3765106869088,0.940674518320216,16.5987234521795,-11.549116034857,3528.20512820513,3391.97948717949,0.262764632627646,0.306451612903226,0.512755102040816
7297,1700,2234,2569,1802,1641,1858,2414,2333,-48,6,-478,8222.68676757813,14.6569042528772,4.19516620225055,24.483379774945,0.647728247500807,18.8038002000914,-16.4679903529095,3536.99633699634,3397.80512820513,0.242839352428394,0.297766749379653,0.521683673469388
7937,1700,2203,2604,1804,1636,1850,2410,2337,-34,9,-473,8242.21801757813,14.66106798358,2.940538055431,25.9461944569001,-1.13065577630039,17.9394722749201,-13.4900167932341,3531.13553113553,3403.63076923077,0.26027397260274,0.301488833746898,0.51530612244898
8577,1682,2212,2560,1801,1638,1847,2408,2334,-47,5,-472,8261.74926757813,15.3833321322572,3.31818242478594,24.1817575214058,-0.482958384940229,19.1647816634601,-12.3779735275598,3528.20512820513,3399.26153846154,0.244084682440847,0.296526054590571,0.514030612244898
9217,1700,2223,2621,1799,1645,1844,2405,2343,-55,12,-477,8281.28051757813,14.6897576895565,3.7341291130186,26.5870886981402,1.90908870708451,19.9341558768095,-11.2219245643683,3523.80952380952,3412.36923076923,0.23412204234122,0.305210918114144,0.520408163265306
9857,1709,2217,2643,1811,1654,1840,2401,2329,-53,3,-493,8300.81176757813,14.3274845928619,3.48527714165225,27.4722858347746,5.10357673582762,14.7949532864479,-9.55712341116222,3517.94871794872,3391.97948717949,0.236612702366127,0.294044665012407,0.540816326530612
10497,1692,2259,2583,1821,1672,1840,2399,2317,-54,10,-485,8320.34301757813,15.0204846876134,5.18999089851173,25.0009101488267,11.4359626313623,10.4623589041571,-9.34382380560571,3515.01831501831,3374.50256410256,0.235367372353674,0.30272952853598,0.530612244897959
11137,1724,2257,2606,1822,1711,1842,2404,2331,-60,12,-477,8339.87426757813,13.7033338537997,5.10100983814831,25.8990161851686,25.0005554105317,9.78018154670045,-9.80795207328517,3522.34432234432,3394.89230769231,0.227895392278954,0.305210918114144,0.520408163265306
11777,1730,2238,2595,1820,1719,1840,2403,2329,-56,14,-478,8359.40551757813,13.4300620022207,4.34508653086499,25.4913469135012,27.7471684862533,10.5498133537241,-9.01934877749923,3520.87912087912,3391.97948717949,0.232876712328767,0.307692307692308,0.521683673469388
12417,1710,2222,2590,1816,1700,1835,2398,2319,-58,12,-473,8378.93676757813,14.2475911750262,3.70660378365682,25.3396216343177,21.080273098444,12.3297490793126,-7.31562622373722,3513.55311355311,3377.41538461538,0.230386052303861,0.305210918114144,0.51530612244898
13057,1712,2222,2617,1818,1712,1834,2397,2332,-59,-2,-486,8398.46801757813,14.1856279893451,3.69581077979203,26.4189220207973,25.256073182743,11.396362631856,-6.83891065789612,3512.08791208791,3396.34871794872,0.229140722291407,0.287841191066998,0.531887755102041
13697,1714,2207,2582,1810,1709,1832,2396,2315,-59,2,-487,8417.99926757813,14.0631065434629,3.10954214976619,25.045785023381,24.1338102766994,14.7669683018142,-6.17970435900417,3510.62271062271,3371.58974358974,0.229140722291407,0.292803970223325,0.533163265306122
14337,1742,2234,2610,1809,1714,1824,2390,2331,-69,4,-482,8437.53051757813,12.9387117523968,4.1791018085538,26.0898191446202,25.80293270646,15.0932917072031,-3.1565936968688,3501.8315018315,3394.89230769231,0.216687422166874,0.295285359801489,0.526785714285714
14977,1728,2280,2601,1819,1715,1825,2392,2305,-62,-9,-488,8457.06176757813,13.5501332527278,6.02350172421156,25.649827578844,26.2398845856915,10.8885059389947,-3.43829077912599,3504.7619047619,3357.02564102564,0.225404732254047,0.279156327543424,0.534438775510204
15617,1718,2280,2531,1813,1717,1819,2391,2311,-70,-12,-487,8476.59301757813,13.911475348579,6.05144342664361,22.8556573356394,26.8408349239674,13.3532970516756,-1.22837658337813,3503.2967032967,3365.7641025641,0.215442092154421,0.275434243176179,0.533163265306122
16257,1725,2259,2512,1801,1730,1815,2388,2321,-73,-10,-484,8496.12426757813,13.5886572702475,5.21869161435313,22.1308385646873,31.2264856923161,18.2778538586303,0.258972636673717,3498.9010989011,3380.3282051282,0.211706102117061,0.277915632754342,0.529336734693878
16897,1715,2235,2476,1783,1695,1806,2383,2313,-74,-22,-481,8515.65551757813,13.9586951575278,4.27254453323511,20.7455466764888,18.8593194493043,26.0288539297631,3.22739582724476,3491.57509157509,3368.67692307692,0.210460772104608,0.26302729528536,0.525510204081633
17537,1670,2219,2391,1758,1607,1797,2373,2298,-73,-20,-479,8535.18676757813,15.7548870454594,3.6658819635727,17.4118036427306,-11.9682946983596,37.0989512476378,5.76022811478792,3476.92307692308,3346.83076923077,0.211706102117061,0.265508684863524,0.522959183673469
18177,1680,2320,2425,1734,1567,1785,2438,2270,-77,-20,-488,8554.71801757813,15.4418362185852,7.69435881216237,18.5641187837636,-26.1430348742273,47.3863768904786,9.76536682088566,3572.16117216117,3306.05128205128,0.206724782067248,0.265508684863524,0.534438775510204
18817,1699,2259,2357,1709,1552,1774,2430,2357,-90,-13,-494,8574.24926757813,14.5495498967075,5.28053035519826,15.9469644801742,-31.6381143226182,57.9244964359709,13.5645530282739,3560.43956043956,3432.75897435897,0.190535491905355,0.274193548387097,0.542091836734694
19457,1752,2215,2485,1683,1550,1764,2421,2349,-95,-7,-495,8593.78051757813,12.4083382043644,3.4688527587385,21.1147241261504,-32.6201997101991,68.7983438977202,17.0727527233472,3547.25274725275,3421.10769230769,0.184308841843088,0.281637717121588,0.543367346938776
20097,1914,2190,2698,1697,1648,1743,2410,2338,-105,-11,-498,8613.31176757813,5.80549305511071,2.38443111694745,29.5568883052548,1.36869933036004,62.062619755673,25.7524137263252,3531.13553113553,3405.08717948718,0.171855541718555,0.276674937965261,0.54719387755102
20737,1891,2214,2711,1721,1661,1747,2413,2327,-113,-1,-492,8632.84301757813,6.79276781996669,3.33951120203703,30.0488797962975,6.10968941443068,51.9077705516475,24.5522031712632,3535.53113553114,3389.06666666667,0.161892901618929,0.289081885856079,0.539540816326531
21377,1796,2181,2607,1742,1582,1728,2397,2330,-117,-12,-500,8652.37426757813,10.6451256992932,2.05970082527278,26.0299174727222,-21.28738722852,43.497455279912,31.2885728127527,3512.08791208791,3393.4358974359,0.156911581569116,0.275434243176179,0.549744897959184
22017,1763,2183,2406,1733,1431,1719,2393,2317,-122,-2,-503,8671.90551757813,11.8628572867956,2.21993739724126,18.0062602758738,-73.8581839433284,48.2859117902031,33.5121742651046,3506.22710622711,3374.50256410256,0.150684931506849,0.287841191066998,0.553571428571429
22657,1863,2258,2416,1702,1495,1679,2369,2295,-126,1,-491,8691.43676757813,7.75951736088869,5.21825722514039,18.1742774859608,-52.1851084562488,60.574281013825,48.6811417986135,3471.06227106227,3342.46153846154,0.145703611457036,0.291563275434243,0.538265306122449
23297,2006,2172,2652,1668,1653,1658,2424,2343,-140,10,-495,8710.96801757813,1.92048341981082,1.68325753208208,27.6742467917921,2.24167161907724,73.5975949407869,57.3743796609066,3551.64835164835,3412.36923076923,0.12826899128269,0.30272952853598,0.543367346938776
23937,2013,2152,2754,1658,1690,1680,2367,2303,-144,12,-495,8730.49926757813,1.69434396552645,0.842082172293041,31.7917827706959,15.1680706982066,77.7020128464945,49.3111189098432,3468.13186813187,3354.11282051282,0.123287671232877,0.305210918114144,0.543367346938776
24577,2005,2207,2782,1686,1661,1690,2377,2307,-145,5,-497,8750.03051757813,2.09184279114086,3.03189758023189,32.8102419768112,5.40274437600552,66.2068279141827,45.6003977299855,3482.78388278388,3359.93846153846,0.122042341220423,0.296526054590571,0.545918367346939
25217,2004,2281,2756,1695,1615,1713,2393,2327,-160,3,-497,8769.56176757813,2.16920594185724,6.00376804283305,31.6231957166955,-10.3264240263191,62.9171591212257,36.7373755280603,3506.22710622711,3389.06666666667,0.103362391033624,0.294044665012407,0.545918367346939
25857,2029,2269,2683,1705,1625,1740,2407,2320,-168,-8,-496,8789.09301757813,1.06013037681763,5.55296445615271,28.7035543847287,-6.57353434874721,58.8395356411535,26.7816262406514,3526.73992673993,3378.87179487179,0.0933997509339975,0.280397022332506,0.544642857142857
26497,2064,2265,2611,1711,1627,1744,2410,2337,-177,3,-494,8808.62426757813,-0.458898840027331,5.42200278115858,25.7997218841415,-5.80028332108345,56.3317123343216,25.3491203865174,3531.13553113553,3403.63076923077,0.0821917808219178,0.294044665012407,0.542091836734694
27137,2106,2258,2728,1694,1680,1722,2396,2321,-187,-5,-497,8828.15551757813,-2.12217013110414,5.09537212008626,30.4627879913736,12.3008756818436,62.9431564036561,33.818615059721,3510.62271062271,3380.3282051282,0.0697384806973848,0.284119106699752,0.545918367346939
27777,2074,2205,2766,1714,1708,1724,2397,2323,-198,1,-495,8847.68676757813,-0.798501457305746,2.95883911985139,32.1160880148613,22.2025572180844,54.3493445044275,33.4394612580185,3512.08791208791,3383.24102564103,0.0560398505603985,0.291563275434243,0.543367346938776
28417,2060,2186,2705,1745,1616,1745,2414,2341,-188,-4,-489,8867.21801757813,-0.277745193026285,2.22276693250486,29.7233067495142,-9.33227195923534,42.1198565112005,25.1881858950108,3536.99633699634,3409.45641025641,0.0684931506849315,0.285359801488834,0.535714285714286
29057,2056,2224,2679,1741,1576,1760,2419,2345,-205,-1,-492,8886.74926757813,-0.102717034462879,3.75389749215297,28.6102507847031,-23.1439587842187,44.195476990091,19.2524622208434,3544.32234432234,3415.28205128205,0.0473225404732254,0.289081885856079,0.539540816326531
29697,2075,2234,2644,1742,1590,1753,2419,2354,-209,-2,-484,8906.28051757813,-0.914835525964598,4.16826710065552,27.1732899344479,-18.3260154138765,43.624359974374,21.9819662750065,3544.32234432234,3428.38974358974,0.0423412204234122,0.287841191066998,0.529336734693878
30337,2130,2241,2647,1735,1628,1751,2417,2340,-214,0,-490,8925.81176757813,-3.19970760468046,4.44766377340764,27.233622659236,-5.20392861925559,46.2839284283253,22.9402803122319,3541.39194139194,3408,0.0361145703611457,0.290322580645161,0.536989795918367
30977,2101,2175,2707,1720,1688,1765,2425,2341,-215,2,-487,8945.34301757813,-1.99353770978797,1.78208975241817,29.7910247581833,15.6086385314205,52.2691360637668,17.9933818096527,3553.11355311355,3409.45641025641,0.0348692403486924,0.292803970223325,0.533163265306122
31617,2118,2124,2667,1721,1643,1774,2430,2357,-225,-4,-490,8964.87426757813,-2.77265496551577,-0.242766852433113,28.2766852433113,0.0579709742456137,52.2336031318706,14.3122926002932,3560.43956043956,3432.75897435897,0.0224159402241594,0.285359801488834,0.536989795918367
32257,2138,2143,2661,1750,1541,1780,2432,2259,-231,7,-491,8984.40551757813,-3.59662190656161,0.520179414088357,27.9820585911643,-35.0757140265227,40.8058290669051,11.5909833703412,3563.36996336996,3290.03076923077,0.0149439601494396,0.299007444168734,0.538265306122449
32897,2194,2239,2792,1767,1533,1775,2430,2345,-238,14,-494,9003.93676757813,-5.75400959259497,4.31010585484594,32.9894145154058,-37.7501545892647,33.6772258867353,13.5527257987197,3560.43956043956,3415.28205128205,0.0062266500622665,0.307692307692308,0.542091836734694
33537,2172,2200,2709,1767,1567,1797,2375,2310,-237,13,-486,9023.46801757813,-4.93244113392266,2.78237767706532,29.7622322934683,-25.7830362812673,33.5978589339616,5.55395512940329,3479.85347985348,3364.30769230769,0.0074719800747198,0.306451612903226,0.531887755102041
34177,2148,2179,2752,1772,1581,1813,2387,2315,-249,11,-488,9042.99926757813,-3.91393255023167,1.92454505903957,31.5454940960434,-20.7632320387948,31.513631087408,-0.296473592112072,3497.4358974359,3371.58974358974,-0.0074719800747198,0.303970223325062,0.534438775510204
34817,2181,2178,2711,1778,1611,1810,2385,2319,-256,18,-482,9062.53051757813,-5.32273934111631,1.90121515544595,29.8784844554054,-10.3191651192312,28.755988751841,1.09115609860852,3494.50549450549,3377.41538461538,-0.0161892901618929,0.312655086848635,0.526785714285714
35457,2166,2192,2646,1778,1649,1813,2385,2314,-255,23,-491,9082.06176757813,-4.73836824461384,2.48739136933359,27.260863066641,2.89731060963711,28.5087456598477,0.236834969407774,3494.50549450549,3370.13333333333,-0.0149439601494396,0.318858560794045,0.538265306122449
36097,2173,2149,2695,1763,1660,1817,2389,2311,-259,30,-483,9101.59301757813,-5.02401701924925,0.746978292550125,29.3021707449875,6.62255125667804,34.767737902765,-1.31196740333373,3500.3663003663,3365.7641025641,-0.0199252801992528,0.327543424317618,0.528061224489796
36737,2174,2161,2615,1768,1667,1821,2392,2321,-263,18,-484,9121.12426757813,-5.11998884333696,1.25925362458096,26.0746375419042,9.12367480589945,32.6449880931191,-2.71761727698035,3504.7619047619,3380.3282051282,-0.024906600249066,0.312655086848635,0.529336734693878
37377,2226,2187,2619,1751,1679,1838,2402,2324,-263,26,-482,9140.65551757813,-7.26456571754959,2.29860221425064,26.1397785749365,13.2751293952258,39.8333717397827,-9.14539705662896,3519.41391941392,3384.69743589744,-0.024906600249066,0.32258064516129,0.526785714285714
38017,2223,2175,2611,1724,1692,1861,2419,2337,-268,13,-482,9160.18676757813,-7.15498603415327,1.82154176809088,25.8458231909124,17.7354828800875,51.2637751493762,-17.8990302648614,3544.32234432234,3403.63076923077,-0.0311332503113325,0.306451612903226,0.526785714285714
38657,2232,2171,2544,1686,1711,1884,2430,2336,-277,14,-481,9179.71801757813,-7.58628898159418,1.68836143851558,23.1638561484423,24.1885452131943,67.2772092502377,-26.7044699099543,3560.43956043956,3402.17435897436,-0.0423412204234122,0.307692307692308,0.525510204081633
39297,2226,2165,2456,1657,1698,1895,2439,2260,-292,0,-477,9199.24926757813,-7.41051248585399,1.48342381440437,19.6576185595627,19.5165186034758,79.644736557324,-31.1651111755564,3573.62637362637,3291.48717948718,-0.0610211706102117,0.290322580645161,0.520408163265306
39937,2252,2031,2682,2191,1406,1888,2430,2343,-297,9,-480,9218.78051757813,-8.41705401372964,-3.96950133986719,28.9501339867188,-77.5243697941834,-142.886824299795,-26.0335748799252,3560.43956043956,3412.36923076923,-0.0672478206724782,0.301488833746898,0.524234693877551
40577,2162,2167,2543,2155,1609,1914,2450,2282,-268,25,-483,9238.31176757813,-4.67230171567058,1.52809850959793,23.1901490402067,-7.14391010865681,-128.99622246217,-34.641605438323,3589.74358974359,3323.5282051282,-0.0311332503113325,0.321339950372208,0.528061224489796
41217,2150,2204,2691,2044,1630,1879,2428,2335,-258,21,-481,9257.84301757813,-4.02663720026477,2.94948006747379,29.051993252621,-1.0237585340371,-82.7260823206946,-22.3359909774504,3557.50915750916,3400.71794871795,-0.0186799501867995,0.316377171215881,0.525510204081633
41857,2142,2264,2632,1964,1631,1846,2407,2342,-241,20,-487,9277.37426757813,-3.69430076014776,5.3742259731386,26.5774026861401,-1.57796760475505,-49.3351657220972,-10.6553429290389,3526.73992673993,3410.91282051282,0.0024906600249066,0.315136476426799,0.533163265306122
42497,2116,2123,2618,2031,1626,1885,2432,2257,-239,16,-482,9296.90551757813,-2.72889208731023,-0.263185814489783,26.3185814489783,-2.47568651827331,-77.1871187101977,-24.722999820581,3563.36996336996,3287.11794871795,0.0049813200498132,0.310173697270471,0.526785714285714
43137,2067,2132,2615,2123,1634,1857,2414,2335,-209,18,-475,9316.43676757813,-0.68194819224692,0.0977852822795892,26.2214717720411,0.854416177133995,-116.135832303211,-13.3905321090448,3536.99633699634,3400.71794871795,0.0423412204234122,0.312655086848635,0.517857142857143
43777,2029,2162,2600,2255,1637,1882,2430,2351,-207,22,-485,9335.96801757813,0.912942496476843,1.30406944622382,25.5930553776183,3.16717070172418,-171.480069146596,-21.6006881618351,3560.43956043956,3424.02051282051,0.0448318804483188,0.317617866004963,0.530612244897959
44417,2051,2061,2595,1852,1650,1811,2387,2316,-181,29,-485,9355.49926757813,-0.0848798857109303,-2.73575089947259,25.5750899472594,3.83950093586675,-2.63034890883304,1.62752433771797,3497.4358974359,3373.04615384615,0.0772104607721046,0.326302729528536,0.530612244897959
45057,1944,2191,2657,1976,1714,1827,2394,2327,-185,24,-480,9375.03051757813,4.52325717175923,2.44111590651891,27.8884093481092,27.2008084463131,-55.1089011518119,-2.84818783050941,3507.69230769231,3389.06666666667,0.0722291407222914,0.320099255583127,0.524234693877551
45697,1966,2147,2595,1858,1652,1851,2410,2338,-175,17,-481,9394.56176757813,3.52360915380181,0.7052479021203,25.47520978797,4.87712737661709,-4.87379680257839,-13.2881275838318,3531.13553113553,3405.08717948718,0.0846824408468244,0.311414392059553,0.525510204081633
46337,1966,2187,2667,1848,1647,1824,2389,2311,-172,18,-488,9414.09301757813,3.61111155595414,2.27721638588175,28.278361411825,2.86034881015636,-0.831604161508496,-3.29694745742064,3500.3663003663,3365.7641025641,0.0884184308841843,0.312655086848635,0.534438775510204
46977,1972,2172,2634,1846,1646,1813,2387,2328,-170,25,-485,9433.62426757813,3.32344280475306,1.69018040163987,26.9819598360131,2.4158680326063,-0.0642906975524292,0.79866684501516,3497.4358974359,3390.52307692308,0.0909090909090909,0.321339950372208,0.530612244897959
47617,1955,2170,2642,1845,1645,1812,2384,2307,-176,18,-491,9453.15551757813,4.03687720864561,1.60679602256956,27.3203977430444,2.05306345935598,0.355956044961654,1.15753765390586,3493.04029304029,3359.93846153846,0.0834371108343711,0.312655086848635,0.538265306122449
48257,1965,2169,2655,1845,1645,1812,2383,2307,-175,18,-480,9472.68676757813,3.62958994592488,1.56165490946555,27.8345090534452,2.05306345935598,0.355956044961654,1.15753765390586,3491.57509157509,3359.93846153846,0.0846824408468244,0.312655086848635,0.524234693877551
48897,1974,2175,2637,1844,1644,1812,2383,2318,-171,14,-480,9492.21801757813,3.24473661734247,1.80905558046676,27.0944419533235,1.69760264758029,0.783546548950364,1.14187662759058,3491.57509157509,3375.95897435897,0.0896637608966376,0.307692307692308,0.524234693877551
49537,1973,2160,2662,1845,1645,1808,2379,2309,-173,13,-483,9511.74926757813,3.2948273319561,1.19874040473598,28.1259595264023,2.02368841345747,0.326580999063145,2.65566499472983,3485.71428571429,3362.85128205128,0.087173100871731,0.306451612903226,0.528061224489796
50177,1963,2179,2653,1843,1644,1799,2376,2316,-166,14,-482,9531.28051757813,3.71897770402281,1.96263752322081,27.7362476779194,1.59389515885667,1.10858198596847,6.00221562675364,3481.31868131868,3373.04615384615,0.0958904109589041,0.307692307692308,0.526785714285714
50817,1976,2151,2646,1843,1643,1809,2384,2311,-168,16,-480,9550.81176757813,3.15024828913373,0.844992446565456,27.5007553434544,1.32011055138072,1.18910576851519,2.24981110689327,3493.04029304029,3365.7641025641,0.0933997509339975,0.310173697270471,0.524234693877551
51457,2000,2227,2644,1844,1644,1811,2385,2305,-173,14,-488,9570.34301757813,2.20607831283497,3.88750253560524,27.2497464394764,1.69025888610567,0.776202787475737,1.51640846279657,3494.50549450549,3357.02564102564,0.087173100871731,0.307692307692308,0.534438775510204
52097,1975,2174,2675,1839,1640,1812,2383,2311,-176,13,-481,9589.87426757813,3.23241574450708,1.75383043206713,28.6169567932868,0.267520810924061,2.91441290109346,1.07065766381459,3491.57509157509,3365.7641025641,0.0834371108343711,0.306451612903226,0.525510204081633
52737,1949,2154,2670,1841,1643,1820,2387,2306,-172,10,-485,9609.40551757813,4.29700127981338,0.955218208848462,28.4781791151538,1.38441474849468,2.11089581711261,-1.88718879740232,3497.4358974359,3358.48205128205,0.0884184308841843,0.30272952853598,0.530612244897959
53377,1896,2214,2616,1693,1565,1811,2383,2308,-178,15,-491,9628.93676757813,6.50904443714902,3.37758698460487,26.2413015395127,-26.9843236920236,64.8321648081383,-0.33820242917927,3491.57509157509,3361.39487179487,0.0809464508094645,0.30893300248139,0.538265306122449
54017,2198,2098,3015,1942,1673,1819,2391,2326,-188,12,-485,9648.46801757813,-5.85122403006427,-1.42194072555677,42.1940725556765,12.625835198587,-40.5799709333896,-0.434011218184438,3503.2967032967,3387.61025641026,0.0684931506849315,0.305210918114144,0.530612244897959
54657,1966,2188,2626,1844,1644,1813,2386,2316,-184,20,-479,9667.99926757813,3.5793711165204,2.33365095125232,26.6349048747678,1.70494640905492,0.790890310424991,0.767344792384584,3495.9706959707,3373.04615384615,0.0734744707347447,0.315136476426799,0.522959183673469
55297,2005,2159,2654,1844,1644,1812,2385,2320,-181,24,-495,9687.53051757813,1.95386316139261,1.16219032252899,27.7809677471014,1.69760264758029,0.783546548950364,1.14187662759058,3494.50549450549,3378.87179487179,0.0772104607721046,0.320099255583127,0.543367346938776
55937,2004,2176,2648,1845,1644,1814,2388,2309,-182,22,-483,9707.06176757813,2.00372166794781,1.84492171652467,27.5078283475327,1.72052876008302,0.377729735711362,0.401387815693426,3498.9010989011,3362.85128205128,0.0759651307596513,0.317617866004963,0.528061224489796
56577,2002,2177,2631,1845,1646,1813,2387,2308,-184,25,-491,9726.59301757813,2.07437263788354,1.89173099096791,26.8269009032093,2.40762944305283,0.356213638635828,0.790091986500325,3497.4358974359,3361.39487179487,0.0734744707347447,0.321339950372208,0.538265306122449
57217,2012,2190,2667,1847,1647,1814,2385,2301,-190,19,-486,9746.12426757813,1.69596725332565,2.39765963636752,28.2340363632481,2.77867260585662,-0.484537440066512,0.439796036124455,3494.50549450549,3351.2,0.0660024906600249,0.313895781637717,0.531887755102041
57857,2017,2177,2645,1845,1645,1813,2387,2309,-180,25,-487,9765.65551757813,1.46022285968228,1.88625108096855,27.3748919031452,2.06040722083061,0.363299806436281,0.783005818699872,3497.4358974359,3362.85128205128,0.0784557907845579,0.321339950372208,0.533163265306122
58497,1999,2151,2655,1846,1645,1812,2384,2308,-187,19,-475,9785.18676757813,2.19866950787906,0.841581056626738,27.8418943373262,2.06130204890945,-0.064548291226603,1.1661125124207,3493.04029304029,3361.39487179487,0.0697384806973848,0.313895781637717,0.517857142857143
59137,1992,2153,2645,1845,1644,1812,2384,2310,-190,21,-483,9804.71801757813,2.48404603858391,0.925565973779173,27.4434026220827,1.70584123713376,0.363042212762107,1.15045148610541,3493.04029304029,3364.30769230769,0.0660024906600249,0.316377171215881,0.528061224489796
59777,1998,2146,2646,1844,1644,1812,2384,2316,-176,21,-482,9824.24926757813,2.22941488907394,0.64507665534986,27.492334465014,1.69760264758029,0.783546548950364,1.14187662759058,3493.04029304029,3373.04615384615,0.0834371108343711,0.316377171215881,0.526785714285714
60417,2000,2155,2652,1844,1644,1811,2385,2320,-180,26,-485,9843.78051757813,2.15765092189268,1.00286990476801,27.7130095231995,1.69025888610567,0.776202787475737,1.51640846279657,3494.50549450549,3378.87179487179,0.0784557907845579,0.32258064516129,0.530612244897959
61057,2006,2143,2656,1845,1645,1812,2383,2310,-191,25,-484,9863.31176757813,1.90159449533449,0.521080221211539,27.8919778788461,2.05306345935598,0.355956044961654,1.15753765390586,3491.57509157509,3364.30769230769,0.0647571606475716,0.321339950372208,0.529336734693878
61697,2009,2169,2657,1846,1646,1814,2386,2304,-194,29,-488,9882.84301757813,1.79711538204898,1.56122118751735,27.8778812482651,2.42321179408093,-0.0569469360778019,0.424135009809167,3495.9706959707,3355.56923076923,0.0610211706102117,0.326302729528536,0.534438775510204
62337,1987,2141,2649,1842,1643,1811,2384,2321,-180,23,-488,9902.37426757813,2.68650460812888,0.443684541349049,27.6315458650951,1.32655948477651,1.6242976276527,1.49217257796645,3493.04029304029,3380.3282051282,0.0784557907845579,0.318858560794045,0.534438775510204
62977,1995,2193,2648,1846,1646,1813,2386,2304,-188,20,-484,9921.90551757813,2.39180188782482,2.5251842317383,27.4815768261696,2.4158680326063,-0.0642906975524292,0.79866684501516,3495.9706959707,3355.56923076923,0.0684931506849315,0.315136476426799,0.529336734693878
63617,2001,2157,2658,1845,1645,1812,2385,2311,-188,23,-491,9941.43676757813,2.12224536518054,1.08051580883138,27.948419116862,2.05306345935598,0.355956044961654,1.15753765390586,3494.50549450549,3365.7641025641,0.0684931506849315,0.318858560794045,0.538265306122449
64257,2000,2178,2630,1845,1646,1813,2387,2307,-187,15,-488,9960.96801757813,2.15770697211368,1.93213452586851,26.7865474131488,2.40762944305283,0.356213638635828,0.790091986500325,3497.4358974359,3359.93846153846,0.0697384806973848,0.30893300248139,0.534438775510204
64897,2001,2163,2669,1843,1644,1812,2383,2318,-183,21,-486,9980.49926757813,2.13552926755706,1.31623100965131,28.3768990348686,1.68936405802682,1.20405088513862,1.13330176907574,3491.57509157509,3375.95897435897,0.074719800747198,0.316377171215881,0.531887755102041
2,2015,2157,2665,1844,1644,1812,2386,2319,-187,14,-482,10000.0610351563,1.54422979656439,1.07783006907522,28.2169930924775,1.69760264758029,0.783546548950364,1.14187662759058,3495.9706959707,3377.41538461538,0.0697384806973848,0.307692307692308,0.526785714285714
641,1997,2163,2654,1845,1645,1814,2384,2304,-185,26,-484,10019.5617675781,2.29037133938676,1.32220302724575,27.7796972754254,2.06775098230524,0.370643567910908,0.408473983493879,3493.04029304029,3355.56923076923,0.0722291407222914,0.32258064516129,0.529336734693878
1281,1998,2151,2637,1844,1645,1812,2383,2305,-185,20,-486,10039.0930175781,2.22608390451178,0.848779172805501,27.12208271945,2.04482486980251,0.776460381149911,1.14896279539103,3491.57509157509,3357.02564102564,0.0722291407222914,0.315136476426799,0.531887755102041
1921,1985,2160,2634,1844,1643,1811,2384,2323,-182,18,-481,10058.6242675781,2.77243326687379,1.21005053861593,26.9949461384067,1.34303666388344,0.78328895527619,1.50932229499611,3493.04029304029,3383.24102564103,0.0759651307596513,0.312655086848635,0.525510204081633
2561,1984,2160,2629,1844,1645,1811,2384,2307,-188,23,-487,10078.1555175781,2.81015289699571,1.21204399141631,26.7956008583691,2.03748110832789,0.769116619675283,1.52349463059702,3493.04029304029,3359.93846153846,0.0684931506849315,0.318858560794045,0.533163265306122
3201,1993,2154,2655,1846,1645,1814,2385,2308,-179,23,-492,10097.6867675781,2.45105064137467,0.961590585164308,27.8409414835693,2.07598957185871,-0.0498607682773484,0.417048842008714,3494.50549450549,3361.39487179487,0.0797011207970112,0.318858560794045,0.539540816326531
3841,1997,2167,2662,1844,1645,1812,2384,2316,-188,20,-488,10117.2180175781,2.29975574781671,1.47907958864476,28.0920411355241,2.04482486980251,0.776460381149911,1.14896279539103,3493.04029304029,3373.04615384615,0.0684931506849315,0.315136476426799,0.534438775510204
