Time Stamp	Accelerometer X	Accelerometer Y	Accelerometer Z	Gyroscope X	Gyroscope Y	Gyroscope Z	VSenseReg	VSenseBatt	Magnetometer X	Magnetometer Y	Magnetometer Z
334.014892578125	-0.6849203553050198	4.036155061601862	28.38449383981381	-7.457333285814877	8.986744345237543	-0.703413387827041	3370.133333333333	3500.3663003663	0.0361145703611457	0.3027295285359802	0.5663265306122448
353.546142578125	1.749602977601264	0.9177089338714157	28.22910661285846	-4.919676066064231	3.470584800187031	-0.5423370525310178	3371.589743589744	3500.3663003663	0.0236612702366127	0.3076923076923077	0.5433673469387754
373.077392578125	1.696189285599898	0.7216215729293448	27.83784270706553	2.02100392922095	1.610125292051797	1.506344913567353	3371.589743589744	3498.901098901099	0.04234122042341221	0.3101736972704715	0.5471938775510203
392.608642578125	2.457200151335597	1.200909014476972	27.90909855230287	2.408524271131673	-0.07163445902705651	1.173198680221152	3370.133333333333	3497.435897435897	0.0323785803237858	0.3138957816377171	0.5497448979591836
412.139892578125	1.781389291471826	1.40754749588965	27.24525041103495	1.70494640905492	0.7908903104249914	0.7673447923845836	3367.220512820513	3497.435897435897	0.0298879202988792	0.3064516129032258	0.5471938775510203
431.671142578125	2.06980854845942	1.651611844212415	26.83881557875857	1.334798074329974	1.203793291464447	1.500747436481281	3380.328205128205	3498.901098901099	0.0298879202988792	0.3101736972704715	0.5459183673469388
451.202392578125	2.809552358913587	0.9699230510537444	27.00769489462559	1.342141835804602	1.211137052939074	1.126215601275288	3380.328205128205	3498.901098901099	0.0348692403486924	0.3176178660049628	0.5446428571428571
470.733642578125	2.368060615644951	1.48666972273824	27.33302772617599	0.9866810240289108	1.638727556927785	1.11055457496	3393.435897435897	3498.901098901099	0.0323785803237858	0.3200992555831266	0.5280612244897959
490.264892578125	2.894127805180108	0.4440431960369825	27.59568039630175	1.35038042535807	0.7906327167508176	1.134790459790123	3380.328205128205	3498.901098901099	0.04234122042341221	0.3114143920595534	0.5561224489795918
509.796142578125	1.95053217683044	1.365892839984626	27.41071600153738	1.712290170529547	0.7982340718996186	0.3928129571785911	3367.220512820513	3501.831501831502	0.04732254047322541	0.3176178660049628	0.5459183673469388
529.327392578125	2.431683455042385	1.798813069843913	28.11869301560865	2.02100392922095	1.610125292051797	1.506344913567353	3397.805128205128	3500.3663003663	0.0298879202988792	0.3213399503722084	0.5331632653061225
548.858642578125	2.699211993946576	1.406963639420921	27.30363605790789	1.705841237133761	0.3630422127621073	1.150451486105411	3377.415384615385	3500.3663003663	0.03860523038605231	0.315136476426799	0.5433673469387754
568.389892578125	3.045737147150514	1.925553629385263	27.44463706147375	2.06040722083061	0.3632998064362811	0.7830058186998716	3371.589743589744	3498.901098901099	0.03362391033623911	0.3213399503722084	0.5420918367346939
587.921142578125	2.621554746386095	1.20207672741443	27.792327258557	1.70494640905492	0.7908903104249914	0.7673447923845836	3381.784615384615	3503.296703296703	0.0398505603985056	0.3163771712158809	0.5395408163265306
607.452392578125	2.250145463668781	1.483091516665599	27.69084833344009	1.70494640905492	0.7908903104249914	0.7673447923845836	3389.066666666666	3501.831501831502	0.0286425902864259	0.3213399503722084	0.5395408163265306
626.983642578125	1.817149332468559	2.278375758012513	28.16242419874875	2.035691452170205	1.624812815001051	0.7572812431553682	3377.415384615385	3500.3663003663	0.0273972602739726	0.3089330024813896	0.548469387755102
646.514892578125	2.221359671599086	0.8107611086199904	26.92388913800098	1.342141835804602	1.211137052939074	1.126215601275288	3384.697435897436	3497.435897435897	0.0323785803237858	0.3101736972704715	0.5395408163265306
666.046142578125	2.53980583269276	1.160872475070997	27.91275249290031	2.422316966002087	0.3709011615850822	0.0410283160883401	3365.764102564102	3501.831501831502	0.037359900373599	0.3176178660049628	0.5395408163265306
685.577392578125	2.201295861091538	1.527123302479021	27.28766975209788	2.02100392922095	1.610125292051797	1.506344913567353	3397.805128205128	3500.3663003663	0.03860523038605231	0.3200992555831266	0.5408163265306122
705.108642578125	2.672526250186834	1.480205597548737	27.9794402451263	2.067750982305237	0.3706435679109084	0.4084739834938791	3373.046153846154	3503.296703296703	0.0273972602739726	0.303970223325062	0.5420918367346939
724.639892578125	2.168780894348003	0.9568446661542076	28.31553338457925	2.407629443052833	0.3562136386358276	0.7900919865003252	3377.415384615385	3500.3663003663	0.0410958904109589	0.3176178660049628	0.5459183673469388
744.171142578125	2.406260676232571	0.8823599278286678	27.76400721713322	1.689364058026824	1.204050885138621	1.133301769075742	3390.523076923077	3500.3663003663	0.03362391033623911	0.3176178660049628	0.5357142857142857
763.702392578125	2.667713938355433	0.5533431287767174	28.66568712232828	1.35038042535807	0.7906327167508176	1.134790459790123	3380.328205128205	3498.901098901099	0.03362391033623911	0.3163771712158809	0.5497448979591836
783.233642578125	2.543793405558047	2.128555519078428	27.14444809215724	1.70494640905492	0.7908903104249914	0.7673447923845836	3389.066666666666	3500.3663003663	0.0311332503113325	0.3076923076923077	0.5382653061224489
802.764892578125	2.984308273546431	0.8446254510708263	27.53745489291739	1.689364058026824	1.204050885138621	1.133301769075742	3386.153846153846	3497.435897435897	0.037359900373599	0.315136476426799	0.534438775510204
822.296142578125	2.831620131637948	1.120393872910128	27.96061270898725	2.067750982305237	0.3706435679109084	0.4084739834938791	3370.133333333333	3501.831501831502	0.0348692403486924	0.3114143920595534	0.5369897959183673
841.827392578125	2.163960575342173	1.040087251510687	27.99127484893131	2.437899317030183	-0.04225941312854729	-0.3249286606028179	3349.743589743589	3495.970695970696	0.0361145703611457	0.3163771712158809	0.5497448979591836
861.358642578125	1.986794501206414	1.207006144171845	27.29938558281554	1.35038042535807	0.7906327167508176	1.134790459790123	3384.697435897436	3497.435897435897	0.0348692403486924	0.3126550868486352	0.5395408163265306
880.889892578125	1.798986892255461	-0.1964580263916469	27.64580263916469	2.067750982305237	0.3706435679109084	0.4084739834938791	3370.133333333333	3501.831501831502	0.0361145703611457	0.315136476426799	0.5382653061224489
900.421142578125	1.497117750838084	1.929065109004335	27.09348909956655	2.422316966002087	0.3709011615850822	0.0410283160883401	3361.394871794872	3503.296703296703	0.0261519302615193	0.303970223325062	0.5420918367346939
919.952392578125	1.661384266969872	1.041388417355284	27.86115826447163	1.358619014911539	0.3701283805625608	1.143365318304957	3370.133333333333	3497.435897435897	0.03362391033623911	0.3114143920595534	0.5357142857142857
939.483642578125	2.528387601958021	1.570679662310764	26.93203376892362	1.689364058026824	1.204050885138621	1.133301769075742	3387.610256410256	3501.831501831502	0.037359900373599	0.3188585607940447	0.5382653061224489
959.014892578125	2.602283646146947	1.918038562552047	28.19614374479534	1.697602647580292	0.783546548950364	1.141876627590576	3374.502564102564	3495.970695970696	0.03362391033623911	0.3225806451612903	0.5510204081632653
978.546142578125	2.027332656727094	1.652020543740525	26.79794562594752	1.70494640905492	0.7908903104249914	0.7673447923845836	3373.046153846154	3501.831501831502	0.0348692403486924	0.315136476426799	0.548469387755102
998.077392578125	2.641746671684496	0.324033667499413	27.59663325005872	1.696707819501451	1.211394646613248	0.7587699338697491	3383.241025641025	3503.296703296703	0.037359900373599	0.3200992555831266	0.5433673469387754
1017.608642578125	2.235340198150877	1.1673366002605	27.26633997394999	2.06040722083061	0.3632998064362811	0.7830058186998716	3377.415384615385	3503.296703296703	0.0348692403486924	0.3126550868486352	0.5369897959183673
1037.139892578125	1.904821386629086	1.448743407426388	27.12565925736126	1.696707819501451	1.211394646613248	0.7587699338697491	3375.958974358974	3501.831501831502	0.04234122042341221	0.3163771712158809	0.5433673469387754
1056.671142578125	1.785040563011125	0.799642813294045	28.03571867059552	1.35038042535807	0.7906327167508176	1.134790459790123	3383.241025641025	3497.435897435897	0.03362391033623911	0.3176178660049628	0.5408163265306122
1076.202392578125	2.246117854931352	1.565933743300664	27.4066256699336	1.66554311744526	2.037715796040507	1.490683887252065	3381.784615384615	3497.435897435897	0.03860523038605231	0.3101736972704715	0.5395408163265306
1095.733642578125	2.173977550551961	1.398664536758269	28.13354632417313	1.35038042535807	0.7906327167508176	1.134790459790123	3394.892307692307	3497.435897435897	0.0323785803237858	0.3188585607940447	0.5369897959183673
1115.264892578125	1.977506178869601	0.9288689332308417	27.11310667691585	1.342141835804602	1.211137052939074	1.126215601275288	3383.241025641025	3497.435897435897	0.03362391033623911	0.3225806451612903	0.534438775510204
1134.796142578125	2.117425046174706	1.163758394187859	27.6241605812141	2.06040722083061	0.3632998064362811	0.7830058186998716	3368.676923076923	3500.3663003663	0.0348692403486924	0.3275434243176179	0.5280612244897959
1154.327392578125	2.765653358742767	2.162127933294899	27.78720667051011	0.9949196135823792	1.218223220739528	1.119129433474835	3393.435897435897	3497.435897435897	0.0348692403486924	0.3188585607940447	0.5369897959183673
1173.858642578125	2.493038095466872	2.577590187474644	26.24098125253561	2.059512392751769	0.7911479040991651	0.3998991249790446	3371.589743589744	3501.831501831502	0.0398505603985056	0.3225806451612903	0.5408163265306122
1193.389892578125	2.353759802116029	1.534296396237696	26.57036037623044	2.043930041723673	1.204308478812795	0.7658561016702027	3375.958974358974	3504.761904761905	0.0311332503113325	0.3188585607940447	0.5369897959183673
1212.921142578125	1.920107082612688	1.158195076121538	28.18049238784618	1.70494640905492	0.7908903104249914	0.7673447923845836	3381.784615384615	3501.831501831502	0.037359900373599	0.3213399503722084	0.5471938775510203
1232.452392578125	2.429209238144044	1.921274795550146	27.87252044498537	1.681125468473355	1.624555221326878	1.124726910560907	3378.871794871795	3498.901098901099	0.0361145703611457	0.3188585607940447	0.5408163265306122
1251.983642578125	1.812959411632823	1.170222519377362	26.97774806226379	2.430555555555555	-0.0496031746031746	0.04960317460317461	3354.11282051282	3497.435897435897	0.0286425902864259	0.3138957816377171	0.5420918367346939
1271.514892578125	1.793440088986399	1.199441032498452	28.05589675015481	1.689364058026824	1.204050885138621	1.133301769075742	3383.241025641025	3495.970695970696	0.0286425902864259	0.3176178660049628	0.5395408163265306
1291.046142578125	2.693222627474217	0.9655441275382746	27.44558724617257	2.067750982305237	0.3706435679109084	0.4084739834938791	3365.764102564102	3500.3663003663	0.0273972602739726	0.3114143920595534	0.5420918367346939
1310.577392578125	2.840812367881622	1.519791733393121	28.02082666068798	1.009607136531634	1.232910743688783	0.3700657630628496	3393.435897435897	3497.435897435897	0.03362391033623911	0.3176178660049628	0.5408163265306122
1330.108642578125	2.1640246327376	0.9592468184826939	28.07531815173062	1.696707819501451	1.211394646613248	0.7587699338697491	3383.241025641025	3503.296703296703	0.0361145703611457	0.3163771712158809	0.534438775510204
1349.639892578125	2.780712685232635	0.7614245697478274	27.85754302521726	2.0512738031983	1.211652240287422	0.3913242664642101	3377.415384615385	3503.296703296703	0.0149439601494396	0.3176178660049628	0.5306122448979591
1369.171142578125	1.03939546500331	1.928756499156578	27.12435008434224	1.35038042535807	0.7906327167508176	1.134790459790123	3384.697435897436	3501.831501831502	0.0323785803237858	0.3089330024813896	0.5420918367346939
1388.702392578125	1.755528286678197	1.439968878782056	28.00311212179446	1.697602647580292	0.783546548950364	1.141876627590576	3377.415384615385	3509.157509157509	0.0298879202988792	0.3076923076923077	0.5420918367346939
1408.233642578125	2.258328795934491	1.155726197339483	28.42738026605171	1.696707819501451	1.211394646613248	0.7587699338697491	3389.066666666666	3503.296703296703	0.0323785803237858	0.3126550868486352	0.5408163265306122
1427.764892578125	2.835423539491385	1.320493161873038	27.95068381269618	1.70494640905492	0.7908903104249914	0.7673447923845836	3380.328205128205	3501.831501831502	0.0273972602739726	0.3213399503722084	0.5497448979591836
1447.296142578125	2.160221224884163	0.7591475295197829	28.0852470480217	2.06040722083061	0.3632998064362811	0.7830058186998716	3370.133333333333	3501.831501831502	0.0323785803237858	0.3114143920595534	0.5369897959183673
1466.827392578125	2.000454740781073	1.96778380095232	27.22161990476801	1.70494640905492	0.7908903104249914	0.7673447923845836	3381.784615384615	3503.296703296703	0.024906600249066	0.3064516129032258	0.5459183673469388
1486.358642578125	1.335685774453911	1.239552639164692	28.04473608353084	2.043930041723673	1.204308478812795	0.7658561016702027	3381.784615384615	3503.296703296703	0.037359900373599	0.3114143920595534	0.5369897959183673
1505.889892578125	1.835059213054897	1.280273124719749	27.97268752802511	1.70494640905492	0.7908903104249914	0.7673447923845836	3373.046153846154	3503.296703296703	0.024906600249066	0.315136476426799	0.5420918367346939
1525.421142578125	2.410792736958982	1.162899291098158	27.71007089018427	1.342141835804602	1.211137052939074	1.126215601275288	3380.328205128205	3497.435897435897	0.0298879202988792	0.3126550868486352	0.5331632653061225
1544.952392578125	2.595533598103901	1.436599192876818	28.34008071231824	1.697602647580292	0.783546548950364	1.141876627590576	3371.589743589744	3495.970695970696	0.0323785803237858	0.3176178660049628	0.5471938775510203
1564.483642578125	2.017732054587577	0.7679804438109879	27.2019556189012	1.342141835804602	1.211137052939074	1.126215601275288	3381.784615384615	3497.435897435897	0.03362391033623911	0.3176178660049628	0.5369897959183673
1584.014892578125	2.998609087075353	0.7969987775713708	28.30012224286294	1.713184998608388	0.3703859742367346	0.7759196508994182	3380.328205128205	3500.3663003663	0.037359900373599	0.3089330024813896	0.5369897959183673
1603.546142578125	2.6642228103047	0.9591467288023403	28.08532711976598	2.067750982305237	0.3706435679109084	0.4084739834938791	3368.676923076923	3501.831501831502	0.0311332503113325	0.3176178660049628	0.5395408163265306
1623.077392578125	2.77031353426003	2.280986430508402	27.90135694915978	1.342141835804602	1.211137052939074	1.126215601275288	3381.784615384615	3498.901098901099	0.03860523038605231	0.3176178660049628	0.5459183673469388
1642.608642578125	2.306655763564153	1.375426382038307	26.45736179616937	2.052168631277142	0.7838041426245379	0.7744309601850372	3377.415384615385	3503.296703296703	0.03362391033623911	0.3188585607940447	0.5318877551020408
1662.139892578125	1.527710995718831	0.9245567361689409	27.54432638310593	1.689364058026824	1.204050885138621	1.133301769075742	3374.502564102564	3494.505494505494	0.03362391033623911	0.3176178660049628	0.5471938775510203
1681.671142578125	2.537043357515	1.647116149403199	27.28838505968014	1.342141835804602	1.211137052939074	1.126215601275288	3386.153846153846	3500.3663003663	0.04234122042341221	0.3225806451612903	0.5408163265306122
1701.202392578125	2.32692192204215	0.7995343828069954	28.0465617193005	1.35038042535807	0.7906327167508176	1.134790459790123	3377.415384615385	3495.970695970696	0.037359900373599	0.3089330024813896	0.5267857142857142
1720.733642578125	2.287608864208998	1.808446701577947	27.15532984220528	1.70494640905492	0.7908903104249914	0.7673447923845836	3380.328205128205	3503.296703296703	0.0186799501867995	0.3188585607940447	0.548469387755102
1740.264892578125	2.745747523114043	1.283292496743749	27.67075032562509	1.70494640905492	0.7908903104249914	0.7673447923845836	3377.415384615385	3501.831501831502	0.0298879202988792	0.3138957816377171	0.5408163265306122
1759.796142578125	2.701902404554481	2.011665452245212	26.83345477547883	2.075094743779865	0.3779873293855357	0.03394214828788659	3368.676923076923	3503.296703296703	0.0323785803237858	0.3176178660049628	0.5446428571428571
1779.327392578125	1.218178988373583	1.720616672538595	27.93833274614054	1.349485597279229	1.218480814413702	0.7516837660692957	3387.610256410256	3501.831501831502	0.0236612702366127	0.3275434243176179	0.5395408163265306
1798.858642578125	2.025627128573869	0.8043970731108407	27.56029268891593	2.075989571858706	-0.04986076827734839	0.4170488420087136	3365.764102564102	3500.3663003663	0.0199252801992528	0.3238213399503722	0.5522959183673469
1818.389892578125	1.882923933177461	1.479162996711721	28.08370032882796	1.696707819501451	1.211394646613248	0.7587699338697491	3377.415384615385	3501.831501831502	0.0286425902864259	0.3188585607940447	0.5331632653061225
1837.921142578125	1.597321032978882	0.2850230473170628	27.49769526829373	1.70494640905492	0.7908903104249914	0.7673447923845836	3377.415384615385	3501.831501831502	0.0186799501867995	0.3200992555831266	0.5382653061224489
1857.452392578125	2.290211195898191	1.524304109815728	27.56958901842718	1.358619014911539	0.3701283805625608	1.143365318304957	3378.871794871795	3497.435897435897	0.0348692403486924	0.3089330024813896	0.5420918367346939
1876.983642578125	2.29040336808447	1.281782810731749	27.8217189268251	1.342141835804602	1.211137052939074	1.126215601275288	3397.805128205128	3498.901098901099	0.0286425902864259	0.3114143920595534	0.5433673469387754
1896.514892578125	2.498635110392245	0.5141573516537485	28.58426483462516	1.342141835804602	1.211137052939074	1.126215601275288	3381.784615384615	3497.435897435897	0.0311332503113325	0.3176178660049628	0.5446428571428571
1916.046142578125	2.333351683108065	1.68517591762219	27.48240823778105	2.77043401630315	-0.06403310387825542	0.4312211776096206	3368.676923076923	3501.831501831502	0.03860523038605231	0.315136476426799	0.5459183673469388
1935.577392578125	2.58192940875024	1.605086157196849	27.49138428031516	1.690258886105665	0.7762027874757367	1.516408462796569	3391.979487179487	3501.831501831502	0.0311332503113325	0.3250620347394541	0.5459183673469388
1955.108642578125	3.077659582986356	1.243606271219013	27.63937287809878	1.70494640905492	0.7908903104249914	0.7673447923845836	3378.871794871795	3501.831501831502	0.0348692403486924	0.3138957816377171	0.5369897959183673
1974.639892578125	1.887335886287447	0.9112781719086971	28.87218280913031	1.357724186832697	0.7979764782254449	0.7602586245841301	3375.958974358974	3501.831501831502	0.0273972602739726	0.3188585607940447	0.5433673469387754
1994.171142578125	1.172305886073922	0.6124717747101405	26.75282252898597	1.342141835804602	1.211137052939074	1.126215601275288	3380.328205128205	3498.901098901099	0.0323785803237858	0.3138957816377171	0.5357142857142857
2013.702392578125	2.075677807315355	1.244607168022549	27.53928319774518	1.018740554163943	0.3845583098376416	0.7617473152985111	3377.415384615385	3501.831501831502	0.0286425902864259	0.3126550868486352	0.5446428571428571
2033.233642578125	2.042394151826703	1.644413728033652	27.55862719663485	1.35038042535807	0.7906327167508176	1.134790459790123	3383.241025641025	3497.435897435897	0.037359900373599	0.303970223325062	0.5395408163265306
2052.764892578125	1.710922486547947	2.128321976490937	27.16780235090641	1.697602647580292	0.783546548950364	1.141876627590576	3374.502564102564	3497.435897435897	0.0460772104607721	0.3114143920595534	0.5433673469387754
2072.296142578125	2.296582738133368	0.08758447569021849	27.24155243097816	2.06040722083061	0.3632998064362811	0.7830058186998716	3370.133333333333	3501.831501831502	0.0286425902864259	0.3176178660049628	0.5395408163265306
2091.827392578125	3.881874993327354	1.802925087545107	27.70749124548929	2.06040722083061	0.3632998064362811	0.7830058186998716	3364.307692307692	3500.3663003663	0.04358655043586551	0.3101736972704715	0.5522959183673469
2111.358642578125	2.478625181495954	0.7666876187730873	27.33123812269126	1.728767349636484	-0.04277460047689488	0.4099626742082601	3364.307692307692	3498.901098901099	0.0236612702366127	0.3163771712158809	0.5446428571428571
2130.889892578125	3.328295152456601	1.566517599769394	27.34824002306066	1.365067948307325	0.8053202397000722	0.3857267893781376	3371.589743589744	3501.831501831502	0.0323785803237858	0.3101736972704715	0.5471938775510203
2150.421142578125	2.672622336279973	1.358944948006748	28.10550519932526	1.342141835804602	1.211137052939074	1.126215601275288	3378.871794871795	3498.901098901099	0.0298879202988792	0.3176178660049628	0.5535714285714285
2169.952392578125	1.996274995729507	1.242622056028869	27.73779439711315	1.002263375057007	1.225566982214155	0.7445975982688421	3384.697435897436	3500.3663003663	0.0348692403486924	0.3188585607940447	0.5357142857142857
2189.483642578125	2.487721331646489	1.28734612879807	27.26538712019303	1.334798074329974	1.203793291464447	1.500747436481281	3399.261538461538	3500.3663003663	0.0398505603985056	0.3114143920595534	0.5497448979591836
2209.014892578125	1.872274391187838	0.9188849876155705	28.11150123844298	1.357724186832697	0.7979764782254449	0.7602586245841301	3387.610256410256	3503.296703296703	0.0348692403486924	0.3176178660049628	0.5548469387755102
2228.546142578125	2.095741617822903	0.5282449741635173	27.17550258364828	2.067750982305237	0.3706435679109084	0.4084739834938791	3373.046153846154	3501.831501831502	0.0398505603985056	0.3213399503722084	0.5459183673469388
2248.077392578125	2.471490789080349	0.7702908472658169	26.97091527341831	1.342141835804602	1.211137052939074	1.126215601275288	3380.328205128205	3498.901098901099	0.03362391033623911	0.3126550868486352	0.5522959183673469
2267.608642578125	2.364481408675507	1.003628918177354	27.63710818226464	2.059512392751769	0.7911479040991651	0.3998991249790446	3373.046153846154	3501.831501831502	0.0298879202988792	0.3200992555831266	0.5382653061224489
2287.139892578125	2.167379638823052	1.725229138641556	27.47708613584439	1.356829358753856	1.225824575888329	0.3771519308633031	3384.697435897436	3507.692307692308	0.0261519302615193	0.3225806451612903	0.5459183673469388
2306.671142578125	1.718310939935516	0.4082604680460359	27.17395319539641	1.696707819501451	1.211394646613248	0.7587699338697491	3381.784615384615	3501.831501831502	0.0323785803237858	0.3213399503722084	0.5382653061224489
2326.202392578125	2.071714255973352	1.246608961629621	27.33910383703799	1.698497475659134	0.35569845128748	1.524983321311403	3377.415384615385	3495.970695970696	0.0410958904109589	0.3163771712158809	0.5318877551020408
2345.733642578125	2.415709142057951	0.9583960561996884	28.16039438003118	1.697602647580292	0.783546548950364	1.141876627590576	3384.697435897436	3497.435897435897	0.0286425902864259	0.3213399503722084	0.5369897959183673
2365.264892578125	2.406701070826127	1.326581950761216	27.34180492387846	1.342141835804602	1.211137052939074	1.126215601275288	3381.784615384615	3498.901098901099	0.0311332503113325	0.3176178660049628	0.5420918367346939
2384.796142578125	2.001503680631179	1.644021710118933	27.59782898810668	2.41497320452746	0.3635574001104549	0.4155601512943327	3365.764102564102	3501.831501831502	0.037359900373599	0.3213399503722084	0.5357142857142857
2404.327392578125	2.808063024469925	0.8494631189545836	27.05368810454167	1.342141835804602	1.211137052939074	1.126215601275288	3387.610256410256	3500.3663003663	0.0323785803237858	0.3138957816377171	0.5331632653061225
2423.858642578125	3.238873197051225	-0.1871413453120662	26.71413453120663	1.719633932004174	0.8055778333742459	0.01828112197259856	3374.502564102564	3504.761904761905	0.0398505603985056	0.3163771712158809	0.5369897959183673
2443.389892578125	2.702695114822881	2.011265093523798	26.87349064762027	1.70494640905492	0.7908903104249914	0.7673447923845836	3380.328205128205	3500.3663003663	0.037359900373599	0.3213399503722084	0.5510204081632653
2462.921142578125	2.487657274251062	1.368186561826063	27.18134381739372	1.696707819501451	1.211394646613248	0.7587699338697491	3386.153846153846	3501.831501831502	0.03362391033623911	0.3114143920595534	0.5331632653061225
2482.452392578125	1.940098828550381	1.532778369419	26.72216305810006	1.697602647580292	0.783546548950364	1.141876627590576	3378.871794871795	3495.970695970696	0.0286425902864259	0.3089330024813896	0.5357142857142857
2501.983642578125	1.843306602716034	0.8720673723656398	28.79326276343604	1.35038042535807	0.7906327167508176	1.134790459790123	3380.328205128205	3498.901098901099	0.0211706102117061	0.3163771712158809	0.5433673469387754
2521.514892578125	2.462965316923964	1.925270041957594	27.4729958042406	1.342141835804602	1.211137052939074	1.126215601275288	3383.241025641025	3497.435897435897	0.03362391033623911	0.3213399503722084	0.5433673469387754
2541.046142578125	2.283365061762005	1.164125389682489	27.58746103175112	2.059512392751769	0.7911479040991651	0.3998991249790446	3371.589743589744	3503.296703296703	0.03860523038605231	0.3138957816377171	0.5382653061224489
2560.577392578125	2.506618263297248	1.439418385540111	28.05816144598894	1.690258886105665	0.7762027874757367	1.516408462796569	3380.328205128205	3500.3663003663	0.0323785803237858	0.3250620347394541	0.5446428571428571
2580.108642578125	2.617366994160101	1.487020036619478	27.29799633805223	1.365962776386166	0.3774721420371881	0.7688334830989646	3378.871794871795	3503.296703296703	0.0224159402241594	0.315136476426799	0.5497448979591836
2599.639892578125	2.361975163079452	1.166510860397583	27.34891396024171	1.70494640905492	0.7908903104249914	0.7673447923845836	3374.502564102564	3501.831501831502	0.03362391033623911	0.3126550868486352	0.5369897959183673
2619.171142578125	2.337603492729486	1.319392175389149	28.06078246108513	1.342141835804602	1.211137052939074	1.126215601275288	3381.784615384615	3498.901098901099	0.04234122042341221	0.3138957816377171	0.5357142857142857
2638.702392578125	2.827560494202806	1.243656316059189	27.6343683940811	2.045719697881355	0.3486122834870265	1.532069489111857	3368.676923076923	3494.505494505494	0.0348692403486924	0.315136476426799	0.5446428571428571
2658.233642578125	1.950748370540004	2.09305637851515	26.69436214848504	1.357724186832697	0.7979764782254449	0.7602586245841301	3386.153846153846	3500.3663003663	0.0323785803237858	0.3089330024813896	0.5408163265306122
2677.764892578125	1.995065912390836	1.768485229432238	27.15147705677621	2.052168631277142	0.7838041426245379	0.7744309601850372	3380.328205128205	3501.831501831502	0.0348692403486924	0.3089330024813896	0.5459183673469388
2697.296142578125	1.860287651068691	1.046151017978776	27.38489820212243	2.068645810384079	-0.05720452975197569	0.7915806772147062	3371.589743589744	3501.831501831502	0.0298879202988792	0.3101736972704715	0.5369897959183673
2716.827392578125	2.82828914707578	1.324096390365768	27.59036096342323	1.705841237133761	0.3630422127621073	1.150451486105411	3383.241025641025	3500.3663003663	0.0361145703611457	0.3138957816377171	0.5433673469387754
2736.358642578125	2.052601130613029	0.367373166357056	27.26268336429441	1.349485597279229	1.218480814413702	0.7516837660692957	3380.328205128205	3501.831501831502	0.0286425902864259	0.3200992555831266	0.5497448979591836
2755.889892578125	1.92298749679713	0.1272790420216515	27.27209579783486	1.356829358753856	1.225824575888329	0.3771519308633031	3391.979487179487	3506.227106227106	0.0311332503113325	0.3176178660049628	0.5420918367346939
2775.421142578125	1.83607612420729	0.9969312504003589	28.30687495996413	1.689364058026824	1.204050885138621	1.133301769075742	3384.697435897436	3497.435897435897	0.03860523038605231	0.3064516129032258	0.5306122448979591
2794.952392578125	1.836132174428288	1.926195871500865	27.38041284991352	1.682915124631038	0.7688590260011095	1.890940298002561	3378.871794871795	3497.435897435897	0.0323785803237858	0.3188585607940447	0.548469387755102
2814.483642578125	2.166843158136357	1.402267765250998	27.77322347490018	1.342141835804602	1.211137052939074	1.126215601275288	3394.892307692307	3498.901098901099	0.0311332503113325	0.3138957816377171	0.5471938775510203
2834.014892578125	2.218669260991182	0.2060592957956997	27.39407042043004	1.689364058026824	1.204050885138621	1.133301769075742	3383.241025641025	3497.435897435897	0.0348692403486924	0.3176178660049628	0.5446428571428571
2853.546142578125	2.555435837176777	1.435806816240685	28.4193183759315	2.422316966002087	0.3709011615850822	0.0410283160883401	3365.764102564102	3500.3663003663	0.0348692403486924	0.3163771712158809	0.5369897959183673
2873.077392578125	2.172007785642602	1.884507852369056	27.5492147630944	1.358619014911539	0.3701283805625608	1.143365318304957	3378.871794871795	3495.970695970696	0.0286425902864259	0.3163771712158809	0.5357142857142857
2892.608642578125	1.842409799180065	2.003833434757543	27.61665652424572	2.075989571858706	-0.04986076827734839	0.4170488420087136	3365.764102564102	3500.3663003663	0.0298879202988792	0.3163771712158809	0.5433673469387754
2912.139892578125	1.780500495110286	1.529208504153055	27.07914958469455	1.689364058026824	1.204050885138621	1.133301769075742	3386.153846153846	3503.296703296703	0.0286425902864259	0.315136476426799	0.5357142857142857
2931.671142578125	2.312428936326949	1.08968235539043	27.03176446095702	1.70494640905492	0.7908903104249914	0.7673447923845836	3380.328205128205	3500.3663003663	0.03362391033623911	0.3089330024813896	0.5433673469387754
2951.202392578125	1.58242184997758	1.483625328294152	27.63746717058485	2.044824869802514	0.7764603811499106	1.14896279539103	3383.241025641025	3501.831501831502	0.0361145703611457	0.3200992555831266	0.5459183673469388
2970.733642578125	2.856720454860889	1.047952632225141	27.20473677748596	1.70494640905492	0.7908903104249914	0.7673447923845836	3381.784615384615	3500.3663003663	0.04234122042341221	0.3138957816377171	0.5331632653061225
2990.264892578125	2.913745382529413	1.686660581214101	27.33394187858988	1.325664656697665	2.052145725315588	1.109065884245619	3380.328205128205	3498.901098901099	0.0323785803237858	0.3213399503722084	0.5293367346938775
3009.796142578125	2.11095524923665	1.328642130015161	27.13578699848398	1.728767349636484	-0.04277460047689488	0.4099626742082601	3370.133333333333	3501.831501831502	0.04234122042341221	0.315136476426799	0.5331632653061225
3029.327392578125	1.826531572288771	1.042155771571328	27.78442284286721	1.342141835804602	1.211137052939074	1.126215601275288	3384.697435897436	3497.435897435897	0.03362391033623911	0.3126550868486352	0.5408163265306122
3048.858642578125	2.460306935013772	1.280148012619307	27.98519873806931	1.357724186832697	0.7979764782254449	0.7602586245841301	3384.697435897436	3507.692307692308	0.0286425902864259	0.3200992555831266	0.5408163265306122
3068.389892578125	2.718901635865736	1.558635537441548	28.13644625584524	1.349485597279229	1.218480814413702	0.7516837660692957	3390.523076923077	3504.761904761905	0.03362391033623911	0.3089330024813896	0.5446428571428571
3087.921142578125	3.178873937714859	1.719423937181048	28.05760628189525	1.35038042535807	0.7906327167508176	1.134790459790123	3389.066666666666	3500.3663003663	0.0348692403486924	0.3188585607940447	0.5382653061224489
3107.452392578125	2.794404953505007	1.481782010014306	27.82179899856939	1.358619014911539	0.3701283805625608	1.143365318304957	3380.328205128205	3500.3663003663	0.03860523038605231	0.3101736972704715	0.548469387755102
3126.983642578125	1.502162270727906	1.56288100804988	27.71189919501207	1.342141835804602	1.211137052939074	1.126215601275288	3393.435897435897	3498.901098901099	0.037359900373599	0.315136476426799	0.5280612244897959
3146.514892578125	2.373073106837059	1.160905838297782	27.90941617022185	2.41497320452746	0.3635574001104549	0.4155601512943327	3371.589743589744	3497.435897435897	0.03362391033623911	0.3126550868486352	0.5420918367346939
3166.046142578125	2.170110085303098	1.279405680823351	28.0594319176649	1.713184998608388	0.3703859742367346	0.7759196508994182	3370.133333333333	3500.3663003663	0.0311332503113325	0.3114143920595534	0.5420918367346939
3185.577392578125	2.284414001612111	0.8403632988491022	27.96367011508979	2.052168631277142	0.7838041426245379	0.7744309601850372	3389.066666666666	3501.831501831502	0.0311332503113325	0.3076923076923077	0.5331632653061225
3205.108642578125	1.901082036171076	1.167803685435484	27.21963145645165	1.696707819501451	1.211394646613248	0.7587699338697491	3381.784615384615	3504.761904761905	0.0273972602739726	0.315136476426799	0.5420918367346939
3224.639892578125	1.792014811938163	0.998140667371298	28.1859332628702	1.342141835804602	1.211137052939074	1.126215601275288	3386.153846153846	3500.3663003663	0.024906600249066	0.3114143920595534	0.5369897959183673
3244.171142578125	2.15930039982491	0.9212287542971838	27.87712457028164	1.342141835804602	1.211137052939074	1.126215601275288	3380.328205128205	3495.970695970696	0.0273972602739726	0.3138957816377171	0.5395408163265306
3263.702392578125	2.69246194590353	0.9255242697456925	27.44757302543079	1.728767349636484	-0.04277460047689488	0.4099626742082601	3368.676923076923	3497.435897435897	0.03362391033623911	0.315136476426799	0.5433673469387754
3283.233642578125	2.818464344052271	0.7229978060342068	27.70021939657934	0.9875758521077519	1.210879459264901	1.493661268680827	3400.717948717948	3500.3663003663	0.0298879202988792	0.3101736972704715	0.5357142857142857
3302.764892578125	2.609922490551534	2.277816923963872	28.21830760361284	1.713184998608388	0.3703859742367346	0.7759196508994182	3378.871794871795	3503.296703296703	0.0298879202988792	0.3114143920595534	0.5433673469387754
3322.296142578125	2.339309020882711	2.167015646018833	27.29843539811671	2.067750982305237	0.3706435679109084	0.4084739834938791	3370.133333333333	3503.296703296703	0.0261519302615193	0.3101736972704715	0.5510204081632653
3341.827392578125	2.861476716471292	1.045550479896654	27.4449520103346	1.35038042535807	0.7906327167508176	1.134790459790123	3383.241025641025	3495.970695970696	0.037359900373599	0.315136476426799	0.5446428571428571
3361.358642578125	2.247615196549442	0.6762886212713259	28.37113787286742	1.697602647580292	0.783546548950364	1.141876627590576	3384.697435897436	3500.3663003663	0.0398505603985056	0.3200992555831266	0.5395408163265306
3380.889892578125	1.857781405472637	1.209032960199005	27.0967039800995	1.35038042535807	0.7906327167508176	1.134790459790123	3383.241025641025	3497.435897435897	0.037359900373599	0.326302729528536	0.5369897959183673
3400.421142578125	2.155873329169602	1.246191921294814	27.38080787051865	1.357724186832697	0.7979764782254449	0.7602586245841301	3390.523076923077	3503.296703296703	0.0273972602739726	0.3200992555831266	0.5420918367346939
3419.952392578125	1.582710108256998	1.119843379668183	28.01566203318173	2.052168631277142	0.7838041426245379	0.7744309601850372	3374.502564102564	3498.901098901099	0.0273972602739726	0.3213399503722084	0.5471938775510203
3439.483642578125	2.486071853714261	1.368987279268892	27.10127207311084	1.696707819501451	1.211394646613248	0.7587699338697491	3377.415384615385	3501.831501831502	0.0410958904109589	0.315136476426799	0.5433673469387754
3459.014892578125	1.33989754820319	1.924294167574147	27.57058324258536	1.713184998608388	0.3703859742367346	0.7759196508994182	3362.851282051282	3498.901098901099	0.0224159402241594	0.3114143920595534	0.5433673469387754
3478.546142578125	3.200010709595798	1.648984490103133	27.10155098968676	2.067750982305237	0.3706435679109084	0.4084739834938791	3359.938461538462	3498.901098901099	0.037359900373599	0.3126550868486352	0.5382653061224489
3498.077392578125	2.15584130047189	1.28661213780881	27.338786219119	1.342141835804602	1.211137052939074	1.126215601275288	3381.784615384615	3498.901098901099	0.03860523038605231	0.315136476426799	0.5510204081632653
3517.608642578125	1.165974379710888	0.9986661381931546	28.13338618068456	1.357724186832697	0.7979764782254449	0.7602586245841301	3381.784615384615	3500.3663003663	0.0273972602739726	0.3052109181141439	0.534438775510204
3537.139892578125	1.819589352059445	0.8032377009800784	27.67622990199218	1.003158203135848	0.7977188845512711	1.127704291989669	3386.153846153846	3503.296703296703	0.0323785803237858	0.3200992555831266	0.5369897959183673
3556.671142578125	2.113269322646425	1.40828148687891	27.17185131210898	2.052168631277142	0.7838041426245379	0.7744309601850372	3383.241025641025	3501.831501831502	0.0361145703611457	0.3176178660049628	0.5395408163265306
3576.202392578125	2.455262415123951	1.646332113573763	27.36678864262379	1.713184998608388	0.3703859742367346	0.7759196508994182	3371.589743589744	3506.227106227106	0.0261519302615193	0.3188585607940447	0.5382653061224489
3595.733642578125	1.743829804838469	1.203452960519292	27.6547039480708	1.70494640905492	0.7908903104249914	0.7673447923845836	3387.610256410256	3501.831501831502	0.03362391033623911	0.3089330024813896	0.548469387755102
3615.264892578125	1.883876786934427	1.276661555420324	28.33384445796767	1.689364058026824	1.204050885138621	1.133301769075742	3378.871794871795	3495.970695970696	0.0410958904109589	0.3138957816377171	0.5382653061224489
3634.796142578125	2.410696650865842	1.284159940640147	27.58400593598531	2.075094743779865	0.3779873293855357	0.03394214828788659	3368.676923076923	3503.296703296703	0.04234122042341221	0.3089330024813896	0.5471938775510203
3654.327392578125	2.237814415049217	1.044874874554267	27.51251254457327	1.35038042535807	0.7906327167508176	1.134790459790123	3383.241025641025	3497.435897435897	0.03362391033623911	0.3138957816377171	0.5408163265306122
3673.858642578125	1.89068071658873	1.29426899835586	26.57310016441398	1.689364058026824	1.204050885138621	1.133301769075742	3384.697435897436	3497.435897435897	0.0298879202988792	0.3188585607940447	0.534438775510204
3693.389892578125	2.430504231791685	0.8911594788930883	26.88405211069118	1.689364058026824	1.204050885138621	1.133301769075742	3387.610256410256	3497.435897435897	0.0348692403486924	0.3213399503722084	0.5459183673469388
3712.921142578125	2.309834611812184	0.3637198930241497	27.62801069758504	1.697602647580292	0.783546548950364	1.141876627590576	3380.328205128205	3498.901098901099	0.0448318804483188	0.3114143920595534	0.5382653061224489
3732.452392578125	2.255790521640724	1.359028356073709	28.09716439262913	2.06040722083061	0.3632998064362811	0.7830058186998716	3361.394871794872	3493.040293040293	0.0348692403486924	0.3250620347394541	0.548469387755102
3751.983642578125	2.04245820922213	1.563573295005659	27.64267049943416	1.349485597279229	1.218480814413702	0.7516837660692957	3387.610256410256	3500.3663003663	0.03362391033623911	0.3176178660049628	0.5382653061224489
3771.514892578125	2.500877119232166	1.684742195673991	27.52578043260094	1.696707819501451	1.211394646613248	0.7587699338697491	3378.871794871795	3501.831501831502	0.037359900373599	0.303970223325062	0.548469387755102
3791.046142578125	2.239904287575001	1.407455747015993	27.2544252984007	2.06040722083061	0.3632998064362811	0.7830058186998716	3370.133333333333	3501.831501831502	0.0286425902864259	0.3064516129032258	0.5446428571428571
3810.577392578125	1.856678584011274	1.996626977772084	28.33730222279162	1.357724186832697	0.7979764782254449	0.7602586245841301	3380.328205128205	3503.296703296703	0.0398505603985056	0.3188585607940447	0.5471938775510203
3830.108642578125	1.812735210748831	1.453164034975338	26.68359650246621	1.342141835804602	1.211137052939074	1.126215601275288	3384.697435897436	3497.435897435897	0.03362391033623911	0.3176178660049628	0.5420918367346939
3849.639892578125	2.247927476352145	1.28219151025986	27.78084897401405	2.043930041723673	1.204308478812795	0.7658561016702027	3383.241025641025	3501.831501831502	0.03362391033623911	0.3213399503722084	0.5382653061224489
3869.171142578125	2.61685236638695	0.7406469530032243	25.93530469967758	1.35038042535807	0.7906327167508176	1.134790459790123	3380.328205128205	3495.970695970696	0.03860523038605231	0.3188585607940447	0.5408163265306122
3888.702392578125	2.067278281340081	0.8448089488181413	27.5191051181859	2.061302048909451	-0.06454829122660299	1.166112512420699	3365.764102564102	3493.040293040293	0.0298879202988792	0.3052109181141439	0.5369897959183673
3908.233642578125	2.085951012106848	1.279822721158158	28.01772788418423	1.343036663883443	0.7832889552761903	1.509322294996115	3378.871794871795	3498.901098901099	0.024906600249066	0.3163771712158809	0.5395408163265306
3927.764892578125	1.841174525708368	0.1669152227062115	27.30847772937885	1.672886878919887	2.045059557515135	1.116152052046073	3381.784615384615	3497.435897435897	0.0311332503113325	0.326302729528536	0.5408163265306122
3947.296142578125	1.910338329810177	1.486361112890483	27.36388871095168	2.06040722083061	0.3632998064362811	0.7830058186998716	3370.133333333333	3500.3663003663	0.024906600249066	0.3126550868486352	0.5433673469387754
3966.827392578125	2.010984175154272	1.679637621975957	28.03623780240429	1.343036663883443	0.7832889552761903	1.509322294996115	3380.328205128205	3498.901098901099	0.0298879202988792	0.3238213399503722	0.548469387755102
3986.358642578125	2.237814415049217	1.044874874554267	27.51251254457327	2.06040722083061	0.3632998064362811	0.7830058186998716	3384.697435897436	3501.831501831502	0.0273972602739726	0.3163771712158809	0.5331632653061225
4005.889892578125	2.982338508637072	1.330468766681614	26.95312333183866	1.334798074329974	1.203793291464447	1.500747436481281	3402.174358974359	3500.3663003663	0.0361145703611457	0.3250620347394541	0.5433673469387754
4025.421142578125	2.374210125605876	1.725988152050905	27.40118479490958	1.70494640905492	0.7908903104249914	0.7673447923845836	3380.328205128205	3500.3663003663	0.037359900373599	0.3176178660049628	0.5382653061224489
4044.952392578125	1.945936058708603	1.16619390974313	27.38060902568702	2.053063459355983	0.3559560449616538	1.157537653905864	3365.764102564102	3497.435897435897	0.03860523038605231	0.3076923076923077	0.5331632653061225
4064.483642578125	1.705918002530267	1.443980806802896	27.60191931971046	1.35038042535807	0.7906327167508176	1.134790459790123	3381.784615384615	3497.435897435897	0.0361145703611457	0.3188585607940447	0.5357142857142857
4084.014892578125	1.815946087694575	0.4010373294471848	27.89626705528153	1.672886878919887	2.045059557515135	1.116152052046073	3381.784615384615	3497.435897435897	0.0361145703611457	0.3163771712158809	0.5420918367346939
4103.546142578125	2.353962150086478	1.674766590865416	28.52334091345846	2.067750982305237	0.3706435679109084	0.4084739834938791	3368.676923076923	3501.831501831502	0.0311332503113325	0.315136476426799	0.5331632653061225
4123.077392578125	2.714145374255333	1.561037689770034	27.89623102299661	1.35038042535807	0.7906327167508176	1.134790459790123	3378.871794871795	3498.901098901099	0.03362391033623911	0.3213399503722084	0.5395408163265306
4142.608642578125	2.241489708111802	1.406655029573164	27.33449704268358	1.70494640905492	0.7908903104249914	0.7673447923845836	3386.153846153846	3501.831501831502	0.0298879202988792	0.3225806451612903	0.5433673469387754
4162.139892578125	2.415420883778532	1.322178004825657	27.78219951743429	1.333903246251133	1.631641389127331	1.117640742760454	3396.348717948718	3498.901098901099	0.0398505603985056	0.3176178660049628	0.5382653061224489
4181.671142578125	2.415645084662524	1.039236489227681	28.07635107723187	1.342141835804602	1.211137052939074	1.126215601275288	3381.784615384615	3498.901098901099	0.03860523038605231	0.3163771712158809	0.5369897959183673
4201.202392578125	2.577717635000961	0.9203446287873939	27.96553712126065	2.067750982305237	0.3706435679109084	0.4084739834938791	3367.220512820513	3500.3663003663	0.03362391033623911	0.3287841191066998	0.5471938775510203
4220.733642578125	3.032012850180428	1.245616405632781	27.43835943672197	2.430555555555555	-0.0496031746031746	0.04960317460317461	3358.482051282051	3501.831501831502	0.0410958904109589	0.3089330024813896	0.5471938775510203
4240.264892578125	1.642337367614716	1.474408736894925	28.55912631050755	2.028347690695577	1.617469053526424	1.131813078361361	3378.871794871795	3498.901098901099	0.0448318804483188	0.3213399503722084	0.5497448979591836
4259.796142578125	1.984930998174364	1.954580303952342	28.54196960476587	1.713184998608388	0.3703859742367346	0.7759196508994182	3374.502564102564	3503.296703296703	0.037359900373599	0.3101736972704715	0.534438775510204
4279.327392578125	2.09080335981039	1.156159919287682	28.38400807123182	2.438794145109024	-0.4701075107914314	0.05817803311800911	3355.569230769231	3500.3663003663	0.0398505603985056	0.3114143920595534	0.5497448979591836
4298.858642578125	2.298706807966605	1.802841679478146	27.71583205218543	1.70494640905492	0.7908903104249914	0.7673447923845836	3389.066666666666	3503.296703296703	0.0323785803237858	0.3089330024813896	0.5408163265306122
4318.389892578125	2.463381689994235	1.399807227275639	28.0192772724361	1.70494640905492	0.7908903104249914	0.7673447923845836	3378.871794871795	3500.3663003663	0.0410958904109589	0.3176178660049628	0.5548469387755102
4337.921142578125	2.817791741400295	1.571822352828134	26.8177647171866	1.697602647580292	0.783546548950364	1.141876627590576	3381.784615384615	3497.435897435897	0.0361145703611457	0.3114143920595534	0.5318877551020408
4357.452392578125	2.154071714923238	0.519829100207119	28.01708997928811	2.423211794080928	-0.05694693607780191	0.4241350098091671	3361.394871794872	3500.3663003663	0.0323785803237858	0.3114143920595534	0.5446428571428571
4376.983642578125	2.658737895821323	0.8811088068242479	27.88911931757522	1.697602647580292	0.783546548950364	1.141876627590576	3383.241025641025	3497.435897435897	0.03860523038605231	0.315136476426799	0.5408163265306122
4396.514892578125	2.133687617438558	1.640393459206116	27.96065407938847	1.358619014911539	0.3701283805625608	1.143365318304957	3373.046153846154	3495.970695970696	0.024906600249066	0.3052109181141439	0.548469387755102
4416.046142578125	2.10763227184891	0.5222395933423014	27.77604066576986	2.067750982305237	0.3706435679109084	0.4084739834938791	3374.502564102564	3501.831501831502	0.0323785803237858	0.3126550868486352	0.5586734693877551
4435.577392578125	2.696521583338672	0.8022618265966308	27.77381734033694	1.70494640905492	0.7908903104249914	0.7673447923845836	3383.241025641025	3500.3663003663	0.0361145703611457	0.3188585607940447	0.5331632653061225
4455.108642578125	3.0856827717635	1.118342034462879	28.16579655371212	1.343036663883443	0.7832889552761903	1.509322294996115	3386.153846153846	3500.3663003663	0.0273972602739726	0.3138957816377171	0.5408163265306122
4474.639892578125	2.293766381344351	1.037660076762112	28.23399232378878	1.334798074329974	1.203793291464447	1.500747436481281	3397.805128205128	3498.901098901099	0.024906600249066	0.3188585607940447	0.5369897959183673
4494.171142578125	2.415516969871672	1.200917355283668	27.90826447163325	1.35038042535807	0.7906327167508176	1.134790459790123	3381.784615384615	3497.435897435897	0.03362391033623911	0.3200992555831266	0.5420918367346939
4513.702392578125	1.584671865991929	1.644105118185895	27.58948818141055	1.70494640905492	0.7908903104249914	0.7673447923845836	3370.133333333333	3498.901098901099	0.0273972602739726	0.3126550868486352	0.5369897959183673
4533.233642578125	1.754006923536823	1.359929163196891	28.00708368031089	1.342141835804602	1.211137052939074	1.126215601275288	3396.348717948718	3497.435897435897	0.0348692403486924	0.3138957816377171	0.5433673469387754
4552.764892578125	2.120691973341447	1.040896309760212	27.91036902397882	0.6715183319417214	0.3916444776380951	0.7546611474980576	3386.153846153846	3501.831501831502	0.0398505603985056	0.3225806451612903	0.5535714285714285
4572.296142578125	1.838734506117481	1.642053279738646	27.79467202613542	1.720528760083016	0.3777297357113619	0.4013878156934256	3368.676923076923	3501.831501831502	0.0348692403486924	0.315136476426799	0.5408163265306122
4591.827392578125	2.284950482298807	1.16332467223966	27.66753277603399	1.342141835804602	1.211137052939074	1.126215601275288	3387.610256410256	3500.3663003663	0.0398505603985056	0.315136476426799	0.5510204081632653
4611.358642578125	2.502814855443811	1.2393190965772	28.06809034228002	1.696707819501451	1.211394646613248	0.7587699338697491	3380.328205128205	3500.3663003663	0.03860523038605231	0.3188585607940447	0.5369897959183673
4630.889892578125	2.281018959654517	1.124906249332736	27.50937506672645	1.35038042535807	0.7906327167508176	1.134790459790123	3380.328205128205	3497.435897435897	0.0323785803237858	0.3163771712158809	0.534438775510204
4650.421142578125	2.48074708271945	1.088848274720817	27.11517252791835	1.70494640905492	0.7908903104249914	0.7673447923845836	3380.328205128205	3501.831501831502	0.0236612702366127	0.3163771712158809	0.5318877551020408
4669.952392578125	2.016437060939936	1.798095760468046	28.1904239531954	1.728767349636484	-0.04277460047689488	0.4099626742082601	3362.851282051282	3500.3663003663	0.0460772104607721	0.3126550868486352	0.5369897959183673
4689.483642578125	3.362435575609079	1.085470248008883	27.45297519911174	1.697602647580292	0.783546548950364	1.141876627590576	3374.502564102564	3498.901098901099	0.0361145703611457	0.3126550868486352	0.5318877551020408
4709.014892578125	2.086935894561527	1.036901063352764	28.30989366472359	2.045719697881355	0.3486122834870265	1.532069489111857	3380.328205128205	3497.435897435897	0.0323785803237858	0.3200992555831266	0.5433673469387754
4728.546142578125	1.833369699250528	2.412439545833067	26.75604541669336	2.769539188224309	0.3638149937846287	0.04811448388879362	3364.307692307692	3500.3663003663	0.0261519302615193	0.3163771712158809	0.5408163265306122
4748.077392578125	2.833774061559157	1.40213431234386	27.78656876561399	1.342141835804602	1.211137052939074	1.126215601275288	3381.784615384615	3497.435897435897	0.0286425902864259	0.3225806451612903	0.5459183673469388
4767.608642578125	2.884209084673201	1.357301809087609	28.26981909123908	1.342141835804602	1.211137052939074	1.126215601275288	3383.241025641025	3495.970695970696	0.03362391033623911	0.315136476426799	0.5510204081632653
4787.139892578125	4.19366502386138	0.1572398869386971	28.27601130613029	1.342141835804602	1.211137052939074	1.126215601275288	3383.241025641025	3497.435897435897	0.0286425902864259	0.3163771712158809	0.5395408163265306
4806.671142578125	3.522988931415882	2.279635219823629	28.03647801763714	1.697602647580292	0.783546548950364	1.141876627590576	3378.871794871795	3495.970695970696	0.0410958904109589	0.3089330024813896	0.5357142857142857
4826.202392578125	2.484238210770184	0.6830446746951937	27.69553253048064	2.06040722083061	0.3632998064362811	0.7830058186998716	3367.220512820513	3494.505494505494	0.0311332503113325	0.3126550868486352	0.5408163265306122
4845.733642578125	1.655931381184208	0.9229302788631949	27.70697211368052	1.697602647580292	0.783546548950364	1.141876627590576	3380.328205128205	3498.901098901099	0.0361145703611457	0.3138957816377171	0.5497448979591836
4865.264892578125	2.497329940960434	1.161281174599108	27.87188254008926	1.721423588161857	-0.05011836195152218	0.7844945094142527	3368.676923076923	3500.3663003663	0.0361145703611457	0.3213399503722084	0.5433673469387754
4884.796142578125	2.45377308068029	1.525872181474602	27.41278185253988	2.06040722083061	0.3632998064362811	0.7830058186998716	3371.589743589744	3503.296703296703	0.0460772104607721	0.3138957816377171	0.5369897959183673
4904.327392578125	2.423820409753806	1.721976224030065	27.80237759699357	2.052168631277142	0.7838041426245379	0.7744309601850372	3381.784615384615	3501.831501831502	0.0298879202988792	0.3101736972704715	0.5497448979591836
4923.858642578125	2.103508577018342	0.7263424695193561	27.3657530480644	1.697602647580292	0.783546548950364	1.141876627590576	3380.328205128205	3498.901098901099	0.0311332503113325	0.3126550868486352	0.5382653061224489
4943.389892578125	2.909469551384707	1.082759485832639	27.72405141673606	1.697602647580292	0.783546548950364	1.141876627590576	3374.502564102564	3495.970695970696	0.0348692403486924	0.3089330024813896	0.5433673469387754
4962.921142578125	2.762994976832575	1.517005903956612	28.29940960433882	1.342141835804602	1.211137052939074	1.126215601275288	3380.328205128205	3495.970695970696	0.0286425902864259	0.3188585607940447	0.548469387755102
4982.452392578125	2.365017889362202	1.326590291567912	27.34097084320885	2.067750982305237	0.3706435679109084	0.4084739834938791	3364.307692307692	3500.3663003663	0.0323785803237858	0.3188585607940447	0.5471938775510203
5001.983642578125	2.907852102150193	1.123980419789465	27.60195802105353	2.423211794080928	-0.05694693607780191	0.4241350098091671	3358.482051282051	3500.3663003663	0.0398505603985056	0.3188585607940447	0.5471938775510203
5021.514892578125	2.553882445337689	1.396187317169517	28.38126828304828	1.713184998608388	0.3703859742367346	0.7759196508994182	3365.764102564102	3498.901098901099	0.024906600249066	0.3176178660049628	0.5420918367346939
5041.046142578125	2.159076198940918	1.20417026989516	27.58297301048406	2.06040722083061	0.3632998064362811	0.7830058186998716	3370.133333333333	3504.761904761905	0.0323785803237858	0.3163771712158809	0.5433673469387754
5060.577392578125	1.90732763222514	1.285861465206158	27.4138534793842	1.342141835804602	1.211137052939074	1.126215601275288	3383.241025641025	3497.435897435897	0.03860523038605231	0.3163771712158809	0.548469387755102
5080.108642578125	2.239303749492879	1.165334806653428	27.46651933465719	1.697602647580292	0.783546548950364	1.141876627590576	3381.784615384615	3495.970695970696	0.0211706102117061	0.3176178660049628	0.5459183673469388
5099.639892578125	2.195178379828326	1.247384656652361	27.26153433476395	1.334798074329974	1.203793291464447	1.500747436481281	3394.892307692307	3498.901098901099	0.0323785803237858	0.3089330024813896	0.5382653061224489
5119.171142578125	1.682713211037089	0.7284276711933895	27.15723288066107	1.349485597279229	1.218480814413702	0.7516837660692957	3389.066666666666	3503.296703296703	0.0224159402241594	0.3126550868486352	0.5459183673469388
5138.702392578125	2.961233765453847	1.360487997245532	27.9512002754468	2.06040722083061	0.3632998064362811	0.7830058186998716	3371.589743589744	3501.831501831502	0.0348692403486924	0.3213399503722084	0.5433673469387754
5158.233642578125	2.136890487209874	1.598371807806462	28.16281921935387	2.06040722083061	0.3632998064362811	0.7830058186998716	3380.328205128205	3500.3663003663	0.0448318804483188	0.3163771712158809	0.5471938775510203
5177.764892578125	2.85830587539769	1.047151914782312	27.28480852176884	1.697602647580292	0.783546548950364	1.141876627590576	3380.328205128205	3495.970695970696	0.0286425902864259	0.3200992555831266	0.5535714285714285
5197.296142578125	1.752205309290458	0.6335663421091966	28.64336578908035	1.712290170529547	0.7982340718996186	0.3928129571785911	3368.676923076923	3501.831501831502	0.03362391033623911	0.3176178660049628	0.5331632653061225
5216.827392578125	2.673727326351077	1.964447478273867	27.55525217261333	1.697602647580292	0.783546548950364	1.141876627590576	3381.784615384615	3497.435897435897	0.0348692403486924	0.3138957816377171	0.5433673469387754
5236.358642578125	2.425213658104328	1.963696805671215	27.63031943287853	1.713184998608388	0.3703859742367346	0.7759196508994182	3380.328205128205	3501.831501831502	0.037359900373599	0.3163771712158809	0.5420918367346939
5255.889892578125	1.486059842952619	0.8841448604616404	27.58551395383597	2.061302048909451	-0.06454829122660299	1.166112512420699	3359.938461538462	3487.179487179487	0.03362391033623911	0.3176178660049628	0.5522959183673469
5275.421142578125	2.095637524555335	1.659610677834006	26.03893221659941	1.705841237133761	0.3630422127621073	1.150451486105411	3374.502564102564	3494.505494505494	0.0286425902864259	0.3089330024813896	0.5395408163265306
5294.952392578125	2.347083987252578	1.355008087246173	28.49919127538274	2.06040722083061	0.3632998064362811	0.7830058186998716	3365.764102564102	3500.3663003663	0.0348692403486924	0.3138957816377171	0.534438775510204
5314.483642578125	1.360369724606581	1.69257421316166	26.74257868383405	1.372411709781952	0.8126640011746995	0.01119495417214505	3377.415384615385	3503.296703296703	0.0398505603985056	0.303970223325062	0.5382653061224489
5334.014892578125	2.387782286261824	1.59792140424487	28.207859575513	1.698497475659134	0.35569845128748	1.524983321311403	3378.871794871795	3498.901098901099	0.0323785803237858	0.3163771712158809	0.5369897959183673
5353.546142578125	2.49650520199432	1.202101749834519	27.78982501654816	2.067750982305237	0.3706435679109084	0.4084739834938791	3370.133333333333	3501.831501831502	0.0298879202988792	0.3138957816377171	0.5369897959183673
5373.077392578125	2.365146004153055	1.164909425511925	27.50905744880746	1.342141835804602	1.211137052939074	1.126215601275288	3378.871794871795	3495.970695970696	0.0261519302615193	0.3138957816377171	0.5433673469387754
5392.608642578125	1.312889348856576	1.00864174300173	27.13582569982705	1.35038042535807	0.7906327167508176	1.134790459790123	3383.241025641025	3497.435897435897	0.0460772104607721	0.3064516129032258	0.5459183673469388
5412.139892578125	2.516923496786454	1.434213722161724	28.57862778382764	1.35038042535807	0.7906327167508176	1.134790459790123	3380.328205128205	3498.901098901099	0.037359900373599	0.3114143920595534	0.5369897959183673
5431.671142578125	2.49266976544317	1.042422677385604	27.75773226143959	1.689364058026824	1.204050885138621	1.133301769075742	3387.610256410256	3500.3663003663	0.0211706102117061	0.3138957816377171	0.5382653061224489
5451.202392578125	2.086391406700404	1.724044744090705	27.59552559092947	2.423211794080928	-0.05694693607780191	0.4241350098091671	3364.307692307692	3500.3663003663	0.0298879202988792	0.3064516129032258	0.5510204081632653
5470.733642578125	2.078432275318686	1.768468547818846	27.15314521811543	1.342141835804602	1.211137052939074	1.126215601275288	3381.784615384615	3497.435897435897	0.0323785803237858	0.3163771712158809	0.5420918367346939
5490.264892578125	2.245165001174386	1.768435184592062	27.15648154079388	2.053063459355983	0.3559560449616538	1.157537653905864	3374.502564102564	3500.3663003663	0.0298879202988792	0.3176178660049628	0.5471938775510203
5509.796142578125	2.284061685937266	1.284985680503064	27.50143194969359	1.70494640905492	0.7908903104249914	0.7673447923845836	3374.502564102564	3503.296703296703	0.0361145703611457	0.3163771712158809	0.5420918367346939
5529.327392578125	2.168524664766297	1.28020639826618	27.97936017338202	1.705841237133761	0.3630422127621073	1.150451486105411	3374.502564102564	3497.435897435897	0.04358655043586551	0.315136476426799	0.5420918367346939
5548.858642578125	2.032409205314628	1.245416226272073	27.45837737279269	1.689364058026824	1.204050885138621	1.133301769075742	3380.328205128205	3498.901098901099	0.0448318804483188	0.315136476426799	0.5433673469387754
5568.389892578125	1.658813963978391	1.285110792603506	27.48892073964939	2.052168631277142	0.7838041426245379	0.7744309601850372	3378.871794871795	3501.831501831502	0.0323785803237858	0.3089330024813896	0.5471938775510203
5587.921142578125	1.90732763222514	1.285861465206158	27.4138534793842	1.357724186832697	0.7979764782254449	0.7602586245841301	3389.066666666666	3503.296703296703	0.0261519302615193	0.3176178660049628	0.5382653061224489
5607.452392578125	2.262004088997075	1.51750635235838	28.24936476416202	2.075989571858706	-0.04986076827734839	0.4170488420087136	3357.025641025641	3500.3663003663	0.0298879202988792	0.3138957816377171	0.5369897959183673
5626.983642578125	2.006580229218713	1.237417392650482	28.25826073495185	1.697602647580292	0.783546548950364	1.141876627590576	3381.784615384615	3498.901098901099	0.0273972602739726	0.3089330024813896	0.5382653061224489
5646.514892578125	2.360838144310636	0.6014285466444602	27.85714533555399	1.697602647580292	0.783546548950364	1.141876627590576	3373.046153846154	3497.435897435897	0.03362391033623911	0.3114143920595534	0.5382653061224489
5666.046142578125	2.086807779770675	1.19858192940875	28.14180705912498	1.720528760083016	0.3777297357113619	0.4013878156934256	3371.589743589744	3503.296703296703	0.0398505603985056	0.3163771712158809	0.5318877551020408
5685.577392578125	2.663902523327568	1.363348893942306	27.66511060576944	1.342141835804602	1.211137052939074	1.126215601275288	3380.328205128205	3498.901098901099	0.0323785803237858	0.3101736972704715	0.5420918367346939
5705.108642578125	2.644244910106122	1.171256779407683	26.87432205923174	1.70494640905492	0.7908903104249914	0.7673447923845836	3368.676923076923	3500.3663003663	0.04234122042341221	0.3089330024813896	0.5318877551020408
5724.639892578125	2.174802289518075	1.357843961522858	28.21560384771422	1.35038042535807	0.7906327167508176	1.134790459790123	3383.241025641025	3497.435897435897	0.03362391033623911	0.3138957816377171	0.5433673469387754
5744.171142578125	1.662745486622681	1.323529215510431	27.64707844895693	1.696707819501451	1.211394646613248	0.7587699338697491	3374.502564102564	3497.435897435897	0.037359900373599	0.3114143920595534	0.5433673469387754
5763.702392578125	2.460210848920633	1.401408662161297	27.85913378387035	2.067750982305237	0.3706435679109084	0.4084739834938791	3368.676923076923	3500.3663003663	0.0298879202988792	0.3188585607940447	0.5369897959183673
5783.233642578125	2.876314010686909	1.320885179787757	27.91148202122435	1.70494640905492	0.7908903104249914	0.7673447923845836	3383.241025641025	3500.3663003663	0.0398505603985056	0.3138957816377171	0.5369897959183673
5802.764892578125	2.994197133965366	1.364883602374394	27.51163976256059	1.697602647580292	0.783546548950364	1.141876627590576	3381.784615384615	3501.831501831502	0.0348692403486924	0.3114143920595534	0.5420918367346939
5822.296142578125	2.490291634637969	1.043623753549847	27.63762464501527	2.067750982305237	0.3706435679109084	0.4084739834938791	3367.220512820513	3500.3663003663	0.0311332503113325	0.3138957816377171	0.5395408163265306
5841.827392578125	2.449777500640574	1.56829419159567	27.17058084043303	1.357724186832697	0.7979764782254449	0.7602586245841301	3386.153846153846	3503.296703296703	0.0298879202988792	0.315136476426799	0.5459183673469388
5861.358642578125	2.366090850735592	1.972513038349028	26.74869616509726	1.712290170529547	0.7982340718996186	0.3928129571785911	3374.502564102564	3500.3663003663	0.04234122042341221	0.3200992555831266	0.548469387755102
5880.889892578125	2.201456004580104	1.325022219909039	27.49777800909615	1.342141835804602	1.211137052939074	1.126215601275288	3380.328205128205	3495.970695970696	0.0286425902864259	0.315136476426799	0.5395408163265306
5900.421142578125	3.102159368127175	0.9290440901714606	27.09559098285397	1.342141835804602	1.211137052939074	1.126215601275288	3381.784615384615	3497.435897435897	0.0298879202988792	0.3089330024813896	0.5420918367346939
5919.952392578125	2.027244577808383	0.7631761391540153	27.68238608459847	1.713184998608388	0.3703859742367346	0.7759196508994182	3368.676923076923	3500.3663003663	0.0286425902864259	0.3126550868486352	0.5408163265306122
5939.483642578125	2.63153969289817	1.601074229176009	27.89257708239916	1.697602647580292	0.783546548950364	1.141876627590576	3381.784615384615	3497.435897435897	0.03362391033623911	0.3089330024813896	0.534438775510204
5959.014892578125	3.030747716620759	0.8422149579356437	27.77850420643564	2.06040722083061	0.3632998064362811	0.7830058186998716	3377.415384615385	3497.435897435897	0.0323785803237858	0.3138957816377171	0.5446428571428571
5978.546142578125	2.034058683246856	1.163775075801251	27.62249241987487	1.70494640905492	0.7908903104249914	0.7673447923845836	3374.502564102564	3500.3663003663	0.03860523038605231	0.315136476426799	0.5382653061224489
5998.077392578125	2.108673204524587	1.208582556637414	27.14174433625862	1.713184998608388	0.3703859742367346	0.7759196508994182	3377.415384615385	3501.831501831502	0.0448318804483188	0.3089330024813896	0.5446428571428571
6017.608642578125	2.285583049078641	1.365025396088229	27.49746039117716	1.689364058026824	1.204050885138621	1.133301769075742	3381.784615384615	3497.435897435897	0.037359900373599	0.3089330024813896	0.5382653061224489
6037.139892578125	1.539441506256272	1.120652437917708	27.93475620822924	1.70494640905492	0.7908903104249914	0.7673447923845836	3380.328205128205	3501.831501831502	0.0136986301369863	0.3188585607940447	0.5357142857142857
6056.671142578125	2.697506465793351	0.5593401687912369	28.06598312087631	2.020109101142109	2.037973389714681	1.123238219846526	3380.328205128205	3498.901098901099	0.0361145703611457	0.3163771712158809	0.5318877551020408
6076.202392578125	1.991991157410373	1.648826014775906	27.11739852240941	2.075989571858706	-0.04986076827734839	0.4170488420087136	3358.482051282051	3498.901098901099	0.03362391033623911	0.3089330024813896	0.5357142857142857
6095.733642578125	2.802866368265966	0.4076432483505221	27.23567516494779	2.423211794080928	-0.05694693607780191	0.4241350098091671	3354.11282051282	3497.435897435897	0.024906600249066	0.3089330024813896	0.5382653061224489
6115.264892578125	1.837941795849081	1.642453638460061	27.75463615399398	2.06040722083061	0.3632998064362811	0.7830058186998716	3371.589743589744	3497.435897435897	0.03362391033623911	0.315136476426799	0.5433673469387754
6134.796142578125	2.757542091046911	1.398547765464523	28.14522345354771	1.70494640905492	0.7908903104249914	0.7673447923845836	3377.415384615385	3503.296703296703	0.0398505603985056	0.3176178660049628	0.5306122448979591
6154.327392578125	2.912864593342301	0.7982165353490062	28.1783464650994	1.697602647580292	0.783546548950364	1.141876627590576	3375.958974358974	3497.435897435897	0.0348692403486924	0.3176178660049628	0.5331632653061225
6173.858642578125	2.820962582473896	1.570220917942477	26.97790820575236	1.356829358753856	1.225824575888329	0.3771519308633031	3378.871794871795	3500.3663003663	0.0298879202988792	0.3064516129032258	0.5408163265306122
6193.389892578125	1.670544474515833	1.481206494352273	27.8793505647727	1.697602647580292	0.783546548950364	1.141876627590576	3383.241025641025	3497.435897435897	0.0273972602739726	0.3002481389578164	0.5459183673469388
6212.921142578125	1.860063450184699	1.329092533576752	27.09074664232486	1.697602647580292	0.783546548950364	1.141876627590576	3381.784615384615	3497.435897435897	0.0323785803237858	0.3101736972704715	0.5293367346938775
6232.452392578125	3.149992059552026	1.168354178677429	27.16458213225717	1.713184998608388	0.3703859742367346	0.7759196508994182	3371.589743589744	3501.831501831502	0.03362391033623911	0.3101736972704715	0.5433673469387754
6251.983642578125	1.942260765646019	0.8044137547242332	27.55862452757671	1.334798074329974	1.203793291464447	1.500747436481281	3391.979487179487	3498.901098901099	0.0286425902864259	0.3225806451612903	0.5306122448979591
6271.514892578125	1.875821569459569	1.442346008690454	27.76539913095467	2.06040722083061	0.3632998064362811	0.7830058186998716	3377.415384615385	3495.970695970696	0.03362391033623911	0.3052109181141439	0.5408163265306122
6291.046142578125	2.342583955223881	1.034048507462687	28.59514925373134	2.06040722083061	0.3632998064362811	0.7830058186998716	3370.133333333333	3501.831501831502	0.0348692403486924	0.3188585607940447	0.5255102040816326
6310.577392578125	2.672302049302842	1.763147113146713	27.68528868532872	1.343036663883443	0.7832889552761903	1.509322294996115	3386.153846153846	3500.3663003663	0.04234122042341221	0.3101736972704715	0.5420918367346939
6330.108642578125	2.153431140968975	1.32823343048705	27.17665695129503	2.044824869802514	0.7764603811499106	1.14896279539103	3373.046153846154	3495.970695970696	0.0348692403486924	0.3114143920595534	0.5446428571428571
6349.639892578125	2.057261306130293	0.4862316635705593	27.37683364294408	1.334798074329974	1.203793291464447	1.500747436481281	3397.805128205128	3500.3663003663	0.0410958904109589	0.3014888337468983	0.5433673469387754
6369.171142578125	1.901082036171076	1.167803685435484	27.21963145645165	1.713184998608388	0.3703859742367346	0.7759196508994182	3375.958974358974	3503.296703296703	0.0448318804483188	0.3076923076923077	0.5395408163265306
6388.702392578125	2.021791692022719	0.6447180006619266	27.52819993380736	2.06040722083061	0.3632998064362811	0.7830058186998716	3370.133333333333	3500.3663003663	0.0323785803237858	0.3101736972704715	0.5433673469387754
6408.233642578125	2.287200498313156	1.323804462131403	27.61955378685969	1.70494640905492	0.7908903104249914	0.7673447923845836	3377.415384615385	3501.831501831502	0.0311332503113325	0.3064516129032258	0.5471938775510203
6427.764892578125	2.076918919351739	0.6783237781051823	28.16762218948178	1.728767349636484	-0.04277460047689488	0.4099626742082601	3362.851282051282	3497.435897435897	0.0286425902864259	0.3064516129032258	0.5318877551020408
6447.296142578125	1.728552116029296	0.4838962376956421	27.6103762304358	1.720528760083016	0.3777297357113619	0.4013878156934256	3370.133333333333	3503.296703296703	0.03362391033623911	0.3027295285359802	0.5369897959183673
6466.827392578125	2.195242437223753	1.166544223624368	27.34557763756326	1.697602647580292	0.783546548950364	1.141876627590576	3381.784615384615	3495.970695970696	0.03362391033623911	0.3163771712158809	0.5267857142857142
6486.358642578125	2.376940572085922	1.280164694232699	27.98353057673008	1.343036663883443	0.7832889552761903	1.509322294996115	3381.784615384615	3498.901098901099	0.037359900373599	0.3225806451612903	0.5420918367346939
6505.889892578125	2.331229781884569	1.363015261674461	27.69847383255397	1.342141835804602	1.211137052939074	1.126215601275288	3396.348717948718	3497.435897435897	0.0398505603985056	0.3163771712158809	0.5318877551020408
6525.421142578125	2.664535090107403	1.565049617790874	27.49503822091261	1.357724186832697	0.7979764782254449	0.7602586245841301	3389.066666666666	3503.296703296703	0.037359900373599	0.3188585607940447	0.5395408163265306
6544.952392578125	2.267200745201034	1.959326222962442	28.0673777037559	1.713184998608388	0.3703859742367346	0.7759196508994182	3371.589743589744	3501.831501831502	0.0398505603985056	0.3188585607940447	0.5420918367346939
6564.483642578125	2.00486669389106	1.399898976149297	28.01010238507036	1.343036663883443	0.7832889552761903	1.509322294996115	3393.435897435897	3498.901098901099	0.0261519302615193	0.3052109181141439	0.5369897959183673
6584.014892578125	2.914954465868084	1.160797407810732	27.92025921892683	2.06040722083061	0.3632998064362811	0.7830058186998716	3374.502564102564	3503.296703296703	0.037359900373599	0.3138957816377171	0.5446428571428571
6603.546142578125	2.512199263873765	1.396195657976214	28.38043420237867	2.399390853499364	0.7767179748240843	0.7815171279854907	3377.415384615385	3503.296703296703	0.0460772104607721	0.3176178660049628	0.5357142857142857
6623.077392578125	1.985777590054022	1.490348018491235	26.96519815087652	1.713184998608388	0.3703859742367346	0.7759196508994182	3381.784615384615	3500.3663003663	0.0211706102117061	0.3188585607940447	0.5408163265306122
6642.608642578125	2.278576771453889	1.206947758524972	27.30522414750283	1.349485597279229	1.218480814413702	0.7516837660692957	3389.066666666666	3501.831501831502	0.0311332503113325	0.3176178660049628	0.5293367346938775
6662.139892578125	1.707567480462495	1.362339656332074	27.76603436679265	1.35038042535807	0.7906327167508176	1.134790459790123	3384.697435897436	3497.435897435897	0.0311332503113325	0.3163771712158809	0.5369897959183673
6681.671142578125	2.46008273412978	1.563089528217283	27.69104717827173	1.697602647580292	0.783546548950364	1.141876627590576	3381.784615384615	3498.901098901099	0.0348692403486924	0.3076923076923077	0.5395408163265306
6701.202392578125	2.245829596651934	1.929715691926633	27.02843080733671	2.067750982305237	0.3706435679109084	0.4084739834938791	3365.764102564102	3500.3663003663	0.0261519302615193	0.3176178660049628	0.5382653061224489
6720.733642578125	2.889083285290287	0.8102272969914378	26.97727030085623	1.697602647580292	0.783546548950364	1.141876627590576	3380.328205128205	3495.970695970696	0.0348692403486924	0.3014888337468983	0.5382653061224489
6740.264892578125	1.465825713172336	1.419616643178955	26.0383356821045	2.075989571858706	-0.04986076827734839	0.4170488420087136	3364.307692307692	3501.831501831502	0.0298879202988792	0.3176178660049628	0.5408163265306122
6759.796142578125	2.285358848194649	1.647966911686204	27.20330883137958	1.70494640905492	0.7908903104249914	0.7673447923845836	3377.415384615385	3507.692307692308	0.04234122042341221	0.3089330024813896	0.5306122448979591
6779.327392578125	2.412914638182478	1.485059947045887	27.49400529541136	1.697602647580292	0.783546548950364	1.141876627590576	3380.328205128205	3498.901098901099	0.0311332503113325	0.3138957816377171	0.5510204081632653
6798.858642578125	1.675773159417505	1.882606148442338	27.73938515576623	1.689364058026824	1.204050885138621	1.133301769075742	3380.328205128205	3497.435897435897	0.0361145703611457	0.3163771712158809	0.5471938775510203
6818.389892578125	2.502086202570837	1.158879022270621	28.11209777293789	1.689364058026824	1.204050885138621	1.133301769075742	3383.241025641025	3498.901098901099	0.04358655043586551	0.3176178660049628	0.5357142857142857
6837.921142578125	2.30190967773792	1.760820028078492	27.91799719215083	1.689364058026824	1.204050885138621	1.133301769075742	3381.784615384615	3495.970695970696	0.04358655043586551	0.315136476426799	0.5382653061224489
6857.452392578125	1.92023519740354	0.9965142100655522	28.34857899344479	2.067750982305237	0.3706435679109084	0.4084739834938791	3364.307692307692	3500.3663003663	0.0286425902864259	0.3126550868486352	0.5459183673469388
6876.983642578125	2.486744456366238	0.5201627324749644	27.98372675250358	1.70494640905492	0.7908903104249914	0.7673447923845836	3381.784615384615	3503.296703296703	0.0311332503113325	0.3138957816377171	0.5408163265306122
6896.514892578125	1.703539871725066	1.445181882967139	27.48181170328614	2.068645810384079	-0.05720452975197569	0.7915806772147062	3375.958974358974	3500.3663003663	0.0286425902864259	0.3138957816377171	0.5382653061224489
6916.046142578125	2.152862631584567	1.045692273610488	27.43077263895117	2.407629443052833	0.3562136386358276	0.7900919865003252	3365.764102564102	3504.761904761905	0.0286425902864259	0.3126550868486352	0.5357142857142857
6935.577392578125	2.500050211656311	0.3324662230692035	26.75337769307967	1.334798074329974	1.203793291464447	1.500747436481281	3383.241025641025	3497.435897435897	0.0298879202988792	0.3176178660049628	0.5459183673469388
6955.108642578125	2.3884548889138	0.7490968574509427	29.09031425490573	2.053063459355983	0.3559560449616538	1.157537653905864	3375.958974358974	3495.970695970696	0.03362391033623911	0.3089330024813896	0.5459183673469388
6974.639892578125	1.917472722225781	1.482757884397754	27.72421156022463	1.690258886105665	0.7762027874757367	1.516408462796569	3386.153846153846	3500.3663003663	0.04234122042341221	0.3138957816377171	0.5446428571428571
6994.171142578125	1.746712387632652	1.565633474259604	27.43665257403967	1.713184998608388	0.3703859742367346	0.7759196508994182	3381.784615384615	3501.831501831502	0.0348692403486924	0.3076923076923077	0.5459183673469388
7013.702392578125	1.79777997752653	1.722501694851921	27.74983051480794	2.067750982305237	0.3706435679109084	0.4084739834938791	3370.133333333333	3501.831501831502	0.04856787048567871	0.315136476426799	0.5382653061224489
7033.233642578125	2.228053669421135	0.3629358571947132	27.70641428052869	1.697602647580292	0.783546548950364	1.141876627590576	3378.871794871795	3498.901098901099	0.0311332503113325	0.3163771712158809	0.548469387755102
7052.764892578125	1.95142097319198	1.244231831721223	27.57681682787778	1.713184998608388	0.3703859742367346	0.7759196508994182	3370.133333333333	3503.296703296703	0.0348692403486924	0.3176178660049628	0.5522959183673469
7072.296142578125	2.886737183182798	0.7710081566416842	26.89918433583157	1.713184998608388	0.3703859742367346	0.7759196508994182	3377.415384615385	3503.296703296703	0.0398505603985056	0.315136476426799	0.5408163265306122
7091.827392578125	3.113737742350479	0.3171358203617109	28.28641796382892	2.06040722083061	0.3632998064362811	0.7830058186998716	3377.415384615385	3501.831501831502	0.0348692403486924	0.3250620347394541	0.5395408163265306
7111.358642578125	2.368412931319796	1.042047341084278	27.79526589157218	3.780041152834785	1.168877639810527	0.8012869406724702	3373.046153846154	3501.831501831502	0.03860523038605231	0.3200992555831266	0.5433673469387754
7130.889892578125	1.947617565338543	1.044132542758312	27.58674572416886	1.697602647580292	0.783546548950364	1.141876627590576	3380.328205128205	3498.901098901099	0.0323785803237858	0.3089330024813896	0.5522959183673469
7150.421142578125	2.492125277582047	1.729566358123545	27.04336418764546	1.35038042535807	0.7906327167508176	1.134790459790123	3381.784615384615	3498.901098901099	0.03860523038605231	0.315136476426799	0.5459183673469388
7169.952392578125	2.18469114993701	1.878102112826426	28.18978871735742	2.084228161412174	-0.4703651044656051	0.4256237005235481	3358.482051282051	3498.901098901099	0.0261519302615193	0.3076923076923077	0.5357142857142857
7189.483642578125	2.60160887488523	1.373766561505776	26.62334384942242	1.342141835804602	1.211137052939074	1.126215601275288	3384.697435897436	3497.435897435897	0.0348692403486924	0.3138957816377171	0.5382653061224489
7209.014892578125	2.494030985095979	1.324563475540751	27.54365244592488	2.06040722083061	0.3632998064362811	0.7830058186998716	3371.589743589744	3500.3663003663	0.0410958904109589	0.3138957816377171	0.5395408163265306
7228.546142578125	2.379759097484679	1.723185641001004	27.68143589989964	1.705841237133761	0.3630422127621073	1.150451486105411	3373.046153846154	3497.435897435897	0.0298879202988792	0.3163771712158809	0.5318877551020408
7248.077392578125	1.976851759176222	1.150579919607969	28.94200803920313	2.777777777777778	-0.05668934240362811	0.05668934240362812	3357.025641025641	3500.3663003663	0.03362391033623911	0.315136476426799	0.5420918367346939
7267.608642578125	2.051874646349796	1.680029639890676	27.99703601093247	1.689364058026824	1.204050885138621	1.133301769075742	3380.328205128205	3495.970695970696	0.0323785803237858	0.3014888337468983	0.5433673469387754
7287.139892578125	2.870444751830974	1.727889855977623	27.21101440223774	1.713184998608388	0.3703859742367346	0.7759196508994182	3377.415384615385	3504.761904761905	0.0361145703611457	0.3188585607940447	0.5459183673469388
7306.671142578125	3.230187581406273	1.169938931949694	27.00610680503064	2.067750982305237	0.3706435679109084	0.4084739834938791	3370.133333333333	3497.435897435897	0.0361145703611457	0.303970223325062	0.5433673469387754
7326.202392578125	2.318546417590161	1.369421001217091	27.05789987829095	2.06040722083061	0.3632998064362811	0.7830058186998716	3373.046153846154	3500.3663003663	0.03362391033623911	0.3163771712158809	0.5433673469387754
7345.733642578125	3.145780285802746	0.4836126502679736	27.63873497320266	1.343036663883443	0.7832889552761903	1.509322294996115	3390.523076923077	3497.435897435897	0.0398505603985056	0.3027295285359802	0.5446428571428571
7365.264892578125	2.294014603751628	1.724403398778639	27.5596601221361	1.720528760083016	0.3777297357113619	0.4013878156934256	3373.046153846154	3501.831501831502	0.04234122042341221	0.3114143920595534	0.5395408163265306
7384.796142578125	2.342263668246749	1.438250672602652	28.1749327397348	2.067750982305237	0.3706435679109084	0.4084739834938791	3377.415384615385	3501.831501831502	0.0286425902864259	0.3114143920595534	0.5369897959183673
7404.327392578125	2.486167939807401	1.247726629726902	27.2273370273098	1.697602647580292	0.783546548950364	1.141876627590576	3378.871794871795	3498.901098901099	0.0298879202988792	0.3076923076923077	0.5497448979591836
7423.858642578125	1.693715068701557	0.8440832986355777	27.59167013644225	1.35038042535807	0.7906327167508176	1.134790459790123	3381.784615384615	3497.435897435897	0.0311332503113325	0.3114143920595534	0.5420918367346939
7443.389892578125	1.947425393152264	1.286653841842291	27.33461581577093	1.334798074329974	1.203793291464447	1.500747436481281	3391.979487179487	3498.901098901099	0.0348692403486924	0.3138957816377171	0.5408163265306122
7462.921142578125	2.574482736531932	1.002786496701044	27.72135032989559	1.713184998608388	0.3703859742367346	0.7759196508994182	3377.415384615385	3500.3663003663	0.03362391033623911	0.3126550868486352	0.5382653061224489
7482.452392578125	1.457244190794952	1.645331216770226	27.46687832297739	2.075094743779865	0.3779873293855357	0.03394214828788659	3368.676923076923	3501.831501831502	0.024906600249066	0.3225806451612903	0.5357142857142857
7501.983642578125	3.339993634296329	1.803033518032157	27.69664819678432	1.713184998608388	0.3703859742367346	0.7759196508994182	3378.871794871795	3501.831501831502	0.0460772104607721	0.3101736972704715	0.5459183673469388
7521.514892578125	2.172888574829714	2.772951898234152	26.70481017658489	2.053063459355983	0.3559560449616538	1.157537653905864	3370.133333333333	3495.970695970696	0.0298879202988792	0.3163771712158809	0.5369897959183673
7541.046142578125	2.372120253080093	1.363407279589179	27.65927204108214	2.068645810384079	-0.05720452975197569	0.7915806772147062	3370.133333333333	3503.296703296703	0.0311332503113325	0.3052109181141439	0.5395408163265306
7560.577392578125	2.384803617374501	1.357001540046549	28.29984599534516	1.35038042535807	0.7906327167508176	1.134790459790123	3380.328205128205	3497.435897435897	0.0323785803237858	0.3114143920595534	0.5369897959183673
7580.108642578125	2.435292522099802	0.8483371100506056	27.16628899493947	1.705841237133761	0.3630422127621073	1.150451486105411	3374.502564102564	3497.435897435897	0.0361145703611457	0.3101736972704715	0.5395408163265306
7599.639892578125	2.666216596737343	1.442988250806056	27.70117491939444	1.35038042535807	0.7906327167508176	1.134790459790123	3380.328205128205	3497.435897435897	0.037359900373599	0.3200992555831266	0.5382653061224489
7619.171142578125	2.331798291268977	1.645556418551022	27.44435814489783	1.689364058026824	1.204050885138621	1.133301769075742	3381.784615384615	3495.970695970696	0.0311332503113325	0.3176178660049628	0.5510204081632653
7638.702392578125	2.925668065253134	1.640234983878889	27.97650161211112	2.075989571858706	-0.04986076827734839	0.4170488420087136	3367.220512820513	3500.3663003663	0.0410958904109589	0.3126550868486352	0.5408163265306122
7658.233642578125	2.434531840529114	0.8083172522580235	27.16827477419768	1.689364058026824	1.204050885138621	1.133301769075742	3380.328205128205	3495.970695970696	0.04358655043586551	0.315136476426799	0.5497448979591836
7677.764892578125	2.594356543462943	1.922042149766191	27.79578502338095	1.713184998608388	0.3703859742367346	0.7759196508994182	3375.958974358974	3500.3663003663	0.037359900373599	0.3200992555831266	0.5522959183673469
7697.296142578125	1.955480610627122	1.120969388572161	27.90306114278394	1.713184998608388	0.3703859742367346	0.7759196508994182	3371.589743589744	3500.3663003663	0.0410958904109589	0.3052109181141439	0.5357142857142857
7716.827392578125	3.075986083530844	0.3555625840753316	28.44374159246685	1.705841237133761	0.3630422127621073	1.150451486105411	3378.871794871795	3495.970695970696	0.024906600249066	0.3014888337468983	0.5433673469387754
7736.358642578125	2.129113352230265	1.017282818738924	26.27171812610766	1.697602647580292	0.783546548950364	1.141876627590576	3381.784615384615	3497.435897435897	0.0398505603985056	0.3188585607940447	0.5395408163265306
7755.889892578125	2.161518387141546	1.122128760702923	27.78712392970769	1.697602647580292	0.783546548950364	1.141876627590576	3371.589743589744	3495.970695970696	0.0211706102117061	0.3188585607940447	0.5420918367346939
7775.421142578125	2.081162721798732	1.322645090000641	27.73549099993594	1.342141835804602	1.211137052939074	1.126215601275288	3381.784615384615	3497.435897435897	0.037359900373599	0.315136476426799	0.5408163265306122
7794.952392578125	2.238254809642773	1.489096897486815	27.09031025131851	2.075989571858706	-0.04986076827734839	0.4170488420087136	3367.220512820513	3500.3663003663	0.024906600249066	0.3200992555831266	0.5446428571428571
7814.483642578125	2.170870766873786	1.319425538615933	28.05744613840668	1.70494640905492	0.7908903104249914	0.7673447923845836	3389.066666666666	3503.296703296703	0.0361145703611457	0.3101736972704715	0.5471938775510203
7834.014892578125	0.8260071023637179	1.204036816988021	27.59631830119787	1.713184998608388	0.3703859742367346	0.7759196508994182	3371.589743589744	3501.831501831502	0.0273972602739726	0.315136476426799	0.5497448979591836
7853.546142578125	1.866565275820469	1.123788581235454	27.62114187645464	2.400285681578205	0.3488698771612003	1.164623821706318	3371.589743589744	3497.435897435897	0.0361145703611457	0.3176178660049628	0.5395408163265306
7873.077392578125	2.812731207161617	-0.04178343796041248	28.17834379604125	1.365962776386166	0.3774721420371881	0.7688334830989646	3380.328205128205	3500.3663003663	0.0286425902864259	0.3163771712158809	0.5382653061224489
7892.608642578125	2.041857671140008	1.321452354643094	27.85476453569065	1.358619014911539	0.3701283805625608	1.143365318304957	3378.871794871795	3497.435897435897	0.0298879202988792	0.3163771712158809	0.548469387755102
7912.139892578125	2.035449762987637	0.01239910960220364	26.76008903977964	1.697602647580292	0.783546548950364	1.141876627590576	3381.784615384615	3498.901098901099	0.024906600249066	0.3114143920595534	0.5459183673469388
7931.671142578125	2.039149077573506	1.343864102235604	25.61358977643969	2.06040722083061	0.3632998064362811	0.7830058186998716	3371.589743589744	3498.901098901099	0.0236612702366127	0.3163771712158809	0.5459183673469388
7951.202392578125	2.671229087929452	1.117224366365597	28.27756336344031	2.067750982305237	0.3706435679109084	0.4084739834938791	3368.676923076923	3501.831501831502	0.04234122042341221	0.3163771712158809	0.5433673469387754
7970.733642578125	3.19257421316166	1.429676323319027	29.03236766809728	2.013660167746323	1.602781530577169	1.880876748773346	3391.979487179487	3497.435897435897	0.0398505603985056	0.3188585607940447	0.5433673469387754
7990.264892578125	2.529628713994406	1.004396272393398	27.56037276066022	1.35038042535807	0.7906327167508176	1.134790459790123	3380.328205128205	3495.970695970696	0.0323785803237858	0.3213399503722084	0.5446428571428571
8009.796142578125	2.66618456803963	1.483408467320052	27.65915326799479	2.068645810384079	-0.05720452975197569	0.7915806772147062	3373.046153846154	3503.296703296703	0.0361145703611457	0.3064516129032258	0.5395408163265306
8029.327392578125	2.147033408600773	0.4021716791578588	27.78283208421413	1.689364058026824	1.204050885138621	1.133301769075742	3384.697435897436	3497.435897435897	0.0323785803237858	0.3188585607940447	0.5433673469387754
8048.858642578125	2.253156161253817	1.683591164349924	27.64088356500758	1.713184998608388	0.3703859742367346	0.7759196508994182	3378.871794871795	3501.831501831502	0.0348692403486924	0.3076923076923077	0.548469387755102
8068.389892578125	2.313854213375184	1.290982720517584	26.90172794824163	1.697602647580292	0.783546548950364	1.141876627590576	3381.784615384615	3498.901098901099	0.03362391033623911	0.3176178660049628	0.5420918367346939
8087.921142578125	2.716233078171375	0.5305220143915617	26.94779856084385	1.70494640905492	0.7908903104249914	0.7673447923845836	3380.328205128205	3501.831501831502	0.0261519302615193	0.3188585607940447	0.5408163265306122
8107.452392578125	2.574482736531932	1.002786496701044	27.72135032989559	2.067750982305237	0.3706435679109084	0.4084739834938791	3368.676923076923	3500.3663003663	0.0361145703611457	0.3200992555831266	0.5408163265306122
8126.983642578125	3.119342764450281	1.243597930412316	27.64020695876839	1.697602647580292	0.783546548950364	1.141876627590576	3381.784615384615	3497.435897435897	0.0286425902864259	0.3188585607940447	0.5382653061224489
8146.514892578125	1.864947826585954	1.165009515192279	27.4990484807721	2.06040722083061	0.3632998064362811	0.7830058186998716	3377.415384615385	3503.296703296703	0.0348692403486924	0.3188585607940447	0.5382653061224489
8166.046142578125	2.54176759042769	1.685134213588709	27.48657864112912	2.076884399937547	-0.4777088659402325	0.8001555357295407	3371.589743589744	3501.831501831502	0.0398505603985056	0.3089330024813896	0.534438775510204
8185.577392578125	2.372152281777806	1.322987063075182	27.70129369248179	1.689364058026824	1.204050885138621	1.133301769075742	3381.784615384615	3497.435897435897	0.03362391033623911	0.3188585607940447	0.534438775510204
8205.108642578125	2.045018336429441	0.9368594260457372	26.3140573954263	1.688469229947983	1.631898982801505	0.7501950753549146	3374.502564102564	3504.761904761905	0.0361145703611457	0.3126550868486352	0.5446428571428571
8224.639892578125	2.227325016548161	0.2824957828881345	27.75042171118655	1.697602647580292	0.783546548950364	1.141876627590576	3381.784615384615	3497.435897435897	0.037359900373599	0.3126550868486352	0.5306122448979591
8244.171142578125	2.527090439700638	1.207698431127624	27.23015688723763	1.342141835804602	1.211137052939074	1.126215601275288	3381.784615384615	3497.435897435897	0.0236612702366127	0.3101736972704715	0.5331632653061225
8263.702392578125	2.156601982042577	1.326631995601392	27.33680043986078	2.075094743779865	0.3779873293855357	0.03394214828788659	3370.133333333333	3501.831501831502	0.0361145703611457	0.3163771712158809	0.5395408163265306
8283.233642578125	2.664094695513847	1.120827594858327	27.91724051416736	1.35038042535807	0.7906327167508176	1.134790459790123	3381.784615384615	3497.435897435897	0.04234122042341221	0.3076923076923077	0.5395408163265306
8302.764892578125	2.546619938131232	1.561471411718233	27.85285882817671	2.052168631277142	0.7838041426245379	0.7744309601850372	3370.133333333333	3500.3663003663	0.0286425902864259	0.3101736972704715	0.5408163265306122
8322.296142578125	1.949419179584908	1.770495363846006	26.9504636153994	2.068645810384079	-0.05720452975197569	0.7915806772147062	3374.502564102564	3501.831501831502	0.0298879202988792	0.3225806451612903	0.548469387755102
8341.827392578125	2.485215086050435	1.450228071018299	26.9771928981701	1.713184998608388	0.3703859742367346	0.7759196508994182	3378.871794871795	3501.831501831502	0.0298879202988792	0.3176178660049628	0.5420918367346939
8361.358642578125	1.788587741282856	1.323103834368928	27.68961656310721	1.366857604465007	-0.05037595562569597	1.151940176819792	3378.871794871795	3495.970695970696	0.04234122042341221	0.3126550868486352	0.5408163265306122
8380.889892578125	1.879945264290137	1.238243132513399	28.17568674866013	1.720528760083016	0.3777297357113619	0.4013878156934256	3375.958974358974	3503.296703296703	0.0361145703611457	0.315136476426799	0.5395408163265306
8400.421142578125	2.440787612367348	1.309366525740397	29.06334742596033	1.697602647580292	0.783546548950364	1.141876627590576	3381.784615384615	3497.435897435897	0.04358655043586551	0.3089330024813896	0.5548469387755102
8419.952392578125	1.671056933679243	0.8344830301283284	28.55169698716717	2.431450383634396	-0.4774512722660587	0.4327098683240017	3361.394871794872	3501.831501831502	0.0286425902864259	0.3126550868486352	0.5420918367346939
8439.483642578125	2.344193397283966	2.002932627634361	27.70673723656396	1.35038042535807	0.7906327167508176	1.134790459790123	3383.241025641025	3497.435897435897	0.0323785803237858	0.3238213399503722	0.5420918367346939
8459.014892578125	2.020776949480068	2.321156422821515	27.88435771784853	2.059512392751769	0.7911479040991651	0.3998991249790446	3373.046153846154	3500.3663003663	0.0448318804483188	0.3200992555831266	0.5395408163265306
8478.546142578125	2.344825964063801	2.204633351482929	27.53666485170713	2.052168631277142	0.7838041426245379	0.7744309601850372	3378.871794871795	3503.296703296703	0.0323785803237858	0.3176178660049628	0.5510204081632653
8498.077392578125	1.461047598648389	1.845430505733137	27.45694942668631	1.697602647580292	0.783546548950364	1.141876627590576	3380.328205128205	3497.435897435897	0.0311332503113325	0.3176178660049628	0.5420918367346939
8517.608642578125	1.957570483152905	1.483550261033887	27.64497389661136	1.680230640394514	2.052403318989762	0.7416202168400801	3383.241025641025	3500.3663003663	0.0398505603985056	0.3225806451612903	0.5420918367346939
8537.139892578125	2.331958434757543	1.443455335981039	27.6544664018961	1.334798074329974	1.203793291464447	1.500747436481281	3383.241025641025	3497.435897435897	0.03362391033623911	0.3126550868486352	0.5433673469387754
8556.671142578125	2.205956036608801	1.645981799692525	27.40182003074755	1.689364058026824	1.204050885138621	1.133301769075742	3383.241025641025	3497.435897435897	0.0311332503113325	0.3188585607940447	0.5522959183673469
8576.202392578125	2.573690026263532	1.003186855422459	27.68131445775415	2.06040722083061	0.3632998064362811	0.7830058186998716	3367.220512820513	3500.3663003663	0.0298879202988792	0.3225806451612903	0.5369897959183673
8595.733642578125	2.628112622242863	1.926037396173638	27.39626038263618	1.70494640905492	0.7908903104249914	0.7673447923845836	3380.328205128205	3503.296703296703	0.0236612702366127	0.3176178660049628	0.5331632653061225
8615.264892578125	2.13507869717934	0.4890174930070679	27.09825069929323	1.689364058026824	1.204050885138621	1.133301769075742	3381.784615384615	3497.435897435897	0.0323785803237858	0.3052109181141439	0.5382653061224489
8634.796142578125	2.07354789891743	1.932551566203318	26.74484337966818	2.399390853499364	0.7767179748240843	0.7815171279854907	3371.589743589744	3500.3663003663	0.0398505603985056	0.3076923076923077	0.5395408163265306
8654.327392578125	2.614356296575064	1.286520388935153	27.34796110648474	1.70494640905492	0.7908903104249914	0.7673447923845836	3386.153846153846	3501.831501831502	0.04358655043586551	0.3126550868486352	0.5459183673469388
8673.858642578125	2.410000026690581	1.163299649819572	27.67003501804283	2.044824869802514	0.7764603811499106	1.14896279539103	3373.046153846154	3495.970695970696	0.0286425902864259	0.3076923076923077	0.5318877551020408
8693.389892578125	1.890819007163752	1.515579626011573	28.4420373988427	2.408524271131673	-0.07163445902705651	1.173198680221152	3358.482051282051	3482.783882783883	0.0361145703611457	0.3126550868486352	0.5331632653061225
8712.921142578125	2.659402491298871	1.04238931415882	27.76106858411804	2.06040722083061	0.3632998064362811	0.7830058186998716	3371.589743589744	3501.831501831502	0.0398505603985056	0.3200992555831266	0.5433673469387754
8732.452392578125	2.404290911323212	1.368203243439455	27.17967565605449	2.068645810384079	-0.05720452975197569	0.7915806772147062	3371.589743589744	3500.3663003663	0.0311332503113325	0.3114143920595534	0.5382653061224489
8751.983642578125	1.541787608363761	1.159871578267461	28.01284217325391	2.786016367331246	-0.4771936785918849	0.06526420091846263	3357.025641025641	3500.3663003663	0.024906600249066	0.3027295285359802	0.5446428571428571
8771.514892578125	2.399953191392822	2.238239128926185	28.17608710738155	1.697602647580292	0.783546548950364	1.141876627590576	3371.589743589744	3497.435897435897	0.037359900373599	0.3176178660049628	0.5318877551020408
8791.046142578125	2.412538300984349	0.9599974910853459	28.00025089146542	2.059512392751769	0.7911479040991651	0.3998991249790446	3380.328205128205	3503.296703296703	0.0361145703611457	0.3138957816377171	0.5471938775510203
8810.577392578125	1.955000180161425	1.727272636282109	27.27273637178912	1.689364058026824	1.204050885138621	1.133301769075742	3381.784615384615	3497.435897435897	0.0361145703611457	0.3126550868486352	0.5471938775510203
8830.108642578125	1.809948714047787	0.9697228716930373	27.02771283069631	2.044824869802514	0.7764603811499106	1.14896279539103	3378.871794871795	3495.970695970696	0.0460772104607721	0.3176178660049628	0.5331632653061225
8849.639892578125	2.29433489072876	1.320201233638674	27.97987663613264	1.697602647580292	0.783546548950364	1.141876627590576	3383.241025641025	3498.901098901099	0.03860523038605231	0.3225806451612903	0.534438775510204
8869.171142578125	2.00514694499605	2.046222081651827	27.37779183481733	2.044824869802514	0.7764603811499106	1.14896279539103	3383.241025641025	3495.970695970696	0.024906600249066	0.303970223325062	0.5331632653061225
8888.702392578125	1.385864567986249	1.518081868020413	28.19181319795871	2.067750982305237	0.3706435679109084	0.4084739834938791	3365.764102564102	3500.3663003663	0.03362391033623911	0.3101736972704715	0.5408163265306122
8908.233642578125	1.721868293991417	1.314712982832618	28.5287017167382	2.075989571858706	-0.04986076827734839	0.4170488420087136	3361.394871794872	3500.3663003663	0.0410958904109589	0.315136476426799	0.5433673469387754
8927.764892578125	2.427205275927231	1.054441779834732	26.55582201652681	1.705841237133761	0.3630422127621073	1.150451486105411	3374.502564102564	3494.505494505494	0.04358655043586551	0.303970223325062	0.5382653061224489
8947.296142578125	1.665756184207717	1.524028863194756	27.59711368052442	1.688469229947983	1.631898982801505	0.7501950753549146	3383.241025641025	3503.296703296703	0.04234122042341221	0.315136476426799	0.5471938775510203
8966.827392578125	1.836676662289411	1.239052190762924	28.09478092370764	1.70494640905492	0.7908903104249914	0.7673447923845836	3378.871794871795	3500.3663003663	0.0298879202988792	0.315136476426799	0.5408163265306122
8986.358642578125	2.782266077071723	0.8010440688189953	27.89559311810049	1.358619014911539	0.3701283805625608	1.143365318304957	3378.871794871795	3503.296703296703	0.04234122042341221	0.3176178660049628	0.5497448979591836
9005.889892578125	2.385241843358316	0.4081270151388979	27.18729848611022	2.06040722083061	0.3632998064362811	0.7830058186998716	3381.784615384615	3501.831501831502	0.024906600249066	0.3076923076923077	0.5382653061224489
9025.421142578125	2.813483881557876	1.008341473960669	27.16585260393313	1.35038042535807	0.7906327167508176	1.134790459790123	3380.328205128205	3495.970695970696	0.0311332503113325	0.3052109181141439	0.5331632653061225
9044.952392578125	1.396137772777742	1.553297421156023	28.67025788439775	2.06040722083061	0.3632998064362811	0.7830058186998716	3367.220512820513	3500.3663003663	0.0236612702366127	0.315136476426799	0.5408163265306122
9064.483642578125	1.914558110733884	1.160997587171439	27.90024128285611	1.690258886105665	0.7762027874757367	1.516408462796569	3387.610256410256	3495.970695970696	0.0348692403486924	0.3126550868486352	0.5433673469387754
9084.014892578125	2.415957364465228	1.645139378216215	27.48606217837849	1.689364058026824	1.204050885138621	1.133301769075742	3378.871794871795	3498.901098901099	0.03860523038605231	0.3163771712158809	0.5318877551020408
9103.546142578125	2.164625170819721	1.201367758845259	27.86322411547413	2.043930041723673	1.204308478812795	0.7658561016702027	3381.784615384615	3501.831501831502	0.0286425902864259	0.3163771712158809	0.5459183673469388
9123.077392578125	2.263170967853864	0.6490719017573081	27.09280982426921	1.697602647580292	0.783546548950364	1.141876627590576	3383.241025641025	3497.435897435897	0.03362391033623911	0.315136476426799	0.5446428571428571
9142.608642578125	2.257183769991245	1.600748937714859	27.92510622851408	1.696707819501451	1.211394646613248	0.7587699338697491	3378.871794871795	3498.901098901099	0.0298879202988792	0.3138957816377171	0.5395408163265306
9162.139892578125	2.291572415551	1.806444907970875	27.35550920291248	1.35038042535807	0.7906327167508176	1.134790459790123	3384.697435897436	3498.901098901099	0.0398505603985056	0.3138957816377171	0.5395408163265306
9181.671142578125	2.376083804422096	1.361405485982107	27.85945140178934	1.70494640905492	0.7908903104249914	0.7673447923845836	3377.415384615385	3500.3663003663	0.0361145703611457	0.3176178660049628	0.5331632653061225
9201.202392578125	2.327834739926975	1.647558212158094	27.24417878419063	2.067750982305237	0.3706435679109084	0.4084739834938791	3365.764102564102	3501.831501831502	0.0361145703611457	0.315136476426799	0.5318877551020408
9220.733642578125	2.063819181987061	1.210192332329768	26.98076676702326	1.705841237133761	0.3630422127621073	1.150451486105411	3374.502564102564	3498.901098901099	0.037359900373599	0.3138957816377171	0.5420918367346939
9240.264892578125	1.101967195940896	1.17156538925544	26.84346107445605	1.365067948307325	0.8053202397000722	0.3857267893781376	3378.871794871795	3504.761904761905	0.0398505603985056	0.315136476426799	0.5382653061224489
9259.796142578125	2.541895705218543	1.523453347532723	27.65466524672774	2.406734614973991	0.7840617362987116	0.4069852927794981	3371.589743589744	3503.296703296703	0.0298879202988792	0.3064516129032258	0.5459183673469388
9279.327392578125	2.420777683471057	1.561896792859736	27.81032071402643	1.35038042535807	0.7906327167508176	1.134790459790123	3383.241025641025	3495.970695970696	0.03362391033623911	0.3089330024813896	0.5395408163265306
9298.858642578125	2.851934333162514	2.483871548907822	27.61284510921786	2.748402731879268	-0.08606438830213734	1.554816683227598	3370.133333333333	3495.970695970696	0.0361145703611457	0.3064516129032258	0.5382653061224489
9318.389892578125	2.292084874714411	1.159721443746931	28.02785562530695	1.697602647580292	0.783546548950364	1.141876627590576	3380.328205128205	3497.435897435897	0.04358655043586551	0.3089330024813896	0.5382653061224489
9337.921142578125	3.201980474505157	1.163141174492345	27.68588255076548	1.704051580976079	1.218738408087876	0.3842380986637566	3374.502564102564	3498.901098901099	0.0311332503113325	0.3163771712158809	0.5510204081632653
9357.452392578125	2.152230064804732	0.8439915497619202	27.600845023808	2.067750982305237	0.3706435679109084	0.4084739834938791	3364.307692307692	3500.3663003663	0.03362391033623911	0.3138957816377171	0.5318877551020408
9376.983642578125	2.459536077658916	0.857136661115026	26.28633388849743	1.696707819501451	1.211394646613248	0.7587699338697491	3387.610256410256	3503.296703296703	0.0323785803237858	0.3138957816377171	0.5471938775510203
9396.514892578125	2.389293473619029	1.294969626118335	26.50303738816646	1.697602647580292	0.783546548950364	1.141876627590576	3373.046153846154	3495.970695970696	0.04856787048567871	0.3101736972704715	0.5382653061224489
9416.046142578125	1.795882277187026	1.117399523306216	28.26004766937843	2.391152263945896	1.197222311012341	0.7729422694706561	3377.415384615385	3503.296703296703	0.0348692403486924	0.3052109181141439	0.5306122448979591
9435.577392578125	1.272887674022591	0.8865887168236075	27.34112831763927	1.697602647580292	0.783546548950364	1.141876627590576	3380.328205128205	3495.970695970696	0.0261519302615193	0.315136476426799	0.5395408163265306
9455.108642578125	1.775367896301753	1.006548200521	27.34517994789999	1.019635382242785	-0.04328978782524245	1.144854009019338	3380.328205128205	3500.3663003663	0.0286425902864259	0.3114143920595534	0.5459183673469388
9474.639892578125	2.923546164029637	1.31807432793116	28.19256720688404	1.70494640905492	0.7908903104249914	0.7673447923845836	3378.871794871795	3501.831501831502	0.04358655043586551	0.3188585607940447	0.5420918367346939
9494.171142578125	2.129820152189695	1.521134603271198	27.88653967288024	2.067750982305237	0.3706435679109084	0.4084739834938791	3374.502564102564	3497.435897435897	0.0298879202988792	0.3188585607940447	0.5420918367346939
9513.702392578125	2.336306330472103	0.9564109442060089	28.35890557939914	2.083333333333333	-0.04251700680272109	0.04251700680272109	3357.025641025641	3498.901098901099	0.04234122042341221	0.3188585607940447	0.5510204081632653
9533.233642578125	2.642539381952896	0.3236333087779986	27.63666912220016	1.35038042535807	0.7906327167508176	1.134790459790123	3381.784615384615	3497.435897435897	0.0398505603985056	0.3213399503722084	0.5446428571428571
9552.764892578125	2.15368737055068	1.004871698375077	27.51283016249226	1.70494640905492	0.7908903104249914	0.7673447923845836	3383.241025641025	3506.227106227106	0.037359900373599	0.3188585607940447	0.5382653061224489
9572.296142578125	2.052066818536075	1.437508340806696	28.24916591933039	2.052168631277142	0.7838041426245379	0.7744309601850372	3375.958974358974	3500.3663003663	0.03362391033623911	0.315136476426799	0.5471938775510203
9591.827392578125	1.831824314585869	1.3627149926334	27.72850073666005	2.044824869802514	0.7764603811499106	1.14896279539103	3374.502564102564	3497.435897435897	0.0323785803237858	0.3213399503722084	0.5459183673469388
9611.358642578125	1.903043793906007	1.692065423953196	26.79345760468046	2.415868032606301	-0.06429069755242921	0.7986668450151597	3373.046153846154	3494.505494505494	0.0323785803237858	0.3126550868486352	0.5535714285714285
9630.889892578125	2.406701070826127	1.326581950761216	27.34180492387846	1.682020296552197	1.196707123663994	1.507833604281734	3386.153846153846	3500.3663003663	0.04234122042341221	0.3188585607940447	0.5369897959183673
9650.421142578125	2.735762576601969	0.8842949949821708	27.57050050178293	1.689364058026824	1.204050885138621	1.133301769075742	3380.328205128205	3495.970695970696	0.0323785803237858	0.315136476426799	0.5395408163265306
9669.952392578125	1.546191554299319	1.602091807592937	27.79081924070634	2.068645810384079	-0.05720452975197569	0.7915806772147062	3359.938461538462	3498.901098901099	0.0348692403486924	0.3114143920595534	0.5535714285714285
9689.483642578125	1.705509636634425	0.9593385673563515	28.06614326436487	1.697602647580292	0.783546548950364	1.141876627590576	3381.784615384615	3495.970695970696	0.0323785803237858	0.3138957816377171	0.5255102040816326
9709.014892578125	2.914634178890953	1.564999572950697	27.50004270493028	1.357724186832697	0.7979764782254449	0.7602586245841301	3378.871794871795	3500.3663003663	0.0361145703611457	0.3101736972704715	0.5408163265306122
9728.546142578125	1.993960922319732	1.162982699165119	27.70173008348814	1.349485597279229	1.218480814413702	0.7516837660692957	3378.871794871795	3500.3663003663	0.0298879202988792	0.3101736972704715	0.5420918367346939
9748.077392578125	2.771928814884803	0.8466689487113788	27.33310512886213	1.689364058026824	1.204050885138621	1.133301769075742	3380.328205128205	3495.970695970696	0.0298879202988792	0.3138957816377171	0.5408163265306122
9767.608642578125	2.152734516793714	1.207373139666474	27.26268603335255	2.052168631277142	0.7838041426245379	0.7744309601850372	3381.784615384615	3495.970695970696	0.0224159402241594	0.3052109181141439	0.5369897959183673
9787.139892578125	3.742916986953644	0.3554291311681935	28.45708688318066	1.35038042535807	0.7906327167508176	1.134790459790123	3378.871794871795	3495.970695970696	0.0311332503113325	0.303970223325062	0.534438775510204
9806.671142578125	2.243211250613884	0.2340683919458502	28.59316080541499	1.713184998608388	0.3703859742367346	0.7759196508994182	3378.871794871795	3500.3663003663	0.03362391033623911	0.3163771712158809	0.5369897959183673
9826.202392578125	2.614580497459056	1.003578873337177	27.64211266628232	2.06040722083061	0.3632998064362811	0.7830058186998716	3373.046153846154	3500.3663003663	0.0323785803237858	0.3089330024813896	0.5420918367346939
9845.733642578125	3.075569710460573	0.8810253987572867	27.89746012427135	2.06040722083061	0.3632998064362811	0.7830058186998716	3380.328205128205	3501.831501831502	0.0323785803237858	0.3138957816377171	0.5382653061224489
9865.264892578125	2.044932426120471	1.441111569299426	27.88884307005744	1.704051580976079	1.218738408087876	0.3842380986637566	3378.871794871795	3501.831501831502	0.0410958904109589	0.3064516129032258	0.534438775510204
9884.796142578125	3.206072140638011	0.9994585148292874	28.0541485170713	1.356829358753856	1.225824575888329	0.3771519308633031	3378.871794871795	3503.296703296703	0.0323785803237858	0.3138957816377171	0.5497448979591836
9904.327392578125	2.488802300194307	0.9231638214506868	27.68361785493135	1.697602647580292	0.783546548950364	1.141876627590576	3383.241025641025	3497.435897435897	0.0273972602739726	0.315136476426799	0.548469387755102
9923.858642578125	1.958643444526295	2.129473007815003	27.05269921849978	1.691153714184506	0.3483546898128527	1.899515156517396	3375.958974358974	3498.901098901099	0.0398505603985056	0.3188585607940447	0.5408163265306122
9943.389892578125	2.176956219439284	1.639584400956591	28.04155990434096	1.35038042535807	0.7906327167508176	1.134790459790123	3381.784615384615	3497.435897435897	0.03362391033623911	0.3200992555831266	0.5446428571428571
9962.921142578125	2.22770135374629	0.8075582388486753	27.24417611513249	1.70494640905492	0.7908903104249914	0.7673447923845836	3380.328205128205	3501.831501831502	0.03860523038605231	0.3188585607940447	0.5357142857142857
9982.452392578125	2.709827338628744	0.6145653171908698	26.54346828091303	2.075989571858706	-0.04986076827734839	0.4170488420087136	3361.394871794872	3498.901098901099	0.0361145703611457	0.3163771712158809	0.5369897959183673
10001.98364257813	2.002456534388145	1.441520268827536	27.84797311724639	1.689364058026824	1.204050885138621	1.133301769075742	3381.784615384615	3495.970695970696	0.0398505603985056	0.315136476426799	0.5433673469387754
10021.51489257813	2.18950129315867	1.411868033758247	26.81319662417526	1.720528760083016	0.3777297357113619	0.4013878156934256	3373.046153846154	3501.831501831502	0.0273972602739726	0.3188585607940447	0.5408163265306122
10041.04614257813	2.200887495195695	1.042481063032477	27.75189369675229	1.696707819501451	1.211394646613248	0.7587699338697491	3390.523076923077	3506.227106227106	0.0236612702366127	0.315136476426799	0.5408163265306122
10060.57739257813	2.521355134200243	-0.9501793607071938	27.01793607071937	2.06040722083061	0.3632998064362811	0.7830058186998716	3378.871794871795	3500.3663003663	0.0410958904109589	0.3200992555831266	0.5433673469387754
10080.10864257813	1.73713580701642	1.651278211944569	26.8721788055431	2.06040722083061	0.3632998064362811	0.7830058186998716	3364.307692307692	3498.901098901099	0.0286425902864259	0.3163771712158809	0.5497448979591836
10099.63989257813	2.46008273412978	1.563089528217283	27.69104717827173	1.697602647580292	0.783546548950364	1.141876627590576	3371.589743589744	3498.901098901099	0.03362391033623911	0.3176178660049628	0.5395408163265306
10119.17114257813	1.830551173851771	1.969418599064762	27.0581400935238	2.044824869802514	0.7764603811499106	1.14896279539103	3380.328205128205	3498.901098901099	0.0323785803237858	0.3176178660049628	0.5408163265306122
10138.70239257813	1.446370447921338	1.367994723272052	27.20052767279482	2.075989571858706	-0.04986076827734839	0.4170488420087136	3362.851282051282	3500.3663003663	0.0311332503113325	0.315136476426799	0.5369897959183673
10158.23364257813	1.901146093566502	1.08696325240749	27.30367475925096	1.690258886105665	0.7762027874757367	1.516408462796569	3389.066666666666	3495.970695970696	0.0361145703611457	0.3176178660049628	0.534438775510204
10177.76489257813	1.553700115303312	0.7304544872205497	26.95455127794504	1.365962776386166	0.3774721420371881	0.7688334830989646	3374.502564102564	3500.3663003663	0.0174346201743462	0.3114143920595534	0.5471938775510203
10197.29614257813	2.606375312279803	1.754355902888989	28.56440971110115	1.349485597279229	1.218480814413702	0.7516837660692957	3384.697435897436	3504.761904761905	0.0273972602739726	0.3176178660049628	0.5420918367346939
10216.82739257813	1.923846433070698	1.439134798112442	28.08652018875579	1.35038042535807	0.7906327167508176	1.134790459790123	3383.241025641025	3495.970695970696	0.03362391033623911	0.3188585607940447	0.5395408163265306
10236.35864257813	1.736791498516004	1.085795539470032	27.42044605299682	1.358619014911539	0.3701283805625608	1.143365318304957	3380.328205128205	3501.831501831502	0.037359900373599	0.3126550868486352	0.5357142857142857
10255.88989257813	2.575683812696175	1.487028377426174	27.29716225738262	1.682020296552197	1.196707123663994	1.507833604281734	3391.979487179487	3498.901098901099	0.03860523038605231	0.3176178660049628	0.5267857142857142
10275.42114257813	2.827752666389085	1.00113501697521	27.88649830247902	1.697602647580292	0.783546548950364	1.141876627590576	3381.784615384615	3497.435897435897	0.0286425902864259	0.3163771712158809	0.5408163265306122
10294.95239257813	2.2867601037196	0.8795824391988556	28.04175608011445	2.06040722083061	0.3632998064362811	0.7830058186998716	3373.046153846154	3501.831501831502	0.04234122042341221	0.3138957816377171	0.5357142857142857
10314.48364257813	2.092476859265902	2.044203606431363	27.57963935686375	2.06040722083061	0.3632998064362811	0.7830058186998716	3378.871794871795	3500.3663003663	0.0186799501867995	0.3114143920595534	0.5446428571428571
10334.01489257813	2.31775370732176	1.369821359938505	27.01786400614951	1.689364058026824	1.204050885138621	1.133301769075742	3384.697435897436	3500.3663003663	0.04358655043586551	0.3126550868486352	0.534438775510204
10353.54614257813	2.838121957273717	0.9150899205688301	28.49100794311703	2.052168631277142	0.7838041426245379	0.7744309601850372	3383.241025641025	3507.692307692308	0.0323785803237858	0.3076923076923077	0.5433673469387754
10373.07739257813	2.389776072694468	2.081762926248586	27.82370737514146	1.697602647580292	0.783546548950364	1.141876627590576	3383.241025641025	3497.435897435897	0.0311332503113325	0.3163771712158809	0.5331632653061225
10392.60864257813	2.409839883202016	1.365400732389555	27.45992676104456	1.366857604465007	-0.05037595562569597	1.151940176819792	3365.764102564102	3497.435897435897	0.03860523038605231	0.3188585607940447	0.5369897959183673
10412.13989257813	2.410344335190998	1.728782322294109	27.12176777058912	1.334798074329974	1.203793291464447	1.500747436481281	3393.435897435897	3498.901098901099	0.04234122042341221	0.3052109181141439	0.5433673469387754
10431.67114257813	3.131361533267141	1.075911683535114	28.40883164648859	2.423211794080928	-0.05694693607780191	0.4241350098091671	3371.589743589744	3500.3663003663	0.03362391033623911	0.3076923076923077	0.5420918367346939
10451.20239257813	2.148963137637991	0.9668536341895673	27.31463658104328	2.067750982305237	0.3706435679109084	0.4084739834938791	3371.589743589744	3500.3663003663	0.0236612702366127	0.3126550868486352	0.5433673469387754
10470.73364257813	2.280890844863665	1.286587115388722	27.34128846112784	1.713184998608388	0.3703859742367346	0.7759196508994182	3380.328205128205	3501.831501831502	0.0298879202988792	0.315136476426799	0.5446428571428571
10490.26489257813	2.37003038055431	1.000826407127453	27.91735928725472	1.697602647580292	0.783546548950364	1.141876627590576	3384.697435897436	3501.831501831502	0.03362391033623911	0.3114143920595534	0.5510204081632653
10509.79614257813	2.735442289624837	1.288497160122136	27.15028398778639	1.697602647580292	0.783546548950364	1.141876627590576	3383.241025641025	3497.435897435897	0.0273972602739726	0.315136476426799	0.5459183673469388
10529.32739257813	1.619669056808234	1.081816974675976	27.81830253240236	1.713184998608388	0.3703859742367346	0.7759196508994182	3377.415384615385	3498.901098901099	0.0261519302615193	0.3188585607940447	0.548469387755102
10548.85864257813	2.036468842749771	1.122153783123012	27.78462168769885	1.713184998608388	0.3703859742367346	0.7759196508994182	3378.871794871795	3500.3663003663	0.0361145703611457	0.3126550868486352	0.5395408163265306
10568.38989257813	2.750599870817586	1.159629694873273	28.03703051267269	1.35038042535807	0.7906327167508176	1.134790459790123	3380.328205128205	3497.435897435897	0.0273972602739726	0.3188585607940447	0.5459183673469388
10587.92114257813	2.702190662833899	1.647883503619243	27.21164963807572	1.358619014911539	0.3701283805625608	1.143365318304957	3378.871794871795	3495.970695970696	0.0298879202988792	0.315136476426799	0.5318877551020408
10607.45239257813	1.657797052825999	1.568452666922896	27.15473330771038	2.075989571858706	-0.04986076827734839	0.4170488420087136	3368.676923076923	3500.3663003663	0.0311332503113325	0.3200992555831266	0.534438775510204
10626.98364257813	2.651507417312579	1.005972684858967	27.4027315141033	2.431450383634396	-0.4774512722660587	0.4327098683240017	3355.569230769231	3497.435897435897	0.037359900373599	0.3225806451612903	0.5357142857142857
10646.51489257813	2.101034360120001	0.8488041952255889	27.11958047744112	1.696707819501451	1.211394646613248	0.7587699338697491	3374.502564102564	3501.831501831502	0.0224159402241594	0.3200992555831266	0.534438775510204
10666.04614257813	2.38063771806205	1.218533139025901	26.14668609740995	1.697602647580292	0.783546548950364	1.141876627590576	3383.241025641025	3497.435897435897	0.0323785803237858	0.3076923076923077	0.5395408163265306
10685.57739257813	2.055934283784938	1.556767196741614	28.32328032583862	1.697602647580292	0.783546548950364	1.141876627590576	3375.958974358974	3497.435897435897	0.0261519302615193	0.3138957816377171	0.534438775510204
10705.10864257813	2.113653667018983	0.9232388887109519	27.67611112890483	1.720528760083016	0.3777297357113619	0.4013878156934256	3374.502564102564	3497.435897435897	0.0361145703611457	0.3176178660049628	0.5382653061224489
10724.63989257813	2.327458402728845	1.122495756197553	27.7504243802447	1.697602647580292	0.783546548950364	1.141876627590576	3384.697435897436	3497.435897435897	0.0323785803237858	0.3176178660049628	0.5318877551020408
10744.17114257813	2.456975950451605	1.483850530074947	27.61494699250529	1.689364058026824	1.204050885138621	1.133301769075742	3383.241025641025	3497.435897435897	0.04234122042341221	0.3200992555831266	0.5420918367346939
10763.70239257813	2.091051582217667	1.842903241304209	27.70967586957914	2.075989571858706	-0.04986076827734839	0.4170488420087136	3367.220512820513	3501.831501831502	0.03362391033623911	0.315136476426799	0.5395408163265306
10783.23364257813	1.860223593673265	1.126991451006769	27.30085489932313	1.697602647580292	0.783546548950364	1.141876627590576	3380.328205128205	3497.435897435897	0.0361145703611457	0.3188585607940447	0.5293367346938775
10802.76489257813	1.98045281905921	1.21020901394316	26.97909860568403	1.689364058026824	1.204050885138621	1.133301769075742	3383.241025641025	3497.435897435897	0.0311332503113325	0.3213399503722084	0.5459183673469388
10822.29614257813	2.382265343080734	1.560303698780775	27.96963012192257	2.06040722083061	0.3632998064362811	0.7830058186998716	3375.958974358974	3500.3663003663	0.0286425902864259	0.3176178660049628	0.5331632653061225
10841.82739257813	2.403057806461256	0.9243815792283221	27.56184207716781	1.689364058026824	1.204050885138621	1.133301769075742	3381.784615384615	3498.901098901099	0.0348692403486924	0.3126550868486352	0.534438775510204
10861.35864257813	3.490944219353874	0.720061842077168	27.99381579228322	2.06040722083061	0.3632998064362811	0.7830058186998716	3367.220512820513	3501.831501831502	0.0348692403486924	0.3076923076923077	0.5612244897959183
10880.88989257813	2.190896710118933	3.046685163239596	27.3314836760404	1.35038042535807	0.7906327167508176	1.134790459790123	3381.784615384615	3497.435897435897	0.03860523038605231	0.3101736972704715	0.5382653061224489
10900.42114257813	2.351918151997523	1.858458845792497	26.15411542075033	2.075989571858706	-0.04986076827734839	0.4170488420087136	3365.764102564102	3500.3663003663	0.0410958904109589	0.3126550868486352	0.5433673469387754
10919.95239257813	2.176988248136997	1.599164184442594	28.08358155574061	2.068645810384079	-0.05720452975197569	0.7915806772147062	3370.133333333333	3501.831501831502	0.0236612702366127	0.3138957816377171	0.5522959183673469
10939.48364257813	3.173204858219632	0.8738022601584353	28.61977398415647	1.70494640905492	0.7908903104249914	0.7673447923845836	3380.328205128205	3501.831501831502	0.0298879202988792	0.3101736972704715	0.5420918367346939
10959.01489257813	2.93746046457626	0.3623937047594645	27.76062952405355	1.697602647580292	0.783546548950364	1.141876627590576	3380.328205128205	3498.901098901099	0.0361145703611457	0.3089330024813896	0.5433673469387754
