Time Stamp	Accelerometer X	Accelerometer Y	Accelerometer Z	Gyroscope X	Gyroscope Y	Gyroscope Z	VSenseReg	VSenseBatt	Magnetometer X	Magnetometer Y	Magnetometer Z
1454.132080078125	2.500500782034036	1.15967973971345	28.03202602865501	-117.5600522209324	115.40218029112	-1.288458133387117	3365.764102564102	3494.505494505494	0.0186799501867995	0.3250620347394541	0.548469387755102
1473.663330078125	2.152069921316166	1.046092632331903	27.39073676680973	-5.63794145109024	4.318422046689824	-0.1991272699556013	3394.892307692307	3506.227106227106	0.0211706102117061	0.3200992555831266	0.5280612244897959
1493.194580078125	2.4135151762646	1.727180887408451	27.28191125915487	2.368226151443172	1.603039124251343	1.513431081367807	3383.241025641025	3500.3663003663	0.0199252801992528	0.3275434243176179	0.534438775510204
1512.725830078125	1.941211825795913	1.12817584555762	27.18241544423804	2.037481108327887	0.7691166196752832	1.523494630597022	3402.174358974359	3501.831501831502	0.0186799501867995	0.3300248138957816	0.5331632653061225
1532.257080078125	1.791628298955865	0.09008671769905841	26.99132823009416	0.9866810240289108	1.638727556927785	1.11055457496	3383.241025641025	3500.3663003663	0.0311332503113325	0.3225806451612903	0.5382653061224489
1551.788330078125	2.602441621025772	0.3228409321418659	27.71590678581342	2.06040722083061	0.3632998064362811	0.7830058186998716	3374.502564102564	3503.296703296703	0.0174346201743462	0.3250620347394541	0.534438775510204
1571.319580078125	2.112764870657443	1.044899896974356	27.51001030256443	1.349485597279229	1.218480814413702	0.7516837660692957	3394.892307692307	3506.227106227106	0.0348692403486924	0.3275434243176179	0.5420918367346939
1590.850830078125	2.475104193357248	2.606007983152905	27.3992016847095	1.70494640905492	0.7908903104249914	0.7673447923845836	3386.153846153846	3503.296703296703	0.0161892901618929	0.3287841191066998	0.5318877551020408
1610.382080078125	1.955096266254564	1.60601198674012	27.39880132598809	1.70494640905492	0.7908903104249914	0.7673447923845836	3380.328205128205	3503.296703296703	0.0261519302615193	0.3275434243176179	0.5331632653061225
1629.913330078125	1.896005487583542	1.574408002903936	26.55919970960647	1.342141835804602	1.211137052939074	1.126215601275288	3389.066666666666	3501.831501831502	0.0224159402241594	0.3275434243176179	0.534438775510204
1649.444580078125	2.02899014183375	0.560274339141204	27.97256608587961	1.342141835804602	1.211137052939074	1.126215601275288	3387.610256410256	3500.3663003663	0.024906600249066	0.3275434243176179	0.5331632653061225
1668.975830078125	3.042061854087929	1.563773474366366	27.62265256336344	2.061302048909451	-0.06454829122660299	1.166112512420699	3365.764102564102	3490.10989010989	0.0298879202988792	0.3287841191066998	0.5280612244897959
1688.507080078125	1.785859463412551	3.162023840027332	27.79761599726689	2.01187051158864	2.458477725902938	1.114663361331692	3386.153846153846	3501.831501831502	0.0211706102117061	0.3325062034739454	0.5267857142857142
1708.038330078125	1.739137600623492	1.125014679819786	27.49853201802148	2.067750982305237	0.3706435679109084	0.4084739834938791	3365.764102564102	3501.831501831502	0.0161892901618929	0.3163771712158809	0.534438775510204
1727.569580078125	2.235972764930712	1.369037324109069	27.09626758909316	1.342141835804602	1.211137052939074	1.126215601275288	3386.153846153846	3498.901098901099	0.0236612702366127	0.3238213399503722	0.5306122448979591
1747.100830078125	2.894504142378238	0.9691056519975233	27.08943480024769	1.70494640905492	0.7908903104249914	0.7673447923845836	3378.871794871795	3504.761904761905	0.0298879202988792	0.326302729528536	0.5459183673469388
1766.632080078125	1.732067265603314	1.047777475284522	27.22225247154784	1.365962776386166	0.3774721420371881	0.7688334830989646	3377.415384615385	3503.296703296703	0.0286425902864259	0.337468982630273	0.534438775510204
1786.163330078125	2.161230128862127	1.485910709328892	27.4089290671108	1.70494640905492	0.7908903104249914	0.7673447923845836	3380.328205128205	3503.296703296703	0.0224159402241594	0.3275434243176179	0.5293367346938775
1805.694580078125	2.846169167574147	1.759510521427199	28.04894785728012	1.342141835804602	1.211137052939074	1.126215601275288	3381.784615384615	3498.901098901099	0.0211706102117061	0.3287841191066998	0.5306122448979591
1825.225830078125	1.41274248393227	1.202318610808618	27.76813891913821	1.696707819501451	1.211394646613248	0.7587699338697491	3378.871794871795	3504.761904761905	0.0149439601494396	0.326302729528536	0.5318877551020408
1844.757080078125	2.82454979661777	1.043156668374864	27.68433316251361	1.689364058026824	1.204050885138621	1.133301769075742	3389.066666666666	3500.3663003663	0.012453300124533	0.3325062034739454	0.524234693877551
1864.288330078125	2.078912705784383	1.162165300108898	27.78346998911024	2.067750982305237	0.3706435679109084	0.4084739834938791	3371.589743589744	3503.296703296703	0.0199252801992528	0.3238213399503722	0.5293367346938775
1883.819580078125	2.627640198951594	1.522235589755087	27.77644102449128	1.689364058026824	1.204050885138621	1.133301769075742	3391.979487179487	3500.3663003663	0.024906600249066	0.3325062034739454	0.5331632653061225
1903.350830078125	2.330535326319049	2.635251518694084	28.47484813059168	1.70494640905492	0.7908903104249914	0.7673447923845836	3381.784615384615	3497.435897435897	0.0273972602739726	0.3200992555831266	0.5357142857142857
1922.882080078125	1.429509507185105	2.042335265731429	27.76647342685713	1.70494640905492	0.7908903104249914	0.7673447923845836	3375.958974358974	3504.761904761905	0.0224159402241594	0.3275434243176179	0.5408163265306122
1942.413330078125	2.451459007270515	1.446232824610852	27.37671753891487	1.689364058026824	1.204050885138621	1.133301769075742	3387.610256410256	3500.3663003663	0.024906600249066	0.3188585607940447	0.5331632653061225
1961.944580078125	2.079072849272949	0.9600642175389151	27.99357824610851	1.342141835804602	1.211137052939074	1.126215601275288	3381.784615384615	3498.901098901099	0.0236612702366127	0.3163771712158809	0.5229591836734694
1981.475830078125	2.324191475562103	1.245357840625201	27.46421593747998	1.334798074329974	1.203793291464447	1.500747436481281	3402.174358974359	3501.831501831502	0.0224159402241594	0.3300248138957816	0.5331632653061225
2001.007080078125	2.913593246215275	0.8786566096555848	28.13433903444152	1.35038042535807	0.7906327167508176	1.134790459790123	3374.502564102564	3498.901098901099	0.007471980074719801	0.3287841191066998	0.5408163265306122
2020.538330078125	1.903019772382722	0.7223805863386927	27.76194136613072	2.41497320452746	0.3635574001104549	0.4155601512943327	3368.676923076923	3501.831501831502	0.0286425902864259	0.3188585607940447	0.5293367346938775
2040.069580078125	2.163071778980633	1.161748259774091	27.82517402259091	1.349485597279229	1.218480814413702	0.7516837660692957	3378.871794871795	3504.761904761905	0.0323785803237858	0.3287841191066998	0.5267857142857142
2059.600830078125	2.908836984604873	0.8810587619840711	27.89412380159289	1.70494640905492	0.7908903104249914	0.7673447923845836	3377.415384615385	3495.970695970696	0.0112079701120797	0.3138957816377171	0.5255102040816326
2079.132080078125	1.785072591708838	0.7592225967800481	28.07774032199518	1.70494640905492	0.7908903104249914	0.7673447923845836	3374.502564102564	3503.296703296703	0.0261519302615193	0.3250620347394541	0.534438775510204
2098.663330078125	2.709004768272372	2.048482440266479	27.15175597335212	1.342141835804602	1.211137052939074	1.126215601275288	3387.610256410256	3500.3663003663	0.0186799501867995	0.3300248138957816	0.5318877551020408
2118.194580078125	2.503191192641941	1.764381552537741	27.56184474622596	1.696707819501451	1.211394646613248	0.7587699338697491	3384.697435897436	3503.296703296703	0.0224159402241594	0.3200992555831266	0.5331632653061225
2137.725830078125	2.350823337710589	1.635947809237077	28.40521907629236	1.349485597279229	1.218480814413702	0.7516837660692957	3393.435897435897	3506.227106227106	0.0224159402241594	0.3101736972704715	0.5420918367346939
2157.257080078125	1.916744069352807	1.402317810091175	27.7682189908825	1.713184998608388	0.3703859742367346	0.7759196508994182	3380.328205128205	3504.761904761905	0.0112079701120797	0.3250620347394541	0.524234693877551
2176.788330078125	2.014443274507292	1.314254238464331	28.57457615356693	1.720528760083016	0.3777297357113619	0.4013878156934256	3375.958974358974	3506.227106227106	0.0236612702366127	0.3238213399503722	0.5369897959183673
2196.319580078125	2.253980900219931	1.642770589114514	27.72294108854867	1.326559484776506	1.624297627652704	1.492172577966446	3400.717948717948	3501.831501831502	0.024906600249066	0.3238213399503722	0.5357142857142857
2215.850830078125	1.929995943031623	1.678453227425106	28.15467725748938	1.70494640905492	0.7908903104249914	0.7673447923845836	3377.415384615385	3504.761904761905	0.0149439601494396	0.3213399503722084	0.5229591836734694
2235.382080078125	1.783575250090748	1.648867718809387	27.11322811906135	1.70494640905492	0.7908903104249914	0.7673447923845836	3380.328205128205	3503.296703296703	0.0224159402241594	0.3188585607940447	0.5306122448979591
2254.913330078125	3.956969945070783	1.241429320671322	27.85706793286785	1.70494640905492	0.7908903104249914	0.7673447923845836	3377.415384615385	3501.831501831502	0.0311332503113325	0.3213399503722084	0.534438775510204
2274.444580078125	2.287136440917729	1.404644895159396	27.53551048406039	3.109417648971904	0.3493850645095479	0.4297324868952397	3375.958974358974	3503.296703296703	0.0136986301369863	0.3312655086848635	0.5369897959183673
2293.975830078125	2.168620750859437	1.15894574872419	28.10542512758098	1.696707819501451	1.211394646613248	0.7587699338697491	3389.066666666666	3503.296703296703	0.0174346201743462	0.3213399503722084	0.524234693877551
2313.507080078125	2.166426785066086	1.927730579932953	27.22694200670467	1.697602647580292	0.783546548950364	1.141876627590576	3390.523076923077	3500.3663003663	0.0149439601494396	0.3275434243176179	0.5331632653061225
2333.038330078125	2.508331798624901	1.276936802041296	28.30631979587043	2.075094743779865	0.3779873293855357	0.03394214828788659	3367.220512820513	3504.761904761905	0.009962640099626401	0.3250620347394541	0.534438775510204
2352.569580078125	2.148234484765016	0.8864135598829885	27.35864401170115	2.422316966002087	0.3709011615850822	0.0410283160883401	3362.851282051282	3503.296703296703	0.024906600249066	0.326302729528536	0.5318877551020408
2372.100830078125	1.980204596651934	0.523465691926633	27.65343080733671	1.720528760083016	0.3777297357113619	0.4013878156934256	3374.502564102564	3503.296703296703	0.0224159402241594	0.3287841191066998	0.5306122448979591
2391.632080078125	2.311540139965409	1.211343363653834	26.86566363461662	1.365962776386166	0.3774721420371881	0.7688334830989646	3377.415384615385	3503.296703296703	0.0149439601494396	0.3225806451612903	0.5331632653061225
2411.163330078125	1.200491140061495	1.042681242393184	27.73187576068157	2.430555555555555	-0.0496031746031746	0.04960317460317461	3359.938461538462	3503.296703296703	0.0224159402241594	0.3287841191066998	0.5255102040816326
2430.694580078125	2.362960045534132	0.9235892025921895	27.64107974078107	1.342141835804602	1.211137052939074	1.126215601275288	3386.153846153846	3498.901098901099	0.0136986301369863	0.315136476426799	0.5357142857142857
2450.225830078125	2.125063890579293	1.523536755599684	27.6463244400316	1.342141835804602	1.211137052939074	1.126215601275288	3389.066666666666	3500.3663003663	0.0224159402241594	0.3300248138957816	0.5382653061224489
2469.757080078125	2.6157815736233	1.487820754062307	27.21792459376935	1.349485597279229	1.218480814413702	0.7516837660692957	3386.153846153846	3504.761904761905	0.0261519302615193	0.3349875930521092	0.5280612244897959
2489.288330078125	2.653821490722354	1.085612041722717	27.43879582772831	1.365067948307325	0.8053202397000722	0.3857267893781376	3374.502564102564	3503.296703296703	0.0261519302615193	0.3138957816377171	0.5280612244897959
2508.819580078125	1.81343984209852	0.5639192716674142	27.6080728332586	2.075094743779865	0.3779873293855357	0.03394214828788659	3358.482051282051	3501.831501831502	0.0186799501867995	0.3287841191066998	0.5293367346938775
2528.350830078125	2.502686740652958	1.400999962633186	27.9000037366814	1.70494640905492	0.7908903104249914	0.7673447923845836	3375.958974358974	3503.296703296703	0.0199252801992528	0.3225806451612903	0.5369897959183673
2547.882080078125	1.575607744539107	1.083026391646916	27.69736083530843	1.358619014911539	0.3701283805625608	1.143365318304957	3373.046153846154	3498.901098901099	0.0211706102117061	0.3312655086848635	0.5408163265306122
2567.413330078125	1.258364828219418	2.610253453761237	26.97465462387633	1.35038042535807	0.7906327167508176	1.134790459790123	3387.610256410256	3500.3663003663	0.0199252801992528	0.3213399503722084	0.5216836734693877
2586.944580078125	1.566001303834903	2.602187893686077	27.7812106313924	1.696707819501451	1.211394646613248	0.7587699338697491	3384.697435897436	3503.296703296703	0.0112079701120797	0.3200992555831266	0.5255102040816326
2606.475830078125	2.721527989078214	2.244177783293832	27.58222167061688	1.342141835804602	1.211137052939074	1.126215601275288	3381.784615384615	3497.435897435897	0.0224159402241594	0.3176178660049628	0.5306122448979591
2626.007080078125	1.94847433300237	0.9628917510089042	27.7108248991096	1.689364058026824	1.204050885138621	1.133301769075742	3381.784615384615	3500.3663003663	0.0161892901618929	0.3250620347394541	0.5280612244897959
2645.538330078125	1.982582727457135	0.5222646157623898	27.77353842376103	1.720528760083016	0.3777297357113619	0.4013878156934256	3365.764102564102	3504.761904761905	0.0224159402241594	0.3238213399503722	0.5318877551020408
2665.069580078125	2.066709771955672	0.5622677919415797	27.77322080584204	1.374201365939634	-0.04303219415106867	0.7774083416137991	3386.153846153846	3504.761904761905	0.0199252801992528	0.3325062034739454	0.5267857142857142
2684.600830078125	2.392688515576623	1.010426675634702	26.9573324365298	1.705841237133761	0.3630422127621073	1.150451486105411	3370.133333333333	3500.3663003663	0.0186799501867995	0.3238213399503722	0.5331632653061225
2704.132080078125	1.394296122659236	1.877459870710824	28.25401292891764	1.705841237133761	0.3630422127621073	1.150451486105411	3374.502564102564	3500.3663003663	0.0261519302615193	0.326302729528536	0.5395408163265306
2723.663330078125	1.206160219556723	1.888302919415797	27.16970805842034	1.333903246251133	1.631641389127331	1.117640742760454	3389.066666666666	3500.3663003663	0.024906600249066	0.3225806451612903	0.5293367346938775
2743.194580078125	1.611109387344394	0.884119838041552	27.58801619584481	3.08559670839034	1.183049975411434	0.7871146050715632	3374.502564102564	3503.296703296703	0.0199252801992528	0.3188585607940447	0.5433673469387754
2762.725830078125	2.951347073644652	2.233326393782162	28.66736062178379	1.70494640905492	0.7908903104249914	0.7673447923845836	3387.610256410256	3504.761904761905	0.0174346201743462	0.3089330024813896	0.5395408163265306
2782.257080078125	2.888859084406295	1.093168812589414	26.68311874105865	2.075094743779865	0.3779873293855357	0.03394214828788659	3374.502564102564	3506.227106227106	0.0236612702366127	0.3300248138957816	0.5318877551020408
2801.788330078125	1.964672846870796	1.520367249055154	27.96327509448466	2.067750982305237	0.3706435679109084	0.4084739834938791	3374.502564102564	3503.296703296703	0.0224159402241594	0.3213399503722084	0.5229591836734694
2821.319580078125	2.157458749706404	1.245391203851985	27.46087961480153	1.342141835804602	1.211137052939074	1.126215601275288	3387.610256410256	3500.3663003663	0.0211706102117061	0.3250620347394541	0.5382653061224489
2840.850830078125	1.761293452266564	2.164329906262679	27.5670093737322	2.052168631277142	0.7838041426245379	0.7744309601850372	3367.220512820513	3503.296703296703	0.0348692403486924	0.3325062034739454	0.524234693877551
2860.382080078125	1.795241703232763	1.925803853586147	27.41961464138535	1.705841237133761	0.3630422127621073	1.150451486105411	3380.328205128205	3500.3663003663	0.0211706102117061	0.3250620347394541	0.5395408163265306
2879.913330078125	1.613799797952299	1.488821650865843	27.11783491341576	1.697602647580292	0.783546548950364	1.141876627590576	3377.415384615385	3498.901098901099	0.03362391033623911	0.3250620347394541	0.5306122448979591
2899.444580078125	1.711112490124485	0.4927041295667586	26.72958704332415	1.342141835804602	1.211137052939074	1.126215601275288	3387.610256410256	3501.831501831502	0.024906600249066	0.326302729528536	0.5306122448979591
2918.975830078125	2.323590937479982	1.003236900262636	27.67630997373647	1.697602647580292	0.783546548950364	1.141876627590576	3389.066666666666	3500.3663003663	0.0186799501867995	0.3213399503722084	0.5306122448979591
2938.507080078125	2.237245905664809	0.7623337176777059	27.76662823222941	1.712290170529547	0.7982340718996186	0.3928129571785911	3371.589743589744	3503.296703296703	0.0186799501867995	0.3275434243176179	0.5255102040816326
2958.038330078125	2.96589394097111	1.479346494459036	28.06535055409647	2.083333333333333	-0.04251700680272109	0.04251700680272109	3368.676923076923	3503.296703296703	0.0348692403486924	0.3349875930521092	0.5382653061224489
2977.569580078125	2.082940314521812	1.079323073473833	28.06769265261675	1.333903246251133	1.631641389127331	1.117640742760454	3397.805128205128	3500.3663003663	0.0298879202988792	0.3337468982630273	0.5382653061224489
2997.100830078125	1.779019167841053	0.3986435179253945	28.13564820746055	2.06040722083061	0.3632998064362811	0.7830058186998716	3370.133333333333	3503.296703296703	0.0224159402241594	0.326302729528536	0.5382653061224489
3016.632080078125	2.174127518256358	0.8135719604765873	26.6428039523413	1.720528760083016	0.3777297357113619	0.4013878156934256	3380.328205128205	3503.296703296703	0.0149439601494396	0.326302729528536	0.534438775510204
3036.163330078125	2.28193978471377	0.962825024555335	27.71749754446651	1.35038042535807	0.7906327167508176	1.134790459790123	3389.066666666666	3500.3663003663	0.0236612702366127	0.3188585607940447	0.524234693877551
3055.694580078125	1.950788406412145	1.042531107872654	27.74688921273461	1.689364058026824	1.204050885138621	1.133301769075742	3387.610256410256	3500.3663003663	0.0273972602739726	0.3300248138957816	0.524234693877551
3075.225830078125	2.055774140296372	1.758868279311597	28.11317206884035	1.326559484776506	1.624297627652704	1.492172577966446	3400.717948717948	3501.831501831502	0.0174346201743462	0.3250620347394541	0.5280612244897959
3094.757080078125	1.738721227553221	1.65047749450174	26.95225054982598	1.342141835804602	1.211137052939074	1.126215601275288	3381.784615384615	3498.901098901099	0.0199252801992528	0.326302729528536	0.5255102040816326
3114.288330078125	2.505665409540281	1.641919826831508	27.80801731684923	2.067750982305237	0.3706435679109084	0.4084739834938791	3374.502564102564	3503.296703296703	0.009962640099626401	0.3200992555831266	0.5331632653061225
3133.819580078125	1.735870673456751	1.247876764247433	27.21232357525676	1.002263375057007	1.225566982214155	0.7445975982688421	3390.523076923077	3503.296703296703	0.0224159402241594	0.3300248138957816	0.5280612244897959
3153.350830078125	2.161486358443832	1.16254897721692	27.74510227830803	1.713184998608388	0.3703859742367346	0.7759196508994182	3370.133333333333	3501.831501831502	0.0286425902864259	0.3300248138957816	0.5165816326530612
3172.882080078125	1.058290228044328	0.6877322080584205	27.22677919415796	2.06040722083061	0.3632998064362811	0.7830058186998716	3368.676923076923	3504.761904761905	0.0174346201743462	0.3176178660049628	0.5357142857142857
3192.413330078125	1.838990735699187	1.318691547626674	28.13084523733265	1.342141835804602	1.211137052939074	1.126215601275288	3380.328205128205	3498.901098901099	0.024906600249066	0.315136476426799	0.5331632653061225
3211.944580078125	2.577997886105951	1.566667734289924	27.33322657100762	1.70494640905492	0.7908903104249914	0.7673447923845836	3374.502564102564	3503.296703296703	0.008717310087173101	0.3225806451612903	0.524234693877551
3231.475830078125	1.916111502572972	1.200617086242607	27.93829137573933	1.334798074329974	1.203793291464447	1.500747436481281	3400.717948717948	3501.831501831502	0.0149439601494396	0.3200992555831266	0.5267857142857142
3251.007080078125	2.624749608982982	2.170160130143275	26.9839869856725	1.349485597279229	1.218480814413702	0.7516837660692957	3381.784615384615	3503.296703296703	0.012453300124533	0.3275434243176179	0.5357142857142857
3270.538330078125	2.924274816902611	1.398514402237738	28.14855977622617	1.720528760083016	0.3777297357113619	0.4013878156934256	3374.502564102564	3503.296703296703	0.0112079701120797	0.3176178660049628	0.5191326530612245
3290.069580078125	2.048327468078065	1.156568618815792	28.34313811842077	1.334798074329974	1.203793291464447	1.500747436481281	3381.784615384615	3498.901098901099	0.0273972602739726	0.326302729528536	0.5318877551020408
3309.600830078125	2.474725687549378	0.6878489793521663	27.21510206478338	1.713184998608388	0.3703859742367346	0.7759196508994182	3375.958974358974	3504.761904761905	0.0211706102117061	0.3213399503722084	0.5306122448979591
3329.132080078125	2.2249490543527	1.676793406892576	28.32065931074243	1.712290170529547	0.7982340718996186	0.3928129571785911	3380.328205128205	3503.296703296703	0.0261519302615193	0.3213399503722084	0.5357142857142857
3348.663330078125	1.826563600986484	1.001735555057332	27.82644449426686	1.342141835804602	1.211137052939074	1.126215601275288	3380.328205128205	3498.901098901099	0.0149439601494396	0.326302729528536	0.5255102040816326
3368.194580078125	2.036909237343326	1.56637580605556	27.36241939444409	1.358619014911539	0.3701283805625608	1.143365318304957	3381.784615384615	3498.901098901099	0.0286425902864259	0.3225806451612903	0.5267857142857142
3387.725830078125	1.006087787991374	1.358878221553178	28.11217784468217	1.333903246251133	1.631641389127331	1.117640742760454	3400.717948717948	3500.3663003663	0.0199252801992528	0.3225806451612903	0.5293367346938775
3407.257080078125	2.079321071680226	1.646807539555442	27.31924604445583	1.689364058026824	1.204050885138621	1.133301769075742	3389.066666666666	3500.3663003663	0.0199252801992528	0.3287841191066998	0.5408163265306122
3426.788330078125	2.221906328069951	1.516713975722247	28.32860242777529	2.067750982305237	0.3706435679109084	0.4084739834938791	3370.133333333333	3503.296703296703	0.0149439601494396	0.3312655086848635	0.5318877551020408
3446.319580078125	2.399030197723827	1.007223805863387	27.27761941366131	1.349485597279229	1.218480814413702	0.7516837660692957	3387.610256410256	3504.761904761905	0.0211706102117061	0.3287841191066998	0.5420918367346939
3465.850830078125	2.710910475786305	1.643479557683685	27.65204423163154	2.075989571858706	-0.04986076827734839	0.4170488420087136	3375.958974358974	3503.296703296703	0.0199252801992528	0.3287841191066998	0.5331632653061225
3485.382080078125	1.756889506331006	1.722109676937203	27.78903230627976	1.70494640905492	0.7908903104249914	0.7673447923845836	3377.415384615385	3504.761904761905	0.0224159402241594	0.3325062034739454	0.5382653061224489
3504.913330078125	2.471749187271796	1.840025662994043	27.99743370059574	1.712290170529547	0.7982340718996186	0.3928129571785911	3386.153846153846	3503.296703296703	0.0161892901618929	0.3300248138957816	0.5293367346938775
3524.444580078125	3.006880498259774	1.358477862831764	28.15221371682361	1.694918163343769	2.067090841939017	-0.007443453571904957	3377.415384615385	3510.62271062271	0.024906600249066	0.326302729528536	0.5497448979591836
3543.975830078125	3.068555425661392	1.733052815322529	26.6947184677471	1.713184998608388	0.3703859742367346	0.7759196508994182	3384.697435897436	3503.296703296703	0.03362391033623911	0.3275434243176179	0.5357142857142857
3563.507080078125	3.92711336023744	1.316272713684795	28.37272863152051	2.028347690695577	1.617469053526424	1.131813078361361	3387.610256410256	3500.3663003663	0.0186799501867995	0.3163771712158809	0.5408163265306122
3583.038330078125	2.164809335831572	1.968951513889779	27.10484861102214	2.41497320452746	0.3635574001104549	0.4155601512943327	3365.764102564102	3501.831501831502	0.0211706102117061	0.3275434243176179	0.524234693877551
3602.569580078125	1.511642765250998	1.598496919906904	28.15030800930968	1.35038042535807	0.7906327167508176	1.134790459790123	3383.241025641025	3498.901098901099	0.0149439601494396	0.3225806451612903	0.5306122448979591
3622.100830078125	2.10772835794205	0.4009789438003118	27.90210561996883	2.052168631277142	0.7838041426245379	0.7744309601850372	3380.328205128205	3503.296703296703	0.0186799501867995	0.3275434243176179	0.5331632653061225
3641.632080078125	2.384515359095083	1.720783488672518	27.92165113274828	2.067750982305237	0.3706435679109084	0.4084739834938791	3381.784615384615	3506.227106227106	0.024906600249066	0.3188585607940447	0.5306122448979591
3661.163330078125	2.707291232944719	2.210964023765294	26.90359762347063	1.35038042535807	0.7906327167508176	1.134790459790123	3390.523076923077	3500.3663003663	0.0174346201743462	0.3312655086848635	0.5293367346938775
3680.694580078125	2.110514854643093	0.8844201070826128	27.55798929173873	1.342141835804602	1.211137052939074	1.126215601275288	3383.241025641025	3498.901098901099	0.0186799501867995	0.3287841191066998	0.5306122448979591
3700.225830078125	2.326697721158157	1.082475898404971	27.75241015950292	0.9875758521077519	1.210879459264901	1.493661268680827	3402.174358974359	3501.831501831502	0.0199252801992528	0.3312655086848635	0.5267857142857142
3719.757080078125	2.565258471590545	0.643808852732048	27.61911472679521	1.357724186832697	0.7979764782254449	0.7602586245841301	3383.241025641025	3503.296703296703	0.0174346201743462	0.3213399503722084	0.5306122448979591
3739.288330078125	2.064643920953174	1.169371757094357	27.06282429056434	2.067750982305237	0.3706435679109084	0.4084739834938791	3370.133333333333	3503.296703296703	0.0261519302615193	0.3126550868486352	0.534438775510204
3758.819580078125	1.449989690762924	0.8005102571904429	27.94897428095574	1.697602647580292	0.783546548950364	1.141876627590576	3381.784615384615	3500.3663003663	0.03362391033623911	0.3176178660049628	0.5229591836734694
3778.350830078125	1.769282443736254	0.686389338180343	27.36106618196571	1.713184998608388	0.3703859742367346	0.7759196508994182	3383.241025641025	3506.227106227106	0.0261519302615193	0.326302729528536	0.5216836734693877
3797.882080078125	1.920771678090236	1.31947558345611	28.052441654389	2.067750982305237	0.3706435679109084	0.4084739834938791	3375.958974358974	3507.692307692308	0.024906600249066	0.3312655086848635	0.5420918367346939
3817.413330078125	2.152478287212009	1.530734871778447	26.92651282215532	1.342141835804602	1.211137052939074	1.126215601275288	3393.435897435897	3500.3663003663	0.0161892901618929	0.3213399503722084	0.5318877551020408
3836.944580078125	1.712387799468324	1.279097070975594	28.09029290244059	1.35038042535807	0.7906327167508176	1.134790459790123	3375.958974358974	3498.901098901099	0.007471980074719801	0.3213399503722084	0.524234693877551
3856.475830078125	2.127377963989067	1.603176112463434	27.68238875365661	1.334798074329974	1.203793291464447	1.500747436481281	3402.174358974359	3501.831501831502	0.0261519302615193	0.3250620347394541	0.520408163265306
3876.007080078125	2.615693494704589	0.5989763494757971	28.1023650524203	1.721423588161857	-0.05011836195152218	0.7844945094142527	3378.871794871795	3501.831501831502	0.0273972602739726	0.3200992555831266	0.5357142857142857
3895.538330078125	2.072538994939466	1.205788386394209	27.42116136057908	1.365962776386166	0.3774721420371881	0.7688334830989646	3371.589743589744	3503.296703296703	0.0161892901618929	0.3287841191066998	0.5395408163265306
3915.069580078125	2.159012141545492	1.285010702923153	27.49892970768475	2.430555555555555	-0.0496031746031746	0.04960317460317461	3361.394871794872	3503.296703296703	0.037359900373599	0.3250620347394541	0.5331632653061225
3934.600830078125	1.616562273130058	1.002577976533641	27.74220234663592	2.06040722083061	0.3632998064362811	0.7830058186998716	3374.502564102564	3504.761904761905	0.0199252801992528	0.3250620347394541	0.5293367346938775
3954.132080078125	1.986986673392693	0.9644848450878656	27.55151549121346	1.373306537860793	0.3848159035118154	0.3943016478929721	3383.241025641025	3509.157509157509	0.0211706102117061	0.3238213399503722	0.5306122448979591
3973.663330078125	3.109101588356501	1.16796216076271	27.203783923729	1.343036663883443	0.7832889552761903	1.509322294996115	3384.697435897436	3498.901098901099	0.0224159402241594	0.3275434243176179	0.524234693877551
3993.194580078125	2.240352689342985	0.8415727158200416	27.84272841799586	1.689364058026824	1.204050885138621	1.133301769075742	3383.241025641025	3497.435897435897	0.0211706102117061	0.3225806451612903	0.5369897959183673
4012.725830078125	2.119899263073047	1.041296668481626	27.87033315183738	1.697602647580292	0.783546548950364	1.141876627590576	3373.046153846154	3498.901098901099	0.0149439601494396	0.3213399503722084	0.5280612244897959
4032.257080078125	2.011334322219375	-0.158081307518203	27.8081307518203	1.697602647580292	0.783546548950364	1.141876627590576	3384.697435897436	3498.901098901099	0.0236612702366127	0.326302729528536	0.5216836734693877
4051.788330078125	2.125512292347277	0.9576537244037326	28.23462755962676	2.407629443052833	0.3562136386358276	0.7900919865003252	3367.220512820513	3501.831501831502	0.0286425902864259	0.3349875930521092	0.5318877551020408
4071.319580078125	2.654870430572459	0.7618499508893302	27.81500491106698	1.343036663883443	0.7832889552761903	1.509322294996115	3390.523076923077	3503.296703296703	0.024906600249066	0.3287841191066998	0.5267857142857142
4090.850830078125	2.137608964298678	1.295820388401341	26.41796115986591	2.06040722083061	0.3632998064362811	0.7830058186998716	3375.958974358974	3501.831501831502	0.0149439601494396	0.3275434243176179	0.5280612244897959
4110.382080078125	2.355185079164265	1.73559676136485	26.44032386351504	1.697602647580292	0.783546548950364	1.141876627590576	3371.589743589744	3498.901098901099	0.0174346201743462	0.3312655086848635	0.5306122448979591
4129.913330078125	2.242250389682489	1.446674887365747	27.33251126342536	1.697602647580292	0.783546548950364	1.141876627590576	3377.415384615385	3498.901098901099	0.0211706102117061	0.326302729528536	0.5395408163265306
4149.444580078125	2.166618957252365	1.685209280848974	27.4790719151026	1.672886878919887	2.045059557515135	1.116152052046073	3383.241025641025	3497.435897435897	0.0261519302615193	0.3188585607940447	0.5318877551020408
4168.975830078125	2.629321705581535	1.400174222770269	27.98257772297312	1.349485597279229	1.218480814413702	0.7516837660692957	3386.153846153846	3504.761904761905	0.0273972602739726	0.3200992555831266	0.5318877551020408
4188.507080078125	0.4933343609207184	1.203703184720176	27.62968152798241	1.720528760083016	0.3777297357113619	0.4013878156934256	3368.676923076923	3493.040293040293	0.024906600249066	0.3300248138957816	0.534438775510204
4208.038330078125	2.656111542608844	0.1955665609719643	28.44334390280358	1.720528760083016	0.3777297357113619	0.4013878156934256	3371.589743589744	3500.3663003663	0.0161892901618929	0.3213399503722084	0.524234693877551
4227.569580078125	1.962735110659151	1.965790348151945	27.42096518480559	2.423211794080928	-0.05694693607780191	0.4241350098091671	3362.851282051282	3500.3663003663	0.0211706102117061	0.3176178660049628	0.534438775510204
4247.100830078125	3.110430779311597	1.490523175431854	26.94768245681464	1.70494640905492	0.7908903104249914	0.7673447923845836	3375.958974358974	3504.761904761905	0.0174346201743462	0.3188585607940447	0.5191326530612245
4266.632080078125	1.834610811286913	1.846156155915701	27.38438440842996	2.0512738031983	1.211652240287422	0.3913242664642101	3378.871794871795	3503.296703296703	0.0186799501867995	0.3213399503722084	0.5229591836734694
4286.163330078125	1.64610874677044	1.714928242371832	28.50717576281682	1.342141835804602	1.211137052939074	1.126215601275288	3386.153846153846	3497.435897435897	0.0211706102117061	0.3250620347394541	0.524234693877551
4305.694580078125	2.878660112794397	1.36010432013751	27.98956798624901	2.044824869802514	0.7764603811499106	1.14896279539103	3375.958974358974	3498.901098901099	0.0149439601494396	0.3275434243176179	0.5357142857142857
4325.225830078125	1.695076288354366	1.126224096790725	27.37759032092755	1.334798074329974	1.203793291464447	1.500747436481281	3402.174358974359	3501.831501831502	0.0211706102117061	0.3213399503722084	0.5318877551020408
4344.757080078125	2.03310582948989	1.366276517092648	27.37234829073517	2.052168631277142	0.7838041426245379	0.7744309601850372	3381.784615384615	3501.831501831502	0.0211706102117061	0.3238213399503722	0.5280612244897959
4364.288330078125	2.314582866248158	1.371422794824163	26.85772051758375	2.06040722083061	0.3632998064362811	0.7830058186998716	3373.046153846154	3503.296703296703	0.0199252801992528	0.3275434243176179	0.5369897959183673
4383.819580078125	2.818304200563705	0.9250988886041898	27.49011113958106	1.365067948307325	0.8053202397000722	0.3857267893781376	3389.066666666666	3503.296703296703	0.0136986301369863	0.3213399503722084	0.5395408163265306
4403.350830078125	2.028733912252045	0.8836360712531761	27.63639287468238	2.044824869802514	0.7764603811499106	1.14896279539103	3377.415384615385	3500.3663003663	0.0199252801992528	0.3200992555831266	0.5229591836734694
4422.882080078125	3.533291996295347	0.8813340086050435	27.86659913949566	2.066856154226396	0.7984916655737925	0.02536728977305208	3373.046153846154	3504.761904761905	0.0273972602739726	0.3250620347394541	0.524234693877551
4442.413330078125	2.078216081609122	1.041305009288323	27.86949907116777	1.35038042535807	0.7906327167508176	1.134790459790123	3380.328205128205	3498.901098901099	0.03362391033623911	0.3200992555831266	0.5293367346938775
4461.944580078125	2.260322582367135	1.639567719343198	28.04322806568018	1.690258886105665	0.7762027874757367	1.516408462796569	3384.697435897436	3501.831501831502	0.0224159402241594	0.3238213399503722	0.5306122448979591
4481.475830078125	1.77159868575577	2.159125242884291	28.0874757115709	2.430555555555555	-0.0496031746031746	0.04960317460317461	3362.851282051282	3501.831501831502	0.024906600249066	0.3213399503722084	0.5140306122448979
4501.007080078125	3.186446556114278	0.7669461837806676	27.30538162193325	1.697602647580292	0.783546548950364	1.141876627590576	3389.066666666666	3500.3663003663	0.0273972602739726	0.3250620347394541	0.5408163265306122
4520.538330078125	2.324191475562103	1.245357840625201	27.46421593747998	2.407629443052833	0.3562136386358276	0.7900919865003252	3374.502564102564	3506.227106227106	0.009962640099626401	0.3200992555831266	0.5369897959183673
4540.069580078125	1.118518025484167	1.284418505647727	27.5581494352273	1.342141835804602	1.211137052939074	1.126215601275288	3381.784615384615	3498.901098901099	0.0273972602739726	0.3200992555831266	0.5318877551020408
4559.600830078125	1.938865723688425	1.088956705207866	27.10432947921337	2.406734614973991	0.7840617362987116	0.4069852927794981	3374.502564102564	3503.296703296703	0.0199252801992528	0.3287841191066998	0.534438775510204
4579.132080078125	1.925808190805629	1.963396536630154	27.6603463369846	1.696707819501451	1.211394646613248	0.7587699338697491	3380.328205128205	3503.296703296703	0.0224159402241594	0.3250620347394541	0.5408163265306122
4598.663330078125	2.533848494918114	0.6790327466743538	28.09672533256465	1.697602647580292	0.783546548950364	1.141876627590576	3374.502564102564	3498.901098901099	0.0298879202988792	0.3337468982630273	0.5318877551020408
4618.194580078125	2.040904817383042	1.523953795934491	27.60462040655094	1.351275253436911	0.3627846190879335	1.51789715351095	3387.610256410256	3500.3663003663	0.0174346201743462	0.3213399503722084	0.5382653061224489
4637.725830078125	1.922132897743044	1.601616381611257	27.8383618388743	1.70494640905492	0.7908903104249914	0.7673447923845836	3381.784615384615	3501.831501831502	0.0298879202988792	0.3300248138957816	0.5165816326530612
4657.257080078125	2.804732039907758	1.053165636410224	26.68343635897764	1.35038042535807	0.7906327167508176	1.134790459790123	3381.784615384615	3498.901098901099	0.024906600249066	0.326302729528536	0.5369897959183673
4676.788330078125	1.960677266831081	1.562789259176222	27.72107408237781	2.067750982305237	0.3706435679109084	0.4084739834938791	3370.133333333333	3503.296703296703	0.0261519302615193	0.337468982630273	0.5433673469387754
4696.319580078125	1.961021575331497	2.12827193165076	27.17280683492409	1.342141835804602	1.211137052939074	1.126215601275288	3389.066666666666	3500.3663003663	0.0186799501867995	0.3200992555831266	0.5293367346938775
4715.850830078125	2.469561060043132	0.2056088922341085	27.43911077658916	2.06040722083061	0.3632998064362811	0.7830058186998716	3371.589743589744	3503.296703296703	0.0186799501867995	0.3287841191066998	0.5331632653061225
4735.382080078125	2.02062481316593	1.513152451262998	28.68475487370017	2.383808502471268	1.189878549537714	1.147474104676649	3383.241025641025	3500.3663003663	0.0224159402241594	0.3312655086848635	0.524234693877551
4754.913330078125	2.58192940875024	1.605086157196849	27.49138428031516	1.689364058026824	1.204050885138621	1.133301769075742	3386.153846153846	3501.831501831502	0.0149439601494396	0.3287841191066998	0.5280612244897959
4774.444580078125	1.991134389746546	1.730066806525314	26.99331934746867	2.067750982305237	0.3706435679109084	0.4084739834938791	3371.589743589744	3501.831501831502	0.0211706102117061	0.3188585607940447	0.5306122448979591
4793.975830078125	2.143542280550039	0.8079752791834818	27.20247208165183	0.9875758521077519	1.210879459264901	1.493661268680827	3400.717948717948	3501.831501831502	0.0236612702366127	0.3300248138957816	0.5318877551020408
4813.507080078125	1.780252272703009	0.8424651821365277	27.75348178634723	1.342141835804602	1.211137052939074	1.126215601275288	3387.610256410256	3500.3663003663	0.0149439601494396	0.326302729528536	0.534438775510204
4833.038330078125	2.37681245729507	1.441845560288686	27.81544397113147	1.713184998608388	0.3703859742367346	0.7759196508994182	3374.502564102564	3503.296703296703	0.0273972602739726	0.326302729528536	0.5306122448979591
4852.569580078125	2.43184359853095	1.596711987273931	28.32880127260692	2.438794145109024	-0.4701075107914314	0.05817803311800911	3358.482051282051	3500.3663003663	0.0311332503113325	0.3238213399503722	0.5267857142857142
4872.100830078125	2.651667560801145	0.8038716022889845	27.61283977110158	2.043930041723673	1.204308478812795	0.7658561016702027	3378.871794871795	3503.296703296703	0.0161892901618929	0.3238213399503722	0.5280612244897959
4891.632080078125	2.831492016847095	1.282074738966114	27.79252610338864	2.059512392751769	0.7911479040991651	0.3998991249790446	3373.046153846154	3504.761904761905	0.0261519302615193	0.3176178660049628	0.524234693877551
4911.163330078125	1.830142807955929	1.484776359618218	27.52236403817821	1.35038042535807	0.7906327167508176	1.134790459790123	3389.066666666666	3500.3663003663	0.024906600249066	0.3250620347394541	0.5318877551020408
4930.694580078125	1.908977110157368	1.204220314735336	27.57796852646638	1.374201365939634	-0.04303219415106867	0.7774083416137991	3374.502564102564	3503.296703296703	0.0136986301369863	0.3349875930521092	0.5306122448979591
4950.225830078125	2.58361091538018	1.48302479021203	27.697520978797	1.35038042535807	0.7906327167508176	1.134790459790123	3381.784615384615	3498.901098901099	0.0348692403486924	0.3275434243176179	0.5267857142857142
4969.757080078125	2.57453878675293	1.93205111780155	26.79488821984498	1.720528760083016	0.3777297357113619	0.4013878156934256	3371.589743589744	3503.296703296703	0.0211706102117061	0.3250620347394541	0.5306122448979591
4989.288330078125	1.796514843966861	1.319100247154784	28.0899752845216	2.06040722083061	0.3632998064362811	0.7830058186998716	3368.676923076923	3504.761904761905	0.0161892901618929	0.3200992555831266	0.534438775510204
5008.819580078125	1.752261359511456	1.562830963209703	27.71690367902975	1.698497475659134	0.35569845128748	1.524983321311403	3387.610256410256	3503.296703296703	0.0311332503113325	0.3225806451612903	0.5331632653061225
5028.350830078125	2.354752691745137	0.281269684303803	27.87303156961971	1.349485597279229	1.218480814413702	0.7516837660692957	3380.328205128205	3504.761904761905	0.0186799501867995	0.326302729528536	0.5216836734693877
5047.882080078125	2.404138775009075	0.5601992718809388	27.98007281190613	1.719633932004174	0.8055778333742459	0.01828112197259856	3375.958974358974	3504.761904761905	0.0186799501867995	0.3300248138957816	0.5293367346938775
5067.413330078125	2.052603299222771	1.760469714197254	27.95302858027459	1.70494640905492	0.7908903104249914	0.7673447923845836	3391.979487179487	3503.296703296703	0.0261519302615193	0.3287841191066998	0.5280612244897959
5086.944580078125	2.114918800578652	1.326640336408089	27.33596635919117	1.003158203135848	0.7977188845512711	1.127704291989669	3381.784615384615	3497.435897435897	0.0186799501867995	0.3250620347394541	0.5229591836734694
5106.475830078125	2.19216768224329	1.046885008968036	27.31149910319646	1.342141835804602	1.211137052939074	1.126215601275288	3380.328205128205	3498.901098901099	0.0199252801992528	0.3138957816377171	0.5357142857142857
5126.007080078125	1.857180867390516	0.9669120198364403	27.30879801635599	1.689364058026824	1.204050885138621	1.133301769075742	3387.610256410256	3501.831501831502	0.0323785803237858	0.3188585607940447	0.5293367346938775
5145.538330078125	2.180663541199582	1.960944339461491	27.90556605385092	2.067750982305237	0.3706435679109084	0.4084739834938791	3367.220512820513	3500.3663003663	0.0286425902864259	0.326302729528536	0.5357142857142857
5165.069580078125	2.764764562381227	2.283788941558303	27.62110584416971	1.35038042535807	0.7906327167508176	1.134790459790123	3383.241025641025	3498.901098901099	0.0174346201743462	0.3362282878411911	0.5306122448979591
5184.600830078125	2.413170867764183	1.161698214933914	27.83017850660859	2.059512392751769	0.7911479040991651	0.3998991249790446	3377.415384615385	3503.296703296703	0.024906600249066	0.3287841191066998	0.5306122448979591
5204.132080078125	2.241938109879786	0.8407719983772128	27.92280016227874	1.357724186832697	0.7979764782254449	0.7602586245841301	3386.153846153846	3506.227106227106	0.0224159402241594	0.3300248138957816	0.5267857142857142
5223.663330078125	2.270081159385476	0.9284101888625544	27.15898111374458	2.06040722083061	0.3632998064362811	0.7830058186998716	3386.153846153846	3506.227106227106	0.0062266500622665	0.3300248138957816	0.5408163265306122
5243.194580078125	2.832348784510922	1.200833947216706	27.91660527832939	1.70494640905492	0.7908903104249914	0.7673447923845836	3386.153846153846	3501.831501831502	0.0174346201743462	0.3250620347394541	0.5369897959183673
5262.725830078125	1.678751828304828	2.12352601264066	27.64739873593406	1.35038042535807	0.7906327167508176	1.134790459790123	3389.066666666666	3500.3663003663	0.0224159402241594	0.3250620347394541	0.5395408163265306
5282.257080078125	2.041441298069737	1.846915169325049	27.30848306749514	1.342141835804602	1.211137052939074	1.126215601275288	3381.784615384615	3498.901098901099	0.0186799501867995	0.3399503722084367	0.5395408163265306
5301.788330078125	2.122277393878248	1.040095592317383	27.9904407682617	2.075989571858706	-0.04986076827734839	0.4170488420087136	3370.133333333333	3503.296703296703	0.0174346201743462	0.3213399503722084	0.5395408163265306
5321.319580078125	2.419928922981658	0.6330325304806442	28.6967469519356	2.083333333333333	-0.04251700680272109	0.04251700680272109	3359.938461538462	3503.296703296703	0.0224159402241594	0.3238213399503722	0.5318877551020408
5340.850830078125	2.479011694478253	1.674741568445327	28.5258431554673	1.720528760083016	0.3777297357113619	0.4013878156934256	3365.764102564102	3498.901098901099	0.0224159402241594	0.326302729528536	0.5382653061224489
5360.382080078125	1.962390802158734	1.400307675677407	27.9692324322593	1.70494640905492	0.7908903104249914	0.7673447923845836	3378.871794871795	3500.3663003663	0.024906600249066	0.3238213399503722	0.534438775510204
5379.913330078125	2.076566603676894	1.122946159759144	27.70538402408558	1.35038042535807	0.7906327167508176	1.134790459790123	3384.697435897436	3498.901098901099	0.024906600249066	0.3163771712158809	0.5318877551020408
5399.444580078125	1.732603746290009	1.37073884867508	26.92611513249204	2.037481108327887	0.7691166196752832	1.523494630597022	3380.328205128205	3498.901098901099	0.0273972602739726	0.326302729528536	0.5216836734693877
5418.975830078125	1.95754646162962	0.5138654234193839	28.61345765806162	1.342141835804602	1.211137052939074	1.126215601275288	3389.066666666666	3501.831501831502	0.0224159402241594	0.3238213399503722	0.5293367346938775
5438.507080078125	1.528351569673094	0.1161524058890099	28.38475941109901	1.713184998608388	0.3703859742367346	0.7759196508994182	3381.784615384615	3501.831501831502	0.0261519302615193	0.3163771712158809	0.5318877551020408
5458.038330078125	2.121516712307561	1.000075734524801	27.99242654751991	2.067750982305237	0.3706435679109084	0.4084739834938791	3370.133333333333	3504.761904761905	0.0186799501867995	0.3312655086848635	0.5191326530612245
5477.569580078125	1.795433875419042	1.683282554502168	27.67174454978327	1.697602647580292	0.783546548950364	1.141876627590576	3380.328205128205	3494.505494505494	0.0236612702366127	0.3200992555831266	0.5331632653061225
5497.100830078125	2.679306158317853	0.5281282028697714	27.18717971302287	2.052168631277142	0.7838041426245379	0.7744309601850372	3378.871794871795	3503.296703296703	0.0261519302615193	0.3275434243176179	0.5331632653061225
5516.632080078125	2.164785314308287	0.999266676275276	28.0733323724724	1.70494640905492	0.7908903104249914	0.7673447923845836	3377.415384615385	3501.831501831502	0.024906600249066	0.3250620347394541	0.5408163265306122
5536.163330078125	2.043787400177226	1.886134309674802	27.38656903251981	1.342141835804602	1.211137052939074	1.126215601275288	3386.153846153846	3497.435897435897	0.0174346201743462	0.3163771712158809	0.5318877551020408
5555.694580078125	2.501261463604723	1.199699597506032	28.03004024939679	2.401180509657046	-0.07897822050168382	1.547730515427145	3373.046153846154	3495.970695970696	0.0136986301369863	0.3300248138957816	0.5306122448979591
5575.225830078125	2.133751674833984	1.559553026178123	28.04469738218777	1.35038042535807	0.7906327167508176	1.134790459790123	3389.066666666666	3500.3663003663	0.0186799501867995	0.315136476426799	0.5306122448979591
5594.757080078125	1.637514879999146	0.1645547744112059	27.54452255887942	2.044824869802514	0.7764603811499106	1.14896279539103	3371.589743589744	3498.901098901099	0.0286425902864259	0.3163771712158809	0.5267857142857142
5614.288330078125	2.863502531601649	1.488971785386373	27.10282146136271	2.06040722083061	0.3632998064362811	0.7830058186998716	3375.958974358974	3503.296703296703	0.0186799501867995	0.3225806451612903	0.5420918367346939
5633.819580078125	2.453556886970726	0.7987086429440782	28.12913570559221	2.430555555555555	-0.0496031746031746	0.04960317460317461	3355.569230769231	3495.970695970696	0.0224159402241594	0.3312655086848635	0.5293367346938775
5653.350830078125	2.023689392362223	1.249820172207632	27.01798277923686	2.06040722083061	0.3632998064362811	0.7830058186998716	3371.589743589744	3503.296703296703	0.012453300124533	0.3200992555831266	0.5357142857142857
5672.882080078125	1.816826876881686	1.28948137531228	27.05186246877202	1.35038042535807	0.7906327167508176	1.134790459790123	3383.241025641025	3500.3663003663	0.0186799501867995	0.3213399503722084	0.5280612244897959
5692.413330078125	1.982134325689151	1.088147646958341	27.18523530416587	2.067750982305237	0.3706435679109084	0.4084739834938791	3368.676923076923	3506.227106227106	0.0199252801992528	0.3213399503722084	0.5255102040816326
5711.944580078125	2.252267364892277	1.805252172613328	27.47478273866718	1.691153714184506	0.3483546898128527	1.899515156517396	3377.415384615385	3498.901098901099	0.0174346201743462	0.3362282878411911	0.5331632653061225
5731.475830078125	2.320163866824675	1.328200067260265	27.17999327397348	1.690258886105665	0.7762027874757367	1.516408462796569	3390.523076923077	3500.3663003663	0.0186799501867995	0.3287841191066998	0.5267857142857142
5751.007080078125	2.992867943010271	1.042322587705251	27.76774122947494	1.70494640905492	0.7908903104249914	0.7673447923845836	3378.871794871795	3503.296703296703	0.024906600249066	0.3275434243176179	0.5280612244897959
5770.538330078125	1.92996391433391	1.718873443939103	28.11265560608972	2.067750982305237	0.3706435679109084	0.4084739834938791	3367.220512820513	3503.296703296703	0.0199252801992528	0.3300248138957816	0.5395408163265306
5790.069580078125	2.602753900828475	0.9287438211303998	27.12561788696005	1.697602647580292	0.783546548950364	1.141876627590576	3383.241025641025	3498.901098901099	0.0112079701120797	0.3250620347394541	0.5331632653061225
5809.600830078125	1.849766223869921	0.3241921428266394	27.58078571733607	1.70494640905492	0.7908903104249914	0.7673447923845836	3377.415384615385	3503.296703296703	0.0199252801992528	0.3349875930521092	0.534438775510204
5829.132080078125	2.225805822016527	1.595552615143169	28.44473848568318	1.349485597279229	1.218480814413702	0.7516837660692957	3397.805128205128	3507.692307692308	0.0174346201743462	0.3337468982630273	0.5331632653061225
5848.663330078125	1.553828230094164	0.5687736211645635	27.12263788354365	1.697602647580292	0.783546548950364	1.141876627590576	3377.415384615385	3497.435897435897	0.0174346201743462	0.3312655086848635	0.5178571428571428
5868.194580078125	3.359585021512609	0.6828695177545749	27.71304822454252	2.06040722083061	0.3632998064362811	0.7830058186998716	3367.220512820513	3500.3663003663	0.0211706102117061	0.3200992555831266	0.5306122448979591
5887.725830078125	1.82485006565883	1.164217138556147	27.57828614438537	1.697602647580292	0.783546548950364	1.141876627590576	3384.697435897436	3498.901098901099	0.0261519302615193	0.326302729528536	0.5165816326530612
5907.257080078125	1.95917775660325	1.059337833365362	26.0662166634638	1.328349140934188	0.7686014323269357	2.2583859654081	3387.610256410256	3503.296703296703	0.0149439601494396	0.3312655086848635	0.5408163265306122
5926.788330078125	1.945337689236222	2.317169517220763	28.28304827792369	1.713184998608388	0.3703859742367346	0.7759196508994182	3375.958974358974	3503.296703296703	0.024906600249066	0.3188585607940447	0.5357142857142857
5946.319580078125	1.499591967736425	1.806603383298102	27.33966167018982	1.35038042535807	0.7906327167508176	1.134790459790123	3389.066666666666	3500.3663003663	0.0273972602739726	0.3225806451612903	0.5331632653061225
5965.850830078125	1.71077035023381	1.32031800493242	27.96819950675805	1.342141835804602	1.211137052939074	1.126215601275288	3387.610256410256	3500.3663003663	0.0298879202988792	0.3225806451612903	0.5306122448979591
5985.382080078125	2.743721707983687	0.8398711912540304	28.01288087459697	1.342141835804602	1.211137052939074	1.126215601275288	3394.892307692307	3503.296703296703	0.0211706102117061	0.3325062034739454	0.5267857142857142
6004.913330078125	2.189917666228941	0.8864052190762926	27.35947809237077	1.35038042535807	0.7906327167508176	1.134790459790123	3390.523076923077	3501.831501831502	0.0199252801992528	0.3176178660049628	0.5280612244897959
6024.444580078125	1.877062681495954	0.8760626187730874	28.39373812269126	2.06040722083061	0.3632998064362811	0.7830058186998716	3383.241025641025	3509.157509157509	0.0211706102117061	0.3238213399503722	0.5408163265306122
6043.975830078125	2.547060332724788	2.005693434650781	27.43065653492196	1.697602647580292	0.783546548950364	1.141876627590576	3383.241025641025	3498.901098901099	0.0199252801992528	0.3325062034739454	0.5293367346938775
6063.507080078125	2.813539931778874	1.937606095061175	26.23939049388252	2.075094743779865	0.3779873293855357	0.03394214828788659	3365.764102564102	3503.296703296703	0.0323785803237858	0.3349875930521092	0.5459183673469388
6083.038330078125	2.223705773706574	0.8499802489697437	27.00197510302565	2.06040722083061	0.3632998064362811	0.7830058186998716	3368.676923076923	3504.761904761905	0.0224159402241594	0.3250620347394541	0.5318877551020408
6102.569580078125	1.825418575043239	1.446758295432708	27.32417045672923	1.70494640905492	0.7908903104249914	0.7673447923845836	3380.328205128205	3504.761904761905	0.0136986301369863	0.3287841191066998	0.5293367346938775
6122.100830078125	1.999069499604979	0.7159581651826704	28.40418348173296	1.342141835804602	1.211137052939074	1.126215601275288	3387.610256410256	3503.296703296703	0.0149439601494396	0.3238213399503722	0.524234693877551
6141.632080078125	2.102083299970107	0.5250421043922022	27.49578956077979	1.690258886105665	0.7762027874757367	1.516408462796569	3386.153846153846	3501.831501831502	0.0286425902864259	0.3287841191066998	0.5280612244897959
6161.163330078125	2.321717258663763	1.367819566331433	27.2180433668567	1.35038042535807	0.7906327167508176	1.134790459790123	3383.241025641025	3498.901098901099	0.0273972602739726	0.3238213399503722	0.5280612244897959
6180.694580078125	2.208782569181987	1.07889769233233	28.11023076676702	1.713184998608388	0.3703859742367346	0.7759196508994182	3383.241025641025	3503.296703296703	0.0174346201743462	0.3287841191066998	0.5369897959183673
6200.225830078125	2.551600400625627	1.276127743791771	28.38722562082293	1.697602647580292	0.783546548950364	1.141876627590576	3389.066666666666	3500.3663003663	0.0174346201743462	0.3287841191066998	0.5306122448979591
6219.757080078125	2.154039686225525	0.5602493167211156	27.97506832788845	1.357724186832697	0.7979764782254449	0.7602586245841301	3390.523076923077	3506.227106227106	0.0211706102117061	0.3114143920595534	0.5369897959183673
6239.288330078125	1.592438825187368	1.842202613541734	27.77973864582666	2.06040722083061	0.3632998064362811	0.7830058186998716	3373.046153846154	3503.296703296703	0.0224159402241594	0.3200992555831266	0.5306122448979591
6258.819580078125	2.121228454028143	1.36385768315077	27.61423168492302	1.35038042535807	0.7906327167508176	1.134790459790123	3389.066666666666	3497.435897435897	0.0211706102117061	0.3200992555831266	0.5331632653061225
6278.350830078125	2.325648781308052	1.406237989238358	27.37620107616424	1.70494640905492	0.7908903104249914	0.7673447923845836	3383.241025641025	3503.296703296703	0.0186799501867995	0.3225806451612903	0.5331632653061225
6297.882080078125	2.958094953077958	1.321669215617193	27.8330784382807	1.334798074329974	1.203793291464447	1.500747436481281	3403.630769230769	3507.692307692308	0.0236612702366127	0.3275434243176179	0.5331632653061225
6317.413330078125	3.380475739596011	1.318783296500331	28.1216703499669	1.713184998608388	0.3703859742367346	0.7759196508994182	3381.784615384615	3504.761904761905	0.0224159402241594	0.3238213399503722	0.5293367346938775
6336.944580078125	2.23654127431512	1.65157848098563	26.84215190143702	2.067750982305237	0.3706435679109084	0.4084739834938791	3370.133333333333	3501.831501831502	0.0149439601494396	0.3349875930521092	0.5267857142857142
6356.475830078125	2.287200498313156	1.323804462131403	27.61955378685969	1.697602647580292	0.783546548950364	1.141876627590576	3374.502564102564	3498.901098901099	0.0211706102117061	0.3200992555831266	0.5280612244897959
6376.007080078125	1.634722544733414	2.084315213097603	27.56847869023979	2.068645810384079	-0.05720452975197569	0.7915806772147062	3373.046153846154	3503.296703296703	0.0174346201743462	0.3275434243176179	0.5280612244897959
6395.538330078125	1.951925425180962	1.607613421625777	27.23865783742233	2.075989571858706	-0.04986076827734839	0.4170488420087136	3367.220512820513	3501.831501831502	0.0211706102117061	0.3337468982630273	0.5382653061224489
6415.069580078125	3.451887391102428	1.405612428736148	27.43875712638524	1.35038042535807	0.7906327167508176	1.134790459790123	3380.328205128205	3498.901098901099	0.024906600249066	0.3238213399503722	0.5293367346938775
6434.600830078125	2.75287390835522	2.289794322379519	27.02056776204813	2.067750982305237	0.3706435679109084	0.4084739834938791	3370.133333333333	3501.831501831502	0.0136986301369863	0.3188585607940447	0.534438775510204
6454.132080078125	2.558060021779514	0.7282525142527707	27.17474857472295	1.343036663883443	0.7832889552761903	1.509322294996115	3402.174358974359	3503.296703296703	0.0236612702366127	0.3238213399503722	0.524234693877551
6473.663330078125	2.140971977558559	1.051697654431704	26.83023455682959	1.35038042535807	0.7906327167508176	1.134790459790123	3386.153846153846	3497.435897435897	0.0199252801992528	0.3225806451612903	0.5267857142857142
6493.194580078125	2.506906521576666	1.075636436914142	28.43635630858583	2.06040722083061	0.3632998064362811	0.7830058186998716	3378.871794871795	3497.435897435897	0.0149439601494396	0.3300248138957816	0.5293367346938775
6512.725830078125	2.209158906380117	1.603960148292871	27.60398517071296	1.342141835804602	1.211137052939074	1.126215601275288	3399.261538461538	3500.3663003663	0.0273972602739726	0.3238213399503722	0.5357142857142857
6532.257080078125	2.910574541455811	1.688262016099759	27.17379839002413	1.697602647580292	0.783546548950364	1.141876627590576	3384.697435897436	3500.3663003663	0.0211706102117061	0.3176178660049628	0.5280612244897959
6551.788330078125	1.884293160004698	0.7511987407383682	28.88012592616317	1.720528760083016	0.3777297357113619	0.4013878156934256	3375.958974358974	3503.296703296703	0.0186799501867995	0.3238213399503722	0.5293367346938775
6571.319580078125	1.937760733617321	0.4834541749407471	27.65458250592531	1.70494640905492	0.7908903104249914	0.7673447923845836	3377.415384615385	3504.761904761905	0.0236612702366127	0.326302729528536	0.5357142857142857
6590.850830078125	1.785008534313411	0.8400630298080414	27.99369701919586	1.35038042535807	0.7906327167508176	1.134790459790123	3383.241025641025	3497.435897435897	0.0149439601494396	0.3225806451612903	0.5293367346938775
6610.382080078125	2.66628065413277	1.362147817778063	27.78521822219375	1.713184998608388	0.3703859742367346	0.7759196508994182	3370.133333333333	3501.831501831502	0.0174346201743462	0.3163771712158809	0.5318877551020408
6629.913330078125	2.648520741250827	1.775157874789145	26.48421252108556	1.697602647580292	0.783546548950364	1.141876627590576	3383.241025641025	3498.901098901099	0.0236612702366127	0.315136476426799	0.5178571428571428
6649.444580078125	2.496032778703051	0.7982999434159676	28.17000565840326	2.415868032606301	-0.06429069755242921	0.7986668450151597	3365.764102564102	3494.505494505494	0.0298879202988792	0.3163771712158809	0.5306122448979591
6668.975830078125	2.678867932334038	1.477002727777422	28.29972722225781	1.689364058026824	1.204050885138621	1.133301769075742	3400.717948717948	3500.3663003663	0.0224159402241594	0.326302729528536	0.5331632653061225
6688.507080078125	2.665992395853351	1.725929766404031	27.40702335959687	1.696707819501451	1.211394646613248	0.7587699338697491	3380.328205128205	3501.831501831502	0.0236612702366127	0.326302729528536	0.5229591836734694
6708.038330078125	2.218447228716931	1.882097359233874	27.79026407661264	2.06040722083061	0.3632998064362811	0.7830058186998716	3373.046153846154	3501.831501831502	0.0224159402241594	0.3349875930521092	0.5318877551020408
6727.569580078125	1.704716926366024	0.959738926077766	28.02610739222343	2.777777777777778	-0.05668934240362811	0.05668934240362812	3355.569230769231	3501.831501831502	0.0136986301369863	0.3200992555831266	0.5420918367346939
6747.100830078125	2.041665498953729	1.563973653727073	27.60263462729272	1.697602647580292	0.783546548950364	1.141876627590576	3386.153846153846	3497.435897435897	0.024906600249066	0.3188585607940447	0.5267857142857142
6766.632080078125	1.817907845429505	0.9252990679648969	27.47009320351035	1.342141835804602	1.211137052939074	1.126215601275288	3403.630769230769	3501.831501831502	0.024906600249066	0.3238213399503722	0.5395408163265306
6786.163330078125	2.46008273412978	1.563089528217283	27.69104717827173	1.728767349636484	-0.04277460047689488	0.4099626742082601	3374.502564102564	3501.831501831502	0.024906600249066	0.3325062034739454	0.5306122448979591
6805.694580078125	1.404591180364273	1.489263713620738	27.07362863792625	2.067750982305237	0.3706435679109084	0.4084739834938791	3371.589743589744	3503.296703296703	0.0149439601494396	0.3200992555831266	0.5357142857142857
6825.225830078125	2.620697978722268	1.283317519163838	27.66824808361625	1.35038042535807	0.7906327167508176	1.134790459790123	3387.610256410256	3500.3663003663	0.0199252801992528	0.3238213399503722	0.5318877551020408
6844.757080078125	2.010920117758845	1.760478055003951	27.95219449960498	1.681125468473355	1.624555221326878	1.124726910560907	3387.610256410256	3500.3663003663	0.012453300124533	0.3225806451612903	0.5331632653061225
6864.288330078125	2.149627733115538	1.128134141524139	27.18658584758611	2.075989571858706	-0.04986076827734839	0.4170488420087136	3367.220512820513	3500.3663003663	0.0236612702366127	0.337468982630273	0.5267857142857142
6883.819580078125	2.289204460529969	2.190637477846818	28.93625221531826	1.70494640905492	0.7908903104249914	0.7673447923845836	3371.589743589744	3503.296703296703	0.0211706102117061	0.3287841191066998	0.5280612244897959
6903.350830078125	1.897783080306621	1.331085986377127	26.89140136228728	2.41497320452746	0.3635574001104549	0.4155601512943327	3367.220512820513	3501.831501831502	0.0161892901618929	0.3238213399503722	0.5280612244897959
6922.882080078125	2.247423024363163	0.9188099203553053	28.1190079644695	1.35038042535807	0.7906327167508176	1.134790459790123	3386.153846153846	3497.435897435897	0.0199252801992528	0.3349875930521092	0.5357142857142857
6942.413330078125	1.790837757297205	1.483583624260671	27.64163757393291	1.70494640905492	0.7908903104249914	0.7673447923845836	3383.241025641025	3501.831501831502	0.03362391033623911	0.3213399503722084	0.5357142857142857
6961.944580078125	1.972439806066235	1.718464744410992	28.15352555890078	2.067750982305237	0.3706435679109084	0.4084739834938791	3367.220512820513	3504.761904761905	0.0261519302615193	0.3325062034739454	0.5229591836734694
6981.475830078125	2.38144060411462	1.601124274016186	27.88757259838149	1.697602647580292	0.783546548950364	1.141876627590576	3380.328205128205	3500.3663003663	0.0199252801992528	0.315136476426799	0.5318877551020408
7001.007080078125	1.696565622798027	1.246684028889886	27.33159711101147	1.681125468473355	1.624555221326878	1.124726910560907	3386.153846153846	3500.3663003663	0.0224159402241594	0.3275434243176179	0.5216836734693877
7020.538330078125	1.894836440117012	1.049745905664809	27.0254094335191	1.736111111111111	-0.03543083900226757	0.03543083900226757	3368.676923076923	3504.761904761905	0.0186799501867995	0.3250620347394541	0.534438775510204
7040.069580078125	2.733384445796767	0.8854960711464139	27.45039288535862	1.689364058026824	1.204050885138621	1.133301769075742	3386.153846153846	3497.435897435897	0.0298879202988792	0.3349875930521092	0.5229591836734694
7059.600830078125	1.904541135524096	0.8024203019238572	27.75796980761429	1.697602647580292	0.783546548950364	1.141876627590576	3386.153846153846	3497.435897435897	0.0149439601494396	0.3200992555831266	0.5255102040816326
7079.132080078125	2.570014733200948	0.6414067004035617	27.85932995964384	1.343036663883443	0.7832889552761903	1.509322294996115	3405.087179487179	3501.831501831502	0.0136986301369863	0.337468982630273	0.5331632653061225
7098.663330078125	2.318706561078726	1.167319918647108	27.26800813528922	1.35038042535807	0.7906327167508176	1.134790459790123	3381.784615384615	3498.901098901099	0.0149439601494396	0.3300248138957816	0.5293367346938775
7118.194580078125	1.986418164008285	0.6819436882113041	27.8056311788696	2.06040722083061	0.3632998064362811	0.7830058186998716	3368.676923076923	3504.761904761905	0.024906600249066	0.3275434243176179	0.524234693877551
7137.725830078125	1.994337259517861	1.688045155125659	27.19548448743407	1.334798074329974	1.203793291464447	1.500747436481281	3399.261538461538	3500.3663003663	0.0161892901618929	0.3213399503722084	0.5267857142857142
7157.257080078125	1.668134315012918	1.522827787030513	27.71722129694873	1.358619014911539	0.3701283805625608	1.143365318304957	3371.589743589744	3498.901098901099	0.0136986301369863	0.3188585607940447	0.5331632653061225
7176.788330078125	2.32079643360451	1.529900791108834	27.00992088911665	2.068645810384079	-0.05720452975197569	0.7915806772147062	3375.958974358974	3503.296703296703	0.024906600249066	0.3163771712158809	0.5293367346938775
7196.319580078125	2.327426374031132	1.16291597271155	27.70840272884504	1.697602647580292	0.783546548950364	1.141876627590576	3377.415384615385	3498.901098901099	0.0224159402241594	0.3213399503722084	0.5318877551020408
7215.850830078125	2.983067161510046	1.410908840988192	26.90911590118079	1.35038042535807	0.7906327167508176	1.134790459790123	3390.523076923077	3500.3663003663	0.0199252801992528	0.3300248138957816	0.5293367346938775
7235.382080078125	2.414948460487263	0.9183761984071063	28.16238015928939	1.704051580976079	1.218738408087876	0.3842380986637566	3374.502564102564	3500.3663003663	0.0298879202988792	0.3287841191066998	0.5420918367346939
7254.913330078125	2.256102801443427	1.964931245062243	27.50687549377576	1.697602647580292	0.783546548950364	1.141876627590576	3383.241025641025	3498.901098901099	0.0273972602739726	0.3213399503722084	0.5318877551020408
7274.444580078125	2.03783006240258	1.404294581278159	27.57054187218414	2.075989571858706	-0.04986076827734839	0.4170488420087136	3361.394871794872	3504.761904761905	0.0186799501867995	0.315136476426799	0.5293367346938775
7293.975830078125	1.542388146445882	1.401992518630026	27.80074813699742	1.705841237133761	0.3630422127621073	1.150451486105411	3386.153846153846	3500.3663003663	0.0261519302615193	0.3300248138957816	0.520408163265306
7313.507080078125	2.853239502594325	1.836747725962463	28.32522740375377	1.374201365939634	-0.04303219415106867	0.7774083416137991	3377.415384615385	3503.296703296703	0.0273972602739726	0.3325062034739454	0.5331632653061225
7333.038330078125	2.089498190378579	1.803283742233041	27.67162577669592	2.06040722083061	0.3632998064362811	0.7830058186998716	3371.589743589744	3504.761904761905	0.0186799501867995	0.3200992555831266	0.5255102040816326
7352.569580078125	1.456547566619691	1.524470925949651	27.55290740503491	1.343036663883443	0.7832889552761903	1.509322294996115	3390.523076923077	3501.831501831502	0.0186799501867995	0.3225806451612903	0.5331632653061225
7372.100830078125	2.076502546281468	1.203786592787137	27.62134072128627	1.690258886105665	0.7762027874757367	1.516408462796569	3387.610256410256	3500.3663003663	0.0199252801992528	0.3238213399503722	0.5408163265306122
7391.632080078125	2.483917923793052	1.087246839835159	27.2753160164841	1.697602647580292	0.783546548950364	1.141876627590576	3383.241025641025	3498.901098901099	0.0174346201743462	0.3349875930521092	0.5306122448979591
7411.163330078125	2.119899263073047	1.041296668481626	27.87033315183738	1.35038042535807	0.7906327167508176	1.134790459790123	3389.066666666666	3500.3663003663	0.0311332503113325	0.3325062034739454	0.5357142857142857
7430.694580078125	2.16458513494758	2.251893029487754	26.81069705122457	2.06040722083061	0.3632998064362811	0.7830058186998716	3371.589743589744	3500.3663003663	0.0149439601494396	0.3200992555831266	0.5267857142857142
7450.225830078125	2.073619963487285	0.8416060790468262	27.8393920953174	1.35038042535807	0.7906327167508176	1.134790459790123	3381.784615384615	3500.3663003663	0.0211706102117061	0.3300248138957816	0.5318877551020408
7469.757080078125	2.829810510217155	1.404136105950932	27.5863894049068	1.358619014911539	0.3701283805625608	1.143365318304957	3387.610256410256	3500.3663003663	0.008717310087173101	0.3300248138957816	0.5306122448979591
7489.288330078125	2.083981247197489	1.765666036768945	27.4333963231055	2.067750982305237	0.3706435679109084	0.4084739834938791	3370.133333333333	3503.296703296703	0.03362391033623911	0.3312655086848635	0.5369897959183673
7508.819580078125	2.160501475989153	1.405470635022313	27.45293649776867	1.697602647580292	0.783546548950364	1.141876627590576	3389.066666666666	3500.3663003663	0.0286425902864259	0.3275434243176179	0.5280612244897959
7528.350830078125	2.016274748841629	0.6071002951978307	27.28997048021694	1.70494640905492	0.7908903104249914	0.7673447923845836	3381.784615384615	3501.831501831502	0.0199252801992528	0.326302729528536	0.5229591836734694
7547.882080078125	1.787226521630047	1.040963036213781	27.90369637862191	1.35038042535807	0.7906327167508176	1.134790459790123	3384.697435897436	3497.435897435897	0.0273972602739726	0.3200992555831266	0.5331632653061225
7567.413330078125	3.497662238699208	1.241921428266394	27.80785717336066	1.697602647580292	0.783546548950364	1.141876627590576	3377.415384615385	3497.435897435897	0.0211706102117061	0.3225806451612903	0.5331632653061225
7586.944580078125	1.959219961085132	1.401909110563065	27.80908894369355	1.713184998608388	0.3703859742367346	0.7759196508994182	3367.220512820513	3497.435897435897	0.0311332503113325	0.3213399503722084	0.524234693877551
7606.475830078125	1.741515731428693	1.123813603655542	27.6186396344458	1.697602647580292	0.783546548950364	1.141876627590576	3383.241025641025	3498.901098901099	0.0236612702366127	0.3225806451612903	0.5369897959183673
7626.007080078125	1.49550030160357	1.97028604296116	26.97139570388401	2.052168631277142	0.7838041426245379	0.7744309601850372	3373.046153846154	3504.761904761905	0.0236612702366127	0.3275434243176179	0.5331632653061225
7645.538330078125	1.87918458271945	1.198223274720817	28.17767252791835	2.052168631277142	0.7838041426245379	0.7744309601850372	3377.415384615385	3503.296703296703	0.0211706102117061	0.3225806451612903	0.524234693877551
7665.069580078125	1.513380322101937	2.405700174022591	27.42998259774091	1.35038042535807	0.7906327167508176	1.134790459790123	3384.697435897436	3498.901098901099	0.0286425902864259	0.3287841191066998	0.5369897959183673
7684.600830078125	2.341150671001217	1.842853196464032	27.71468035359682	1.690258886105665	0.7762027874757367	1.516408462796569	3389.066666666666	3500.3663003663	0.0211706102117061	0.3200992555831266	0.5293367346938775
7704.132080078125	2.073321529423697	0.8223965339610959	25.76034660389042	1.342141835804602	1.211137052939074	1.126215601275288	3383.241025641025	3498.901098901099	0.009962640099626401	0.3225806451612903	0.5318877551020408
7723.663330078125	2.117232873988427	1.406279693271838	27.37203067281618	1.697602647580292	0.783546548950364	1.141876627590576	3383.241025641025	3498.901098901099	0.0199252801992528	0.3238213399503722	0.5216836734693877
7743.194580078125	2.446670716962399	1.489055193453335	27.09448065466658	2.423211794080928	-0.05694693607780191	0.4241350098091671	3373.046153846154	3500.3663003663	0.0236612702366127	0.3238213399503722	0.5280612244897959
7762.725830078125	2.666817134819465	1.685109191168621	27.48908088313796	2.423211794080928	-0.05694693607780191	0.4241350098091671	3355.569230769231	3498.901098901099	0.0199252801992528	0.3188585607940447	0.5382653061224489
7782.257080078125	1.958267107328166	1.604410551854462	27.55894481455384	2.06040722083061	0.3632998064362811	0.7830058186998716	3365.764102564102	3503.296703296703	0.0261519302615193	0.3238213399503722	0.534438775510204
7801.788330078125	2.002264362201866	1.684041567911516	27.59584320884846	2.052168631277142	0.7838041426245379	0.7744309601850372	3377.415384615385	3503.296703296703	0.024906600249066	0.3188585607940447	0.5280612244897959
7821.319580078125	2.354968885454701	1.008433222834327	27.15667771656738	1.70494640905492	0.7908903104249914	0.7673447923845836	3387.610256410256	3507.692307692308	0.0286425902864259	0.3300248138957816	0.524234693877551
7840.850830078125	2.207795518117567	-0.0712771977024747	27.12771977024747	2.052168631277142	0.7838041426245379	0.7744309601850372	3377.415384615385	3504.761904761905	0.0186799501867995	0.3200992555831266	0.5395408163265306
7860.382080078125	2.196379455992569	1.73162653737749	26.83734626225098	1.705841237133761	0.3630422127621073	1.150451486105411	3378.871794871795	3497.435897435897	0.0311332503113325	0.3287841191066998	0.534438775510204
7879.913330078125	1.70838421225418	2.331624135225162	26.83758647748383	1.35038042535807	0.7906327167508176	1.134790459790123	3389.066666666666	3500.3663003663	0.0199252801992528	0.3250620347394541	0.524234693877551
7899.444580078125	2.495520319539641	1.445023407639912	27.4976592360088	2.06040722083061	0.3632998064362811	0.7830058186998716	3370.133333333333	3504.761904761905	0.0261519302615193	0.3275434243176179	0.534438775510204
7918.975830078125	1.47417719610104	-0.119954812845643	27.9954812845643	1.697602647580292	0.783546548950364	1.141876627590576	3381.784615384615	3498.901098901099	0.024906600249066	0.326302729528536	0.5255102040816326
7938.507080078125	2.477992614716119	0.5649868949245192	27.5013105075481	1.70494640905492	0.7908903104249914	0.7673447923845836	3375.958974358974	3501.831501831502	0.009962640099626401	0.3200992555831266	0.5306122448979591
7958.038330078125	2.12867512624645	1.966157343646575	27.3842656353426	1.713184998608388	0.3703859742367346	0.7759196508994182	3373.046153846154	3503.296703296703	0.0261519302615193	0.3287841191066998	0.5293367346938775
7977.569580078125	1.999413808105396	1.281440837657208	27.85591623427925	1.342141835804602	1.211137052939074	1.126215601275288	3383.241025641025	3498.901098901099	0.0224159402241594	0.3275434243176179	0.524234693877551
7997.100830078125	2.059919688040484	1.131353692908847	26.86463070911537	2.059512392751769	0.7911479040991651	0.3998991249790446	3371.589743589744	3501.831501831502	0.0236612702366127	0.3213399503722084	0.5357142857142857
8016.632080078125	2.196067176189866	1.125723648388957	27.42763516110435	1.690258886105665	0.7762027874757367	1.516408462796569	3391.979487179487	3503.296703296703	0.0224159402241594	0.326302729528536	0.5382653061224489
8036.163330078125	1.716599573217603	1.963838599385049	27.6161400614951	1.705841237133761	0.3630422127621073	1.150451486105411	3378.871794871795	3497.435897435897	0.0236612702366127	0.3250620347394541	0.5229591836734694
8055.694580078125	2.285230733403797	1.80964777774219	27.03522222578097	2.052168631277142	0.7838041426245379	0.7744309601850372	3374.502564102564	3503.296703296703	0.0161892901618929	0.3312655086848635	0.5280612244897959
8075.225830078125	2.17702027683471	1.558743967928598	28.12560320714026	1.70494640905492	0.7908903104249914	0.7673447923845836	3383.241025641025	3503.296703296703	0.0149439601494396	0.3275434243176179	0.5267857142857142
8094.757080078125	2.394530165695129	0.686264226079901	27.37357739200991	1.690258886105665	0.7762027874757367	1.516408462796569	3387.610256410256	3500.3663003663	0.0161892901618929	0.3287841191066998	0.5280612244897959
8114.288330078125	3.27887704049495	1.328008228706254	27.19917712937459	2.423211794080928	-0.05694693607780191	0.4241350098091671	3367.220512820513	3503.296703296703	0.0261519302615193	0.3362282878411911	0.5293367346938775
8133.819580078125	2.499611985672496	1.281340747976854	27.86592520231461	1.35038042535807	0.7906327167508176	1.134790459790123	3381.784615384615	3498.901098901099	0.012453300124533	0.3275434243176179	0.5433673469387754
8153.350830078125	2.069272067772725	1.328650470821857	27.13495291781436	1.70494640905492	0.7908903104249914	0.7673447923845836	3387.610256410256	3506.227106227106	0.0273972602739726	0.3126550868486352	0.5280612244897959
8172.882080078125	2.107055755290073	1.24980349059424	27.01965094057609	1.342141835804602	1.211137052939074	1.126215601275288	3402.174358974359	3500.3663003663	0.0199252801992528	0.3337468982630273	0.534438775510204
8192.413330078125	2.253028046462964	1.845272030405911	27.47279695940896	1.342141835804602	1.211137052939074	1.126215601275288	3389.066666666666	3500.3663003663	0.0224159402241594	0.3176178660049628	0.534438775510204
8211.944580078125	2.082179632951124	1.039303215681251	28.06967843187496	2.06040722083061	0.3632998064362811	0.7830058186998716	3368.676923076923	3503.296703296703	0.0211706102117061	0.3176178660049628	0.5255102040816326
8231.475830078125	2.535049571082356	1.163274627399483	27.67253726005167	1.334798074329974	1.203793291464447	1.500747436481281	3402.174358974359	3500.3663003663	0.0224159402241594	0.3250620347394541	0.5229591836734694
8251.007080078125	2.947157152808917	1.125173155147012	27.48268448529883	2.045719697881355	0.3486122834870265	1.532069489111857	3381.784615384615	3497.435897435897	0.0149439601494396	0.3287841191066998	0.5408163265306122
8270.538330078125	1.922861550616019	1.682056455917836	27.79435440821643	1.704051580976079	1.218738408087876	0.3842380986637566	3377.415384615385	3503.296703296703	0.0236612702366127	0.3200992555831266	0.5293367346938775
8290.069580078125	1.33232276119403	1.483675373134329	27.63246268656716	2.786016367331246	-0.4771936785918849	0.06526420091846263	3357.025641025641	3500.3663003663	0.0236612702366127	0.3312655086848635	0.534438775510204
8309.600830078125	2.463381689994235	1.399807227275639	28.0192772724361	2.067750982305237	0.3706435679109084	0.4084739834938791	3371.589743589744	3501.831501831502	0.0286425902864259	0.3225806451612903	0.5293367346938775
8329.132080078125	1.450902508647749	1.648534086541541	27.14659134584588	1.70494640905492	0.7908903104249914	0.7673447923845836	3378.871794871795	3504.761904761905	0.0186799501867995	0.3362282878411911	0.5267857142857142
8348.663330078125	1.967256995601392	1.863338217709735	25.66617822902654	1.365962776386166	0.3774721420371881	0.7688334830989646	3391.979487179487	3501.831501831502	0.0112079701120797	0.3238213399503722	0.5318877551020408
8368.194580078125	2.184723178634723	1.83768189631243	28.23181036875707	2.067750982305237	0.3706435679109084	0.4084739834938791	3365.764102564102	3503.296703296703	0.0211706102117061	0.3275434243176179	0.5331632653061225
8387.725830078125	1.852018408494011	1.877768480558581	28.22315194414195	2.430555555555555	-0.0496031746031746	0.04960317460317461	3361.394871794872	3500.3663003663	0.0199252801992528	0.3312655086848635	0.5306122448979591
8407.257080078125	2.675408832981018	1.842386111289049	27.76138887109517	2.045719697881355	0.3486122834870265	1.532069489111857	3373.046153846154	3498.901098901099	0.0161892901618929	0.3287841191066998	0.5382653061224489
8426.788330078125	1.680177105353063	2.324826377767814	27.51736222321867	2.059512392751769	0.7911479040991651	0.3998991249790446	3377.415384615385	3503.296703296703	0.0236612702366127	0.3213399503722084	0.534438775510204
8446.319580078125	2.113301351344138	1.367861270364914	27.21387296350864	1.713184998608388	0.3703859742367346	0.7759196508994182	3381.784615384615	3503.296703296703	0.0174346201743462	0.3337468982630273	0.5331632653061225
8465.850830078125	2.339028769777721	1.520692540516303	27.93074594836974	1.70494640905492	0.7908903104249914	0.7673447923845836	3387.610256410256	3503.296703296703	0.037359900373599	0.3287841191066998	0.5357142857142857
8485.382080078125	1.796731037676425	2.046263785685308	27.37362143146926	1.334798074329974	1.203793291464447	1.500747436481281	3400.717948717948	3501.831501831502	0.0224159402241594	0.3238213399503722	0.5280612244897959
8504.913330078125	1.798914827685606	0.8944874607648454	26.55125392351547	1.697602647580292	0.783546548950364	1.141876627590576	3389.066666666666	3500.3663003663	0.0224159402241594	0.3287841191066998	0.5267857142857142
8524.444580078125	1.962422830856447	1.359887459163411	28.01125408365896	2.407629443052833	0.3562136386358276	0.7900919865003252	3367.220512820513	3503.296703296703	0.0174346201743462	0.3287841191066998	0.5318877551020408
8543.975830078125	1.996467167915786	1.000100756944889	27.98992430551107	1.334798074329974	1.203793291464447	1.500747436481281	3399.261538461538	3500.3663003663	0.012453300124533	0.3250620347394541	0.534438775510204
8563.507080078125	2.816278385433348	0.4816775831144707	27.83224168855294	1.705841237133761	0.3630422127621073	1.150451486105411	3371.589743589744	3493.040293040293	0.0298879202988792	0.3238213399503722	0.5216836734693877
8583.038330078125	1.95998064265582	1.441928968355647	27.80710316443533	2.075094743779865	0.3779873293855357	0.03394214828788659	3368.676923076923	3501.831501831502	0.0224159402241594	0.3238213399503722	0.5357142857142857
8602.569580078125	2.064964207930306	0.7651695919543913	27.48304080456089	1.697602647580292	0.783546548950364	1.141876627590576	3387.610256410256	3501.831501831502	0.009962640099626401	0.3337468982630273	0.5191326530612245
8622.100830078125	1.694884116168087	1.368745395874704	27.12546041252963	1.697602647580292	0.783546548950364	1.141876627590576	3375.958974358974	3498.901098901099	0.0199252801992528	0.3225806451612903	0.5267857142857142
8641.632080078125	1.709817496476843	1.522819446223817	27.71805537761835	1.35038042535807	0.7906327167508176	1.134790459790123	3387.610256410256	3500.3663003663	0.0236612702366127	0.3275434243176179	0.5331632653061225
8661.163330078125	2.728500069395512	1.049579089530887	27.04209104691137	1.712290170529547	0.7982340718996186	0.3928129571785911	3380.328205128205	3503.296703296703	0.0149439601494396	0.3275434243176179	0.520408163265306
8680.694580078125	1.528567763382658	0.8433159444195333	27.66840555804668	2.075989571858706	-0.04986076827734839	0.4170488420087136	3368.676923076923	3503.296703296703	0.0186799501867995	0.3287841191066998	0.5382653061224489
8700.225830078125	2.708027892992121	1.281299043943374	27.87009560566268	1.70494640905492	0.7908903104249914	0.7673447923845836	3381.784615384615	3503.296703296703	0.024906600249066	0.3213399503722084	0.5331632653061225
8719.757080078125	2.388134601936669	1.153299022590908	28.67009774090919	2.059512392751769	0.7911479040991651	0.3998991249790446	3371.589743589744	3503.296703296703	0.0236612702366127	0.3213399503722084	0.5331632653061225
8739.288330078125	3.040004010259859	1.160772385390644	27.92276146093566	1.720528760083016	0.3777297357113619	0.4013878156934256	3370.133333333333	3501.831501831502	0.0211706102117061	0.3312655086848635	0.5331632653061225
8758.819580078125	1.707663566555634	1.241079006790084	27.89209932099161	1.697602647580292	0.783546548950364	1.141876627590576	3383.241025641025	3497.435897435897	0.0136986301369863	0.3287841191066998	0.5306122448979591
8778.350830078125	1.776160606570154	1.006147841799586	27.38521582004142	1.690258886105665	0.7762027874757367	1.516408462796569	3383.241025641025	3498.901098901099	0.0323785803237858	0.3238213399503722	0.534438775510204
8797.882080078125	2.668690813635684	1.320526525099823	27.94734749001772	1.35038042535807	0.7906327167508176	1.134790459790123	3381.784615384615	3498.901098901099	0.0199252801992528	0.326302729528536	0.5280612244897959
8817.413330078125	2.089498190378579	1.803283742233041	27.67162577669592	1.342141835804602	1.211137052939074	1.126215601275288	3384.697435897436	3497.435897435897	0.0224159402241594	0.326302729528536	0.5357142857142857
8836.944580078125	2.242979042555463	1.527114961672325	27.28850383276749	2.407629443052833	0.3562136386358276	0.7900919865003252	3370.133333333333	3501.831501831502	0.0174346201743462	0.3287841191066998	0.5369897959183673
8856.475830078125	1.792735457636709	2.088685795806376	27.13142041936242	1.342141835804602	1.211137052939074	1.126215601275288	3381.784615384615	3498.901098901099	0.0186799501867995	0.3188585607940447	0.5357142857142857
8876.007080078125	1.735462307560908	0.7632345248008883	27.67654751991118	2.067750982305237	0.3706435679109084	0.4084739834938791	3377.415384615385	3503.296703296703	0.0236612702366127	0.3325062034739454	0.5293367346938775
8895.538330078125	2.778174410938868	0.9647267284820534	27.52732715179467	1.713184998608388	0.3703859742367346	0.7759196508994182	3374.502564102564	3504.761904761905	0.0199252801992528	0.3362282878411911	0.5357142857142857
8915.069580078125	1.801292958490808	0.8932863846006023	26.67136153993979	1.705841237133761	0.3630422127621073	1.150451486105411	3373.046153846154	3498.901098901099	0.0136986301369863	0.326302729528536	0.5229591836734694
8934.600830078125	2.164465027331155	1.403468841415241	27.65311585847586	1.342141835804602	1.211137052939074	1.126215601275288	3383.241025641025	3498.901098901099	0.008717310087173101	0.3300248138957816	0.5216836734693877
8954.132080078125	2.544113692535178	1.724353353938462	27.56466460615378	1.357724186832697	0.7979764782254449	0.7602586245841301	3378.871794871795	3504.761904761905	0.0311332503113325	0.3176178660049628	0.5357142857142857
8973.663330078125	2.974851800546623	1.778694376828305	26.13056231716952	1.35038042535807	0.7906327167508176	1.134790459790123	3390.523076923077	3500.3663003663	0.0112079701120797	0.3250620347394541	0.534438775510204
8993.194580078125	1.502826866205453	1.724161515384451	27.58384846155489	2.762195426749682	0.3564712323100014	0.4226463190947862	3367.220512820513	3500.3663003663	0.0161892901618929	0.3349875930521092	0.534438775510204
9012.725830078125	2.155368877180621	0.882810331390259	27.7189668609741	1.697602647580292	0.783546548950364	1.141876627590576	3384.697435897436	3497.435897435897	0.0136986301369863	0.3114143920595534	0.5306122448979591
9032.257080078125	1.746023770631819	0.434668129310529	28.53318706894711	2.068645810384079	-0.05720452975197569	0.7915806772147062	3377.415384615385	3500.3663003663	0.0174346201743462	0.3349875930521092	0.5306122448979591
9051.788330078125	2.0412891617556	1.038911197766532	28.10888022334678	1.70494640905492	0.7908903104249914	0.7673447923845836	3375.958974358974	3504.761904761905	0.0199252801992528	0.3225806451612903	0.5216836734693877
9071.319580078125	2.000462747955502	0.957678746823821	28.23212531761792	1.696707819501451	1.211394646613248	0.7587699338697491	3390.523076923077	3503.296703296703	0.0236612702366127	0.3300248138957816	0.5280612244897959
9090.850830078125	1.881818943106357	0.8736604664446011	28.6339533555399	1.696707819501451	1.211394646613248	0.7587699338697491	3381.784615384615	3503.296703296703	0.0261519302615193	0.3225806451612903	0.5280612244897959
9110.382080078125	2.368509017412936	0.9207866915422889	27.92133084577115	1.689364058026824	1.204050885138621	1.133301769075742	3394.892307692307	3500.3663003663	0.024906600249066	0.337468982630273	0.5280612244897959
9129.913330078125	1.48292103057673	0.8453260788333015	27.46739211666987	2.407629443052833	0.3562136386358276	0.7900919865003252	3373.046153846154	3503.296703296703	0.024906600249066	0.3287841191066998	0.5318877551020408
9149.444580078125	2.012057136527662	2.325560368757074	27.4439631242927	2.06040722083061	0.3632998064362811	0.7830058186998716	3373.046153846154	3503.296703296703	0.0136986301369863	0.3300248138957816	0.5255102040816326
9168.975830078125	1.525495177011936	2.1167532776034	28.32467223966007	2.036586280249046	1.196964717338167	1.140387936876195	3383.241025641025	3498.901098901099	0.0286425902864259	0.3300248138957816	0.5293367346938775
9188.507080078125	2.266760350607478	1.515104200029894	28.48957999701065	1.705841237133761	0.3630422127621073	1.150451486105411	3377.415384615385	3495.970695970696	0.009962640099626401	0.3287841191066998	0.5280612244897959
9208.038330078125	2.133719646136271	1.599973242692119	28.00267573078812	2.06040722083061	0.3632998064362811	0.7830058186998716	3365.764102564102	3504.761904761905	0.0273972602739726	0.3188585607940447	0.520408163265306
9227.569580078125	1.591710172314394	1.761762539235155	27.82374607648453	1.697602647580292	0.783546548950364	1.141876627590576	3389.066666666666	3500.3663003663	0.0236612702366127	0.3225806451612903	0.5293367346938775
9247.100830078125	1.667061353639528	0.8769050402493968	28.30949597506032	1.70494640905492	0.7908903104249914	0.7673447923845836	3378.871794871795	3504.761904761905	0.0136986301369863	0.3188585607940447	0.520408163265306
9266.632080078125	2.740390723421519	1.043573708709671	27.64262912903295	1.697602647580292	0.783546548950364	1.141876627590576	3390.523076923077	3501.831501831502	0.0224159402241594	0.3275434243176179	0.5280612244897959
9286.163330078125	1.971679124495548	1.67844488661841	28.15551133815899	1.697602647580292	0.783546548950364	1.141876627590576	3377.415384615385	3497.435897435897	0.0161892901618929	0.326302729528536	0.524234693877551
9305.694580078125	1.914365938547606	1.403518886255418	27.64811137445818	2.067750982305237	0.3706435679109084	0.4084739834938791	3370.133333333333	3501.831501831502	0.0273972602739726	0.3213399503722084	0.5331632653061225
9325.225830078125	2.410664622168129	1.324580157154144	27.54198428458566	1.70494640905492	0.7908903104249914	0.7673447923845836	3384.697435897436	3503.296703296703	0.0311332503113325	0.3300248138957816	0.5331632653061225
9344.757080078125	2.432668337497064	1.55589141203852	28.41085879614801	1.713184998608388	0.3703859742367346	0.7759196508994182	3377.415384615385	3498.901098901099	0.0136986301369863	0.3337468982630273	0.5369897959183673
9364.288330078125	1.829606327269233	1.16181498622766	27.818501377234	1.713184998608388	0.3703859742367346	0.7759196508994182	3380.328205128205	3506.227106227106	0.0149439601494396	0.3238213399503722	0.5433673469387754
9383.819580078125	1.580634081470331	1.343955851109261	25.60441488907394	2.06040722083061	0.3632998064362811	0.7830058186998716	3378.871794871795	3503.296703296703	0.0298879202988792	0.3200992555831266	0.5229591836734694
9403.350830078125	2.157618893194969	1.043290121282002	27.6709878717998	3.780041152834785	1.168877639810527	0.8012869406724702	3373.046153846154	3504.761904761905	0.0186799501867995	0.3225806451612903	0.5306122448979591
9422.882080078125	2.148138398671877	1.007674209424978	27.23257905750219	1.343036663883443	0.7832889552761903	1.509322294996115	3390.523076923077	3503.296703296703	0.0211706102117061	0.326302729528536	0.5267857142857142
9442.413330078125	2.632332403166571	1.600673870454594	27.9326129545406	1.682020296552197	1.196707123663994	1.507833604281734	3389.066666666666	3500.3663003663	0.0161892901618929	0.3225806451612903	0.5408163265306122
9461.944580078125	1.375815564078748	1.199924799286828	28.00752007131723	2.075989571858706	-0.04986076827734839	0.4170488420087136	3368.676923076923	3501.831501831502	0.0236612702366127	0.3275434243176179	0.5318877551020408
9481.475830078125	2.222378751361219	1.920515782140798	27.94842178592018	2.430555555555555	-0.0496031746031746	0.04960317460317461	3361.394871794872	3500.3663003663	0.012453300124533	0.3362282878411911	0.5267857142857142
9501.007080078125	2.417134419106186	1.159696421326842	28.03035786731578	2.41497320452746	0.3635574001104549	0.4155601512943327	3377.415384615385	3501.831501831502	0.0149439601494396	0.3138957816377171	0.5306122448979591
9520.538330078125	1.425577984540815	2.003916842824505	27.60831571754959	2.067750982305237	0.3706435679109084	0.4084739834938791	3371.589743589744	3501.831501831502	0.0298879202988792	0.3250620347394541	0.534438775510204
9540.069580078125	2.339349056754852	1.116490375376338	28.35096246236628	1.705841237133761	0.3630422127621073	1.150451486105411	3377.415384615385	3498.901098901099	0.0261519302615193	0.337468982630273	0.5229591836734694
9559.600830078125	2.035900333365362	0.8396126262464503	28.03873737535499	1.342141835804602	1.211137052939074	1.126215601275288	3384.697435897436	3497.435897435897	0.0224159402241594	0.326302729528536	0.5255102040816326
9579.132080078125	2.472819980035445	1.092851861934961	26.71481380650396	1.689364058026824	1.204050885138621	1.133301769075742	3383.241025641025	3498.901098901099	0.0136986301369863	0.326302729528536	0.5331632653061225
9598.663330078125	2.079577301261931	1.32344580744347	27.65541925565307	1.342141835804602	1.211137052939074	1.126215601275288	3393.435897435897	3500.3663003663	0.0224159402241594	0.3275434243176179	0.5255102040816326
9618.194580078125	2.12760216487306	1.320234596865458	27.97654031345419	2.068645810384079	-0.05720452975197569	0.7915806772147062	3373.046153846154	3503.296703296703	0.0161892901618929	0.3287841191066998	0.5420918367346939
9637.725830078125	1.697198189577862	1.448384752738454	27.16152472615464	1.334798074329974	1.203793291464447	1.500747436481281	3400.717948717948	3501.831501831502	0.0149439601494396	0.326302729528536	0.5280612244897959
9657.257080078125	2.189359332628702	0.98685555591143	29.314444408857	1.712290170529547	0.7982340718996186	0.3928129571785911	3380.328205128205	3503.296703296703	0.0273972602739726	0.3250620347394541	0.5229591836734694
9676.788330078125	2.64028135876412	1.173258573014755	26.67414269852454	1.713184998608388	0.3703859742367346	0.7759196508994182	3374.502564102564	3504.761904761905	0.0261519302615193	0.3213399503722084	0.5318877551020408
9696.319580078125	2.164849371703713	0.9184262432472831	28.15737567527171	1.697602647580292	0.783546548950364	1.141876627590576	3383.241025641025	3498.901098901099	0.0224159402241594	0.3300248138957816	0.5420918367346939
9715.850830078125	2.19689191515598	1.084903073153546	27.50969268464544	1.343036663883443	0.7832889552761903	1.509322294996115	3381.784615384615	3498.901098901099	0.024906600249066	0.3250620347394541	0.534438775510204
9735.382080078125	2.490419749428821	0.8819428874938613	27.80571125061388	1.682020296552197	1.196707123663994	1.507833604281734	3402.174358974359	3501.831501831502	0.0199252801992528	0.3213399503722084	0.5293367346938775
9754.913330078125	2.737275932568915	1.974439764695834	26.55602353041659	1.697602647580292	0.783546548950364	1.141876627590576	3380.328205128205	3497.435897435897	0.0199252801992528	0.3200992555831266	0.524234693877551
9774.444580078125	3.154844407255568	1.044691376806953	27.53086231930476	2.06040722083061	0.3632998064362811	0.7830058186998716	3368.676923076923	3501.831501831502	0.0136986301369863	0.3213399503722084	0.5420918367346939
9793.975830078125	2.62139460289753	1.404177809984413	27.58221900155873	2.438794145109024	-0.4701075107914314	0.05817803311800911	3357.025641025641	3501.831501831502	0.0161892901618929	0.3213399503722084	0.5280612244897959
9813.507080078125	2.163328008562339	0.8383865276621186	28.16134723378814	1.713184998608388	0.3703859742367346	0.7759196508994182	3377.415384615385	3506.227106227106	0.0199252801992528	0.326302729528536	0.5306122448979591
9833.038330078125	1.404847409945978	1.165901981508766	27.40980184912348	2.06040722083061	0.3632998064362811	0.7830058186998716	3375.958974358974	3503.296703296703	0.0174346201743462	0.3238213399503722	0.5280612244897959
9852.569580078125	2.243011071253176	1.486694745158329	27.33052548416715	1.35038042535807	0.7906327167508176	1.134790459790123	3384.697435897436	3497.435897435897	0.007471980074719801	0.3188585607940447	0.5408163265306122
9872.100830078125	1.800574481402003	1.195837804005723	28.41621959942775	1.713184998608388	0.3703859742367346	0.7759196508994182	3383.241025641025	3501.831501831502	0.0174346201743462	0.3213399503722084	0.5293367346938775
9891.632080078125	1.8406081849337	1.277470613669848	28.25293863301518	1.334798074329974	1.203793291464447	1.500747436481281	3400.717948717948	3500.3663003663	0.0199252801992528	0.3312655086848635	0.5408163265306122
9911.163330078125	2.722734903807144	0.3252180620502638	27.47819379497363	1.697602647580292	0.783546548950364	1.141876627590576	3389.066666666666	3501.831501831502	0.0174346201743462	0.3250620347394541	0.5267857142857142
9930.694580078125	3.253112121794461	1.23916896205667	28.08310379433306	2.06040722083061	0.3632998064362811	0.7830058186998716	3367.220512820513	3501.831501831502	0.0199252801992528	0.3213399503722084	0.5433673469387754
9950.225830078125	1.698183072032541	1.20546309493306	27.453690506694	1.342141835804602	1.211137052939074	1.126215601275288	3389.066666666666	3500.3663003663	0.03860523038605231	0.3275434243176179	0.5331632653061225
9969.757080078125	1.184797078182051	0.8485873342514896	27.14126657485107	2.052168631277142	0.7838041426245379	0.7744309601850372	3371.589743589744	3503.296703296703	0.0186799501867995	0.3287841191066998	0.5293367346938775
9989.288330078125	2.493334360920718	1.203703184720176	27.62968152798241	2.06040722083061	0.3632998064362811	0.7830058186998716	3378.871794871795	3503.296703296703	0.0211706102117061	0.3337468982630273	0.5255102040816326
10008.81958007813	1.171427265496551	1.117124276685244	28.28757233147567	4.960869013831574	-5.573106481128314	0.5852113451051904	3378.871794871795	3504.761904761905	0.0273972602739726	0.3213399503722084	0.5191326530612245
10028.35083007813	3.286235633794547	1.041463484615549	27.85365153844511	7.152198839438838	-11.51002795604126	1.122308206321587	3391.979487179487	3503.296703296703	0.0211706102117061	0.3287841191066998	0.5229591836734694
10047.88208007813	2.290331303514616	2.372728297888242	26.72717021117588	2.432345211713238	-0.9052993699289428	0.8158165620448287	3381.784615384615	3503.296703296703	0.024906600249066	0.3275434243176179	0.5267857142857142
10067.41333007813	2.093557827813721	1.68002129908398	27.99787009160208	1.690258886105665	0.7762027874757367	1.516408462796569	3383.241025641025	3498.901098901099	0.0261519302615193	0.3312655086848635	0.5280612244897959
10086.94458007813	3.335117265069502	0.9570114822881305	28.29885177118698	-0.4781448269988762	6.307307449149678	0.2388227896830214	3364.307692307692	3503.296703296703	0.0211706102117061	0.3275434243176179	0.524234693877551
10106.47583007813	2.716051081769265	1.15603480718724	28.39651928127602	-1.922019358525521	7.995638180680637	1.299774190039847	3390.523076923077	3500.3663003663	0.0174346201743462	0.326302729528536	0.5408163265306122
10126.00708007813	2.616726420205838	2.295424366899409	26.45756331005914	0.2583873932917516	3.762765334944603	0.678976111578928	3373.046153846154	3503.296703296703	0.0211706102117061	0.3325062034739454	0.5382653061224489
10145.53833007813	3.228301558196144	3.758433556466595	20.1566443533406	4.739200427912958	-9.299153008699781	-1.9664239425037	3389.066666666666	3512.087912087912	0.0261519302615193	0.3250620347394541	0.5267857142857142
10165.06958007813	4.620136809247752	-2.591819937330515	23.18199373305148	-1.28274569356273	6.211323362631175	5.842627982172003	3365.764102564102	3485.714285714285	0.0273972602739726	0.3188585607940447	0.534438775510204
10184.60083007813	1.401801013708283	4.802120700147333	27.7879299852668	0.1747363959904297	1.535399708934655	7.088891602654973	3370.133333333333	3484.249084249084	0.0136986301369863	0.326302729528536	0.5331632653061225
10204.13208007813	1.502602665321462	2.007103030982428	27.28969690175731	2.662962078420264	-1.457733818986317	7.19851878686199	3358.482051282051	3479.85347985348	0.0261519302615193	0.3200992555831266	0.5306122448979591
10223.66333007813	1.658499515565947	-0.7138886442252259	27.38886442252258	2.037481108327887	0.7691166196752832	1.523494630597022	3381.784615384615	3497.435897435897	0.0236612702366127	0.3349875930521092	0.5293367346938775
10243.19458007813	-1.058103560790468	0.7641937175709435	27.58062824290564	2.066856154226396	0.7984916655737925	0.02536728977305208	3368.676923076923	3503.296703296703	0.0236612702366127	0.3287841191066998	0.5293367346938775
10262.72583007813	2.457490578224756	2.230223613691201	28.97763863087993	-4.373092319104332	6.664060637316331	-13.70388912654414	3415.282051282051	3538.461538461538	0.0261519302615193	0.3213399503722084	0.5255102040816326
10282.25708007813	2.874858873550702	2.553101579014798	28.68984209852027	-8.605852839042646	6.683000797650126	-10.41813662329565	3396.348717948718	3529.67032967033	0.0149439601494396	0.3312655086848635	0.5216836734693877
10301.78833007813	2.107776400988619	2.340348619029318	25.96513809706831	-9.141667792915801	15.9338386001176	-10.23933784321647	3386.153846153846	3528.205128205128	0.0174346201743462	0.3399503722084367	0.534438775510204
10321.31958007813	1.488461995281105	1.8526286219119	26.73713780881003	-6.886282547828562	18.71026559523819	-4.257249314921261	3393.435897435897	3510.62271062271	0.0211706102117061	0.3362282878411911	0.5331632653061225
10340.85083007813	2.060124204620673	2.664920435376765	29.50795646232358	-7.842169143489076	9.384959803327744	0.7790529266816412	3374.502564102564	3498.901098901099	0.0224159402241594	0.3312655086848635	0.5306122448979591
10360.38208007813	0.9439906489547969	-0.08703231428693442	32.70323142869344	-9.901866673084742	5.163683356450879	3.818539186675205	3368.676923076923	3490.10989010989	0.0186799501867995	0.3337468982630273	0.5369897959183673
10379.91333007813	2.467143560630325	-0.160173515469861	36.0173515469861	9.978634822512394	0.9899202890799728	3.550560807522581	3368.676923076923	3493.040293040293	0.012453300124533	0.3449131513647643	0.5382653061224489
10399.44458007813	2.470136075256764	0.6674396926312644	33.25603073687357	1.462141366791264	-3.385035599233241	-0.2775882958855024	3374.502564102564	3501.831501831502	0.0062266500622665	0.3399503722084367	0.5229591836734694
10418.97583007813	3.028908235111994	-1.440526044669357	32.05260446693571	-0.8238840259611224	-12.62324662814485	1.734114592867645	3375.958974358974	3498.901098901099	0.009962640099626401	0.337468982630273	0.5293367346938775
10438.50708007813	2.796811443052976	1.236458867144962	32.35411328550381	9.798344321205018	-1.408519376655078	-2.397585572484746	3383.241025641025	3509.157509157509	0.0161892901618929	0.3312655086848635	0.5306122448979591
10458.03833007813	2.752117564004014	1.035967560267333	32.40324397326671	11.86430564735257	-0.1821796134184011	-2.755324976432521	3378.871794871795	3509.157509157509	0.0186799501867995	0.3337468982630273	0.5216836734693877
10477.56958007813	1.574995529327611	1.647308655221746	31.26913447782547	7.928440984236832	2.780548493907367	0.1029578498065893	3386.153846153846	3504.761904761905	0.0136986301369863	0.3238213399503722	0.520408163265306
10497.10083007813	2.864107406903252	0.5172858214293341	32.2714178570666	5.392573420643869	7.441011843632111	0.7080949019522203	3389.066666666666	3503.296703296703	0.0199252801992528	0.3399503722084367	0.5318877551020408
10516.63208007813	0.5140175597335213	2.684839616296202	35.51603837037986	8.774880849012881	8.137721223257817	4.507125214987012	3390.523076923077	3491.575091575091	0.0211706102117061	0.337468982630273	0.5420918367346939
10536.16333007813	0.9449019654944164	1.950386212713258	36.96137872867423	15.68063169308261	5.384846712423678	9.194679744557	3324.984615384615	3585.347985347985	0.0062266500622665	0.3337468982630273	0.5293367346938775
10555.69458007813	0.7554128499135226	0.6689834091345845	37.10165908654154	14.85353862849392	1.333249560485762	2.517596792596118	3365.764102564102	3497.435897435897	0.0024906600249066	0.3225806451612903	0.5369897959183673
10575.22583007813	0.6811986873572055	2.118923221873466	36.10767781265347	14.85353862849392	1.333249560485762	2.517596792596118	3381.784615384615	3497.435897435897	0.008717310087173101	0.3238213399503722	0.524234693877551
10594.75708007813	1.383975542085709	2.485365887835501	35.46341121644994	22.32244103854364	-1.993833090155459	14.34400338519571	3287.117948717948	3570.695970695971	0.007471980074719801	0.3238213399503722	0.5357142857142857
10614.28833007813	2.645726904639891	0.8843130111246346	35.56869888753656	17.31272868257239	-12.4074927393297	14.82661416626576	3298.769230769231	3572.161172161172	0.0161892901618929	0.315136476426799	0.5331632653061225
10633.81958007813	2.086329517914718	-0.8020182750411036	32.20182750411035	19.1247767558224	-17.08315879935205	15.70543211934319	3295.85641025641	3564.835164835165	0.003735990037359901	0.3225806451612903	0.5420918367346939
10653.35083007813	3.434153668353511	0.1814038712019304	29.85961287980697	21.63765456612255	-10.11611837162398	21.9833900654965	3431.302564102564	3553.113553113553	0.0174346201743462	0.3064516129032258	0.5459183673469388
10672.88208007813	3.586597257809664	-0.5774060224627934	25.74060224627933	28.21947957416057	-6.407466442341264	19.04459884542367	3419.651282051282	3556.043956043956	0.0174346201743462	0.3176178660049628	0.5586734693877551
10692.41333007813	4.694371323372408	0.7242232373540026	23.57767626459975	26.87949766820145	-1.614042605050707	11.80582586164482	3317.702564102564	3579.487179487179	0.0224159402241594	0.3101736972704715	0.5510204081632653
10711.94458007813	4.80470368116499	1.297287703115325	22.27122968846754	17.81034180581243	-2.757409104075332	15.01809659123146	3285.661538461538	3564.835164835165	0.0224159402241594	0.3064516129032258	0.5420918367346939
10731.47583007813	3.864504596118122	0.7451996989302417	17.48003010697585	16.76956996722461	-3.163998698336855	15.37994478155093	3306.051282051282	3564.835164835165	0.0211706102117061	0.2903225806451613	0.5561224489795918
10751.00708007813	4.687238432302009	3.538431768197639	14.15682318023616	11.73813295972718	4.482254417834235	16.24998648469554	3282.748717948718	3563.369963369963	0.0323785803237858	0.3002481389578164	0.5548469387755102
10770.53833007813	2.125914152413897	5.263006320329682	17.69936796703179	9.900474289737925	10.84728158408424	14.96233726235278	3295.85641025641	3564.835164835165	0.0161892901618929	0.2903225806451613	0.5522959183673469
10790.06958007813	1.478052001259795	4.406707743471485	15.32922565285162	19.53583647603126	16.99315273586852	13.15946790701299	3311.876923076923	3572.161172161172	0.0298879202988792	0.2990074441687345	0.5637755102040816
10809.60083007813	2.612401878750026	5.16966235079965	15.03376492003502	19.54981430774557	20.86581689925836	8.587912157907573	3365.764102564102	3478.388278388278	0.0149439601494396	0.2903225806451613	0.5676020408163265
10829.13208007813	1.598483574616189	4.630395501035595	16.96044989644054	16.78295960375778	19.21845761248508	9.689117755181259	3333.723076923077	3583.882783882784	0.0174346201743462	0.2928039702233251	0.5446428571428571
10848.66333007813	2.057897542865074	4.891634237610234	18.83657623897679	8.896606395367135	13.90753933997355	10.01214089166967	3317.702564102564	3576.556776556776	0.0149439601494396	0.2878411910669975	0.5625
10868.19458007813	0.1453475647513506	5.738039950462281	18.19600495377192	2.861889688680054	6.104258064601852	7.051257501395423	3351.2	3479.85347985348	0.003735990037359901	0.2928039702233251	0.5548469387755102
10887.72583007813	-1.710745995078257	6.94061245542673	17.9387544573271	1.82398747117265	7.844252720129375	5.123040387904761	3373.046153846154	3490.10989010989	0.0112079701120797	0.2841191066997519	0.5510204081632653
10907.25708007813	-2.071285204876903	7.295261887984969	22.47381120150321	2.501245045275215	12.52906569734557	1.297570927782563	3377.415384615385	3501.831501831502	0.0062266500622665	0.2841191066997519	0.5612244897959183
10926.78833007813	-1.075565039608823	5.196413319667756	24.35866803322444	3.227749019854692	11.26072411465452	0.9629360037219811	3373.046153846154	3500.3663003663	0.0136986301369863	0.2816377171215881	0.5586734693877551
10946.31958007813	-1.207528445487156	4.713398204791494	28.66017952085068	-2.17753713073685	6.379457095525082	-1.669267225349209	3394.892307692307	3506.227106227106	0.012453300124533	0.2903225806451613	0.5548469387755102
10965.85083007813	-0.5765395794631988	4.467949282557171	29.20507174428288	1.067462400249811	1.719508933148685	-3.009295612305918	3389.066666666666	3512.087912087912	0.0149439601494396	0.2853598014888337	0.5510204081632653
10985.38208007813	0.6483409134584588	3.793767215425021	28.62327845749792	3.546554665047336	-0.4252721609211462	-3.291349980334563	3405.087179487179	3507.692307692308	0	0.2903225806451613	0.5497448979591836
11004.91333007813	0.4975584790639079	3.664532754681528	29.5467245318472	2.558978812939584	-1.636151620186047	-4.78501124901539	3393.435897435897	3512.087912087912	0.007471980074719801	0.2803970223325062	0.5573979591836734
11024.44458007813	2.098638713620738	4.059610077295924	30.03899227040762	3.970793814331196	-2.070313104626863	-5.497155389710727	3383.241025641025	3515.018315018315	0.003735990037359901	0.2853598014888337	0.5637755102040816
11043.97583007813	2.163676654282237	4.190062295817053	28.99377041829479	3.912043722534178	-2.129063196423882	-2.500900708062787	3402.174358974359	3512.087912087912	0.004981320049813201	0.2816377171215881	0.5510204081632653
11063.50708007813	0.9954884576580616	4.131066435526232	26.89335644737685	1.454797605316637	-3.392379360707869	0.0969435393204901	3370.133333333333	3500.3663003663	-0.004981320049813201	0.2853598014888337	0.5497448979591836
11083.03833007813	0.8987442748702839	5.409725113701877	27.02748862981231	2.047509354039037	-0.5070839118387417	2.298282876553511	3371.589743589744	3498.901098901099	0.0024906600249066	0.2803970223325062	0.5573979591836734
11102.56958007813	1.802060145890718	5.112595885913779	28.74041140862213	-1.432056629657811	-0.4435659953088338	2.601953033754968	3381.784615384615	3495.970695970696	0.0024906600249066	0.271712158808933	0.5676020408163265
11122.10083007813	1.320588580701642	5.083877821194458	27.61221788055431	-1.432951457736653	-0.01571789764594977	2.218846340034141	3380.328205128205	3497.435897435897	0.0136986301369863	0.2803970223325062	0.5535714285714285
11141.63208007813	1.057688188617001	5.635005965344949	28.49940346550509	2.016344651982847	0.3192372375885172	3.030196829935827	3393.435897435897	3494.505494505494	0.003735990037359901	0.2791563275434243	0.5561224489795918
11161.16333007813	-0.02022345354771205	5.855331710545983	26.46682894540175	1.376885850176158	-1.326576487139721	1.92672842277628	3384.697435897436	3497.435897435897	0.0024906600249066	0.2741935483870968	0.5586734693877551
11180.69458007813	-0.4888194822561014	5.577686607200053	26.23133927999487	1.396232650363516	-0.02100090972718675	-0.3461871640041785	3368.676923076923	3500.3663003663	0.0149439601494396	0.2853598014888337	0.5510204081632653
11200.22583007813	0.8545890451177589	6.925291728055004	27.47082719449961	1.378860643177738	1.247855860312211	-0.7464435747546745	3390.523076923077	3507.692307692308	0.0112079701120797	0.2853598014888337	0.5663265306122448
11219.75708007813	0.4183216495313135	5.05724495814917	26.27550418508317	2.756826458276635	2.923559818287306	-1.875993843230176	3371.589743589744	3504.761904761905	0.012453300124533	0.2841191066997519	0.5535714285714285
11239.28833007813	0.4718314276258195	5.132071669549251	26.79283304507505	4.768696969865276	5.382037544190244	-0.7613304818984844	3380.328205128205	3510.62271062271	-0.0012453300124533	0.2903225806451613	0.5599489795918367
11258.81958007813	0.7038983595968655	3.888603522089126	27.13964779108748	5.447559063281624	5.781025783302965	-0.3812011696064194	3380.328205128205	3501.831501831502	0.003735990037359901	0.28287841191067	0.5637755102040816
11278.35083007813	1.2144097778276	2.873193714901885	28.68062850981146	2.326138375596989	4.133408902855511	1.087450095072807	3380.328205128205	3498.901098901099	0.007471980074719801	0.2890818858560794	0.5586734693877551
11297.88208007813	1.858922761460936	4.560308369632525	27.96916303674759	0.2949210638209899	0.3693555995400394	2.245702320521574	3383.241025641025	3498.901098901099	0.0062266500622665	0.2841191066997519	0.5561224489795918
11317.41333007813	-0.4764403905899687	3.955272924540389	28.47270754596118	3.435503414849086	-0.1075804853776717	1.943520854034498	3365.764102564102	3497.435897435897	0.004981320049813201	0.2729528535980149	0.5586734693877551
11336.94458007813	1.043011037889949	5.157570182883863	28.24298171161361	4.131737515451212	-0.9774490163043469	2.723906577077059	3355.569230769231	3491.575091575091	0.0062266500622665	0.271712158808933	0.5548469387755102
11356.47583007813	0.3902666789443343	5.858451172250337	26.15488277496637	2.735504865087696	-0.9564481065771601	3.070093741081237	3381.784615384615	3495.970695970696	0.012453300124533	0.2816377171215881	0.5688775510204082
11376.00708007813	1.030533691520936	5.508147967245319	25.18520327546815	3.386966705607116	1.987597434088985	2.275178396666318	3381.784615384615	3498.901098901099	0.003735990037359901	0.2878411910669975	0.5573979591836734
11395.53833007813	0.8011091271112251	5.416948252300728	26.30517476992719	2.982969184589456	4.510365857544352	2.59117491298285	3365.764102564102	3493.040293040293	0.007471980074719801	0.2866004962779156	0.5459183673469388
11415.06958007813	0.5170079057502189	6.11935627655713	28.06437234428715	3.954962685669112	6.134405891522881	4.450793158354835	3381.784615384615	3491.575091575091	0.0112079701120797	0.2841191066997519	0.5586734693877551
11434.60083007813	0.8034734121773108	4.829053832233681	29.09461677663186	5.066302517922789	4.467848850741631	2.633691919785571	3368.676923076923	3491.575091575091	-0.0024906600249066	0.2878411910669975	0.5561224489795918
11454.13208007813	0.425850562103645	4.95159062520018	28.84093747998207	4.059379865627678	1.951393814064196	3.412946237885203	3380.328205128205	3494.505494505494	-0.0012453300124533	0.2841191066997519	0.5599489795918367
11473.66333007813	-0.5296036915743172	5.839025433455044	28.09745665449576	4.802361019314092	-0.1579564410033676	3.09546103085429	3375.958974358974	3495.970695970696	0	0.2803970223325062	0.5561224489795918
11493.19458007813	0.4979806906988663	4.735868338030877	26.41316619691243	5.849581791297704	0.6838250123956673	1.975974311608004	3365.764102564102	3497.435897435897	-0.003735990037359901	0.2866004962779156	0.5522959183673469
11512.72583007813	0.767104825924028	4.726209683876753	27.37903161232465	2.045719697881355	0.3486122834870265	1.532069489111857	3374.502564102564	3498.901098901099	0.0062266500622665	0.2779156327543425	0.5599489795918367
11532.25708007813	-0.2223297074178462	5.892590761322146	26.74092386778554	3.782725637071308	-0.1146666531781252	1.950607021834951	3371.589743589744	3498.901098901099	0.003735990037359901	0.2704714640198511	0.5599489795918367
11551.78833007813	1.033112001686845	4.254320537868597	26.56794621314031	5.832209784111926	1.952681782435065	1.575717900857507	3373.046153846154	3500.3663003663	-0.0062266500622665	0.2729528535980149	0.5637755102040816
11571.31958007813	0.9608756112143148	4.208311980868192	27.16880191318088	6.157400721910267	1.92356433021073	2.706399574275939	3349.743589743589	3493.040293040293	0.009962640099626401	0.2791563275434243	0.5586734693877551
11590.85083007813	0.9121242633399527	5.524179664979823	27.58203350201781	5.440030164963099	2.343553479050639	3.432716050572182	3374.502564102564	3494.505494505494	0.0012453300124533	0.2692307692307692	0.5676020408163265
11610.38208007813	0.9000494443020948	4.762601290756519	27.73987092434822	6.131604988327122	0.182796893660684	5.736953689983217	3365.764102564102	3485.714285714285	0.0136986301369863	0.2791563275434243	0.5497448979591836
11629.91333007813	0.4650813795827729	4.650632299874021	26.93677001259795	6.507307428369013	0.6329338694216237	3.862805823238873	3387.610256410256	3495.970695970696	0.0012453300124533	0.2791563275434243	0.5535714285714285
11649.44458007813	0.3528993644972563	5.411835337795999	26.81646622040014	3.465773288826436	-0.5060535371420465	0.8285002069313547	3374.502564102564	3503.296703296703	0	0.2655086848635236	0.5548469387755102
11668.97583007813	0.5455251238442979	5.338960375162813	26.10396248371874	3.102968715576118	-0.08580679462796355	1.187371015822059	3384.697435897436	3498.901098901099	0	0.2791563275434243	0.5535714285714285
11688.50708007813	0.2082504257147738	7.54212941462217	25.78705853778319	2.073305087622182	1.233683524711304	-0.7322712391537675	3383.241025641025	3507.692307692308	0	0.2766749379652606	0.5612244897959183
11708.03833007813	-0.1799499017786603	6.013442711336024	26.65572886639762	3.775567012440579	3.308118128124947	-1.114246527931665	3383.241025641025	3509.157509157509	0.0149439601494396	0.2655086848635236	0.5510204081632653
11727.56958007813	-0.3510865735699185	5.571255845237333	26.87441547626674	0.3088988955353016	4.242019762929878	-2.325853428583847	3399.261538461538	3512.087912087912	0.0062266500622665	0.271712158808933	0.5522959183673469
11747.10083007813	1.061073054790426	4.967471521149617	27.25284788503833	0.6047147874351326	4.183527264807034	0.3029555856585545	3384.697435897436	3515.018315018315	0.0024906600249066	0.2766749379652606	0.5637755102040816
11766.63208007813	0.652993081801294	4.922730766767025	27.72692332329768	1.961544146188989	5.409351840695362	0.6801075165218576	3384.697435897436	3503.296703296703	-0.0024906600249066	0.2741935483870968	0.5650510204081632
11786.16333007813	1.078576738090663	4.877823196250507	28.21768037494929	3.013239058566806	4.111892805779978	1.476154265879707	3389.066666666666	3500.3663003663	0.004981320049813201	0.2729528535980149	0.5663265306122448
11805.69458007813	0.629758430220144	5.640694395511712	27.93056044882882	3.385177049449434	2.843293629414753	1.508965009224664	3361.394871794872	3497.435897435897	-0.0062266500622665	0.2754342431761787	0.5586734693877551
11825.22583007813	0.4671814278927253	5.396204666047446	28.37953339525548	4.395679014059908	3.648356275440652	2.26213746600834	3390.523076923077	3494.505494505494	-0.007471980074719801	0.2816377171215881	0.5573979591836734
11844.75708007813	-0.2673358662695107	5.086196565455983	27.38034345440181	4.473590769200388	1.582553401872504	0.4323525825525502	3373.046153846154	3501.831501831502	0.0012453300124533	0.2779156327543425	0.5573979591836734
11864.28833007813	-0.08107364198321687	5.439936182819808	28.00638171801935	4.441531239065355	2.836722648962647	0.7811598422140392	3380.328205128205	3504.761904761905	0	0.2853598014888337	0.5612244897959183
11883.81958007813	1.004122360301497	4.630914632844362	28.90853671556381	2.429660727476715	0.3782449230597095	-0.3335035191176524	3381.784615384615	3503.296703296703	0.004981320049813201	0.2816377171215881	0.5586734693877551
11903.35083007813	0.5121235293489634	6.283439294941602	27.6560705058399	1.737900767268793	-0.8911270343280358	0.8016442264439216	3389.066666666666	3503.296703296703	0.008717310087173101	0.2779156327543425	0.5573979591836734
11922.88208007813	0.9785234236542609	5.936772681656098	26.32273183439028	2.747507903800428	0.3417837093607468	1.171709989506771	3402.174358974359	3500.3663003663	-0.004981320049813201	0.2779156327543425	0.5663265306122448
11942.41333007813	0.241365930540431	4.354528991309548	28.54710086904533	2.754851665275055	0.349127470835374	0.7971781543007787	3389.066666666666	3503.296703296703	0.0024906600249066	0.2841191066997519	0.5599489795918367
11961.94458007813	0.5307300341105632	5.406196952469413	27.38030475305874	1.414499485628135	-1.717705777429468	0.4371759404671446	3368.676923076923	3503.296703296703	0.003735990037359901	0.2729528535980149	0.5573979591836734
11981.47583007813	0.7502657381013389	4.977138516110435	26.28614838895651	-0.7238194903429537	-0.01520271029760219	1.483955005223063	3390.523076923077	3495.970695970696	0.0012453300124533	0.2766749379652606	0.5637755102040816
12001.00708007813	0.8374456846667948	5.560212617171653	27.97873828283476	2.722792135140022	1.603296717925517	1.145985413962268	3374.502564102564	3497.435897435897	-0.0024906600249066	0.2704714640198511	0.5522959183673469
12020.53833007813	0.6194531967309377	5.645899058890099	27.41009411099011	1.706736065212602	-0.0648058849007768	1.533558179826238	3371.589743589744	3498.901098901099	0.0062266500622665	0.271712158808933	0.5599489795918367
12040.06958007813	0.1948864515939616	5.407464755087226	27.25352449127752	3.420815891899831	-0.1222680083269263	2.692584524446483	3381.784615384615	3494.505494505494	0.0024906600249066	0.2741935483870968	0.5701530612244897
12059.60083007813	-0.1213417221830759	5.258253395041958	26.17466049580424	2.029242518774419	1.18962095586354	1.514919772082188	3375.958974358974	3497.435897435897	0	0.2779156327543425	0.5625
12079.13208007813	-0.1885736286379262	5.896586007729593	26.34139922704076	1.364173120228484	1.233168337362956	0.002620095657310542	3359.938461538462	3501.831501831502	-0.0024906600249066	0.2679900744416873	0.5522959183673469
12098.66333007813	-0.07660563865223236	5.80131597911729	27.86840208827109	1.309187477590728	2.893154397692101	1.09191616721595	3374.502564102564	3498.901098901099	-0.0024906600249066	0.2741935483870968	0.5522959183673469
