Time Stamp	Accelerometer X	Accelerometer Y	Accelerometer Z	Gyroscope X	Gyroscope Y	Gyroscope Z	Magnetometer X	Magnetometer Y	Magnetometer Z
955.108642578125	-0.05026335899233544	-9.909585152740856	-1.991221366922153	-46.36346650844776	2.667427764949659	-1.334508575514201	0.1540041067761807	-0.4012219959266802	0.6983471074380165
974.639892578125	-0.04367839841140785	-9.740789348819689	-1.877386719619739	6.88140022362062	-3.037476202615747	0.2657747393872714	0.1519507186858316	-0.3910386965376782	0.6756198347107438
994.171142578125	-0.06084266991367	-9.729672463272088	-1.971911002877667	-1.808461168323847	3.357543449597027	-0.3133034574704263	0.1642710472279261	-0.3869653767820774	0.6652892561983471
1013.702392578125	-0.1331747159594998	-9.619726491493571	-1.894176134683342	0.003464804336653728	1.85177180276288	-0.3464804336653728	0.1519507186858316	-0.3930753564154786	0.6838842975206612
1033.233642578125	-0.2015770783436814	-9.745176588664457	-2.280764055210623	0.003687919821552229	-0.3791599307372308	-0.3687919821552229	0.1601642710472279	-0.415478615071283	0.6735537190082644
1052.764892578125	0.1993760454117809	-9.698868411983526	-2.312534847059362	-1.087029151488191	-0.3607316608829078	0.007262974906052836	0.1457905544147844	-0.4032586558044806	0.6818181818181819
1072.296142578125	-0.2253759933629907	-9.799538237854033	-1.820800221233646	-0.003576362079102979	-0.7363059360128246	0.3576362079102978	0.1519507186858316	-0.4093686354378818	0.6611570247933884
1091.827392578125	0.115101167864446	-9.83278395572383	-1.836705595481534	-0.7282500677665138	-1.10073436179588	0.3612386607093414	0.1560574948665298	-0.4073319755600814	0.6735537190082644
1111.358642578125	-0.2315193278450776	-9.70152458266991	-1.616022405164081	-0.724636519773261	-0.7362503813664076	-0.0001161386159314638	0.1416837782340863	-0.4093686354378818	0.6818181818181819
1130.889892578125	-0.1560777608925895	-9.780465142688604	-1.797407970247019	-0.0001859295707487508	1.859109777916759	0.01859295707487508	0.1601642710472279	-0.3991853360488798	0.6859504132231405
1150.421142578125	-0.1570595903444763	-9.897449267544713	-2.098013655184125	-0.7210601576941581	5.555464641699391e-05	-0.3577523465262293	0.1457905544147844	-0.3808553971486761	0.6838842975206612
1169.952392578125	0.03535847815646339	-9.761900758729411	-1.845282605215447	0.0001115577424492505	-1.115465866750055	-0.01115577424492505	0.1498973305954825	-0.3910386965376782	0.6673553719008265
1189.483642578125	0.1544476874170473	-9.623395247735155	-1.814922913901575	-0.362243888058331	-1.111769101849907	-0.007495252137915762	0.1478439425051335	-0.395112016293279	0.6838842975206612
1209.014892578125	-0.09214765137720313	-9.899794407278629	-1.928411620759896	-0.003613547993252729	-0.3644839804294728	0.3613547993252729	0.1540041067761807	-0.3971486761710794	0.6921487603305785
1228.546142578125	-0.1290084468877584	-9.521712731160376	-1.699718437074721	0.3586303400650783	0.7472851214204346	0.3688500514631886	0.1396303901437372	-0.4012219959266802	0.6776859504132231
1248.077392578125	0.1083119552128046	-9.724979134481194	-1.610398507093488	-0.3625041894573793	1.490984587233555	0.01853488776690934	0.135523613963039	-0.3991853360488798	0.6921487603305785
1267.608642578125	-0.0009376668420027511	-9.690303178945582	-1.968744438599908	0.007003980501606956	2.959899694359057	-0.7003980501606956	0.1498973305954825	-0.3869653767820774	0.6694214876033058
1287.139892578125	-0.357417465208144	-9.648898313750633	-1.752751159728537	-1.072500587686881	0.3535603496682799	-1.445593405224989	0.1540041067761807	-0.3665987780040733	0.6818181818181819
1306.671142578125	-0.2351753610490513	-9.929373366739192	-1.827487965031625	-0.003539176164953228	-1.108127891596177	0.3539176164953228	0.1437371663244353	-0.3808553971486761	0.6776859504132231
1326.202392578125	-0.08179230797742348	-9.719779512912702	-1.940256400752552	-0.3694337981306867	-2.212559018292205	0.7114957550976549	0.162217659137577	-0.3788187372708757	0.6776859504132231
1345.733642578125	0.2794302392430529	-9.486317555978081	-1.647674641435096	0.3587790837216773	-0.7400027009129726	0.3539756858032885	0.1519507186858316	-0.3727087576374745	0.6632231404958678
1365.264892578125	0.03115277818303982	-9.693260601720818	-1.705092606101327	-0.3587790837216773	0.7400027009129726	-0.3539756858032885	0.1540041067761807	-0.3828920570264766	0.6735537190082644
1384.796142578125	0.173354016155629	-9.743948868109682	-1.778467205187634	-0.3624670035432295	1.119162631650203	0.01481629635193433	0.1540041067761807	-0.3991853360488798	0.6735537190082644
1404.327392578125	-0.01741110894679275	-9.71896292522613	-2.086296368440242	-0.3661549233647818	1.498322562387434	0.3836082785071572	0.1540041067761807	-0.3890020366598778	0.6652892561983471
1423.858642578125	0.09392677366110402	-9.672963676516245	-1.797559122036801	0.3659318078798833	0.7326091711126765	-0.3612967300173071	0.1416837782340863	-0.3910386965376782	0.6735537190082644
1443.389892578125	-0.004557423616428809	-9.591473566969313	-1.848085879452373	0.007152724158205957	1.472611872025649	-0.7152724158205956	0.1540041067761807	-0.3930753564154786	0.6838842975206612
1462.921142578125	-0.0637463615135473	-9.617277990222714	-2.208454616215091	0.003613547993252729	0.3644839804294728	-0.3613547993252729	0.1314168377823409	-0.3869653767820774	0.6859504132231405
1482.452392578125	-0.2952443966717165	-9.648795688257188	-1.825186777609452	-0.003576362079102979	-0.7363059360128246	0.3576362079102978	0.1396303901437372	-0.3849287169042769	0.6735537190082644
1501.983642578125	0.1305935691353829	-9.711108079312893	-2.019785637846095	0.3624298176290798	-0.7473406760668516	-0.01109770493695932	0.1437371663244353	-0.3971486761710794	0.6776859504132231
1521.514892578125	-0.004633130947658638	-9.751498045673076	-1.845562301744712	0.007189910072355707	1.100789916442297	-0.7189910072355706	0.1540041067761807	-0.3930753564154786	0.6632231404958678
1541.046142578125	-0.1486671172304366	-9.741402367904508	-1.711096092318781	-0.3587418978075275	0.3681807453296208	-0.3576942772182636	0.1560574948665298	-0.395112016293279	0.6694214876033058
1560.577392578125	-0.0993469454063394	-9.658788845681384	-2.021768486455354	0.3586303400650783	0.7472851214204346	0.3688500514631886	0.1560574948665298	-0.3890020366598778	0.6838842975206612
1580.108642578125	-0.0159789785976952	-9.691833203079922	-1.80070071341016	-0.7246737056874109	-0.3644284257830558	0.003602452799043552	0.1396303901437372	-0.4032586558044806	0.6838842975206612
1599.639892578125	-0.1305612357960035	-9.678881466240707	-1.981292140133218	-0.7174094237867555	-0.007282420507461989	-0.7228257372664771	0.1437371663244353	-0.4012219959266802	0.6611570247933884
1619.171142578125	-0.1272663896514387	-9.631149465987299	-1.75778701161871	-0.717483795615055	0.7363614906592416	-0.7153885544365272	0.1498973305954825	-0.3991853360488798	0.6652892561983471
1638.702392578125	-0.1130065983670875	-9.739872133472025	-1.899780054430417	0.3550911639001251	-0.3608427701757418	0.7227676679585114	0.1560574948665298	-0.4032586558044806	0.6797520661157025
1658.233642578125	-0.1673486898294299	-9.770776076378183	-1.75504367235234	-0.3659318078798833	-0.7326091711126765	0.3612967300173071	0.1683778234086242	-0.415478615071283	0.6735537190082644
1677.764892578125	0.03322526637545631	-9.812590497205271	-1.774175545848544	0.003613547993252729	0.3644839804294728	-0.3613547993252729	0.1540041067761807	-0.3930753564154786	0.6652892561983471
1697.296142578125	-0.2780801251694544	-9.659912573804791	-1.730662494351523	0.003650733907402479	-0.007337975153878983	-0.3650733907402479	0.1478439425051335	-0.3991853360488798	0.6694214876033058
1716.827392578125	0.1388598633640395	-9.82176864417896	-1.961995445467983	-0.3660061797081828	0.01103474005402697	0.3687339128472572	0.1540041067761807	-0.3991853360488798	0.6632231404958678
1736.358642578125	-0.01710512514973887	-9.572197323798415	-1.763162495008705	-0.7245993338591113	-1.108072336949759	-0.003834730030906479	0.1498973305954825	-0.360488798370672	0.6776859504132231
1755.889892578125	0.08212510478762122	-9.660112882785336	-2.070836826254041	-0.3660433656223325	0.3828566956373787	0.3724525042622321	0.1519507186858316	-0.4134419551934826	0.6652892561983471
1775.421142578125	0.04756155360907099	-9.551288430999733	-1.9187184536357	-0.7247108916015605	0.007393529800295976	0.007321044214018567	0.1560574948665298	-0.4012219959266802	0.6570247933884298
1794.952392578125	0.05660857969103523	-9.761696559233233	-1.886952656367841	0.3586303400650783	0.7472851214204346	0.3688500514631886	0.1375770020533881	-0.3910386965376782	0.6735537190082644
1814.483642578125	-0.04678791931806623	-9.771794760579509	-1.773736022731126	-0.0001115577424492505	1.115465866750055	0.01115577424492505	0.1540041067761807	-0.3971486761710794	0.6797520661157025
1834.014892578125	-0.0911563585089126	-9.929473889251215	-1.961454716369581	-0.003576362079102979	-0.7363059360128246	0.3576362079102978	0.1437371663244353	-0.4073319755600814	0.6921487603305785
1853.546142578125	-0.2127273487213742	-9.605448509419912	-2.242421709287528	3.718591414975016e-05	-0.3718219555833518	-0.003718591414975016	0.1498973305954825	-0.4012219959266802	0.6756198347107438
1873.077392578125	-0.04363344718349014	-9.770774814589329	-1.878885093883663	3.718591414975016e-05	-0.3718219555833518	-0.003718591414975016	0.1601642710472279	-0.4012219959266802	0.6859504132231405
1892.608642578125	-0.1664922506448924	-9.710499161041849	-1.783591645170253	-0.7283988114231127	0.3865534605375267	0.3761130263692414	0.1457905544147844	-0.4032586558044806	0.6756198347107438
1912.139892578125	0.08348231642352259	-9.583007384356394	-1.782743880784086	-0.7172978660443063	-1.122748287257517	-0.7339815115114022	0.1457905544147844	-0.4114052953156823	0.6652892561983471
1931.671142578125	0.02464352493334206	-9.70203192693822	-1.821450831111402	0.362243888058331	1.111769101849907	0.007495252137915762	0.1396303901437372	-0.3971486761710794	0.6880165289256198
1951.202392578125	0.06182134489342221	-9.66001109848446	-2.060711496447407	-0.003687919821552229	0.3791599307372308	0.3687919821552229	0.1683778234086242	-0.3828920570264766	0.6880165289256198
1970.733642578125	-0.07128712715125145	-9.639716171112237	-1.957095761624953	-0.3623182598866305	-0.3681251906832038	-5.806930796573191e-05	0.1478439425051335	-0.4073319755600814	0.6921487603305785
1990.264892578125	-0.05955012495652744	-9.539254540402611	-2.014995834782419	-0.358518782322629	-1.86275098817049	-0.3800058257081136	0.1519507186858316	-0.4093686354378818	0.6797520661157025
2009.796142578125	-0.1302710243596225	-9.732120964542945	-1.657632521345919	0	0	0	0.1498973305954825	-0.3910386965376782	0.6694214876033058
2029.327392578125	-0.1497333288119233	-9.661747109649188	-1.675555706269224	-0.3624298176290798	0.7473406760668516	0.01109770493695932	0.1334702258726899	-0.3828920570264766	0.6714876033057852
2048.858642578125	-0.06688190681531592	-9.911625149870286	-1.770603106156136	0.003613547993252729	0.3644839804294728	-0.3613547993252729	0.1560574948665298	-0.395112016293279	0.6818181818181819
2068.389892578125	0.002892650947406264	-9.719064709527006	-2.096421698246876	-0.00379947756400148	1.494625797487286	0.3799477564001479	0.1437371663244353	-0.405295315682281	0.6756198347107438
2087.921142578125	0.07754323401214945	-9.76159435433607	-1.918107800404982	3.718591414975016e-05	-0.3718219555833518	-0.003718591414975016	0.1498973305954825	-0.3910386965376782	0.6756198347107438
2107.452392578125	-0.05065293630095558	-9.649711116070643	-1.978235456634814	-0.36239263171493	0.3755187204834998	0.007379113521984299	0.1519507186858316	-0.3910386965376782	0.6714876033057852
2126.983642578125	-0.08237825117642097	-9.749968967880376	-1.920724960785968	-0.003576362079102979	-0.7363059360128246	0.3576362079102978	0.1560574948665298	-0.3930753564154786	0.6694214876033058
2146.514892578125	-0.1629482012016962	-9.969353251721882	-1.901726626610128	-0.358667525979228	-0.3754631658370828	-0.3651314600482136	0.1457905544147844	-0.4032586558044806	0.6673553719008265
2166.046142578125	-0.07860786835756892	-9.738749877435616	-2.046404388081037	0.3623182598866305	0.3681251906832038	5.806930796573191e-05	0.1437371663244353	-0.3727087576374745	0.6735537190082644
2185.577392578125	-0.146413246890282	-9.560673616494524	-1.786225103657269	0.003576362079102979	0.7363059360128246	-0.3576362079102978	0.1478439425051335	-0.405295315682281	0.6797520661157025
2205.108642578125	-0.02493689084185765	-9.751396261372202	-1.835436971938079	-0.3585931541509285	-1.119107077003786	-0.3725686428781636	0.1478439425051335	-0.3991853360488798	0.6797520661157025
2224.639892578125	0.2434787203252892	-9.644608547094823	-1.782624010842972	-0.007227095986505457	-0.7289679608589457	0.7227095986505457	0.1478439425051335	-0.3971486761710794	0.6880165289256198
2244.171142578125	-0.1948123128510829	-9.69632264782185	-2.172922904963904	-0.3660061797081828	0.01103474005402697	0.3687339128472572	0.1498973305954825	-0.3930753564154786	0.6694214876033058
2263.702392578125	-0.08557767453891478	-9.721003448100916	-1.814077515369508	0.365968993794033	0.3607872155293249	-0.3650153214322821	0.135523613963039	-0.3971486761710794	0.6900826446280992
2283.233642578125	-0.1142526148602451	-9.540275012138144	-1.858246171325165	0.3623554458007803	-0.003696764900147988	-0.003660522107009284	0.1457905544147844	-0.3849287169042769	0.6673553719008265
2302.764892578125	0.02372163045201219	-9.858996672820515	-2.124054348400406	-0.362243888058331	-1.111769101849907	-0.007495252137915762	0.1396303901437372	-0.395112016293279	0.6756198347107438
2322.296142578125	0.009011538270450236	-9.66041960262589	-1.967051275681675	0.3622810739724808	0.7399471462665556	0.003776660722940747	0.1519507186858316	-0.3971486761710794	0.6652892561983471
2341.827392578125	-0.03393896569590416	-9.570973598908342	-1.868701143469861	-0.3550911639001251	0.3608427701757418	-0.7227676679585114	0.1498973305954825	-0.3971486761710794	0.6611570247933884
2361.358642578125	-0.2215606593162209	-9.818304613178912	-1.947978022792638	-0.7174094237867555	-0.007282420507461989	-0.7228257372664771	0.1478439425051335	-0.3930753564154786	0.6776859504132231
2380.889892578125	-0.2092329822142975	-9.760985330915956	-1.692233926190084	-0.3621323303158818	-2.227234968599963	-0.01865102638284081	0.1540041067761807	-0.4032586558044806	0.6590909090909091
2400.421142578125	0.01852542622833172	-9.550676778852839	-1.950847540944391	-3.718591414975016e-05	0.3718219555833518	0.003718591414975016	0.1581108829568789	-0.4012219959266802	0.6694214876033058
2419.952392578125	-0.3302645576917466	-9.796785540320332	-1.991181410275115	-7.437182829950031e-05	0.7436439111667036	0.007437182829950031	0.1663244353182751	-0.3971486761710794	0.6797520661157025
2439.483642578125	0.102819230608474	-9.710088448769927	-2.0939743536158	0	0	0	0.1396303901437372	-0.3849287169042769	0.6694214876033058
2459.014892578125	0.1052426538258621	-9.712638208596303	-1.841421794195403	-3.718591414975016e-05	0.3718219555833518	0.003718591414975016	0.1457905544147844	-0.3991853360488798	0.6694214876033058
2478.546142578125	0.1942886704767433	-9.743846663212519	-1.809622349224775	0.3587047118933778	0.003641210253730994	0.3614128686332386	0.1581108829568789	-0.3869653767820774	0.6632231404958678
2498.077392578125	-0.003220716049402197	-9.641041364855973	-1.89264279835326	7.437182829950031e-05	-0.7436439111667036	-0.007437182829950031	0.1601642710472279	-0.3930753564154786	0.6880165289256198
2517.608642578125	-0.1285739183512205	-9.811572233600229	-1.714202721625983	0.003650733907402479	-0.007337975153878983	-0.3650733907402479	0.135523613963039	-0.4032586558044806	0.6694214876033058
2537.139892578125	-0.2433667365645118	-9.86868857815586	-1.887775447849609	0.003687919821552229	-0.3791599307372308	-0.3687919821552229	0.1560574948665298	-0.3910386965376782	0.6673553719008265
2556.671142578125	0.312687050339855	-9.565564520390115	-1.756235011328498	-0.7210601576941581	5.555464641699391e-05	-0.3577523465262293	0.1519507186858316	-0.4134419551934826	0.6797520661157025
2576.202392578125	-0.09602765210273173	-9.767715607513217	-2.13241159657561	0.3622067021441813	1.483591057433259	0.01121384355289078	0.1601642710472279	-0.395112016293279	0.6818181818181819
2595.733642578125	-0.1409607418056672	-9.618910639850499	-1.967975273144428	7.437182829950031e-05	-0.7436439111667036	-0.007437182829950031	0.1519507186858316	-0.3991853360488798	0.6508264462809917
2615.264892578125	-0.1021418077175738	-9.899692517828681	-1.928606409414207	0.0001115577424492505	-1.115465866750055	-0.01115577424492505	0.1396303901437372	-0.405295315682281	0.6590909090909091
2634.796142578125	-0.05587043321154443	-9.678064773405065	-2.137652226281852	0.3623182598866305	0.3681251906832038	5.806930796573191e-05	0.1437371663244353	-0.4032586558044806	0.6735537190082644
2654.327392578125	-0.02606382601193496	-9.841760637077194	-1.797872466268835	-0.3660433656223325	0.3828566956373787	0.3724525042622321	0.1396303901437372	-0.3971486761710794	0.6942148760330579
2673.858642578125	0.05796027100070108	-9.821259512376439	-1.932009033356703	-0.003687919821552229	0.3791599307372308	0.3687919821552229	0.1478439425051335	-0.405295315682281	0.6880165289256198
2693.389892578125	0.001395065301516266	-9.842882262219177	-1.713168843383876	0.007301467814804958	-0.01467595030775797	-0.7301467814804957	0.1560574948665298	-0.3808553971486761	0.6652892561983471
2712.921142578125	-0.3553205298566844	-9.924886971320328	-2.155982338110519	0.01076627215145869	1.837095852455122	-1.076627215145868	0.1560574948665298	-0.3971486761710794	0.6797520661157025
2732.452392578125	-0.3084285129581772	-9.766391885856478	-2.052382901394092	-0.003650733907402479	0.007337975153878983	0.3650733907402479	0.1601642710472279	-0.395112016293279	0.6611570247933884
2751.983642578125	0.1788364887255223	-9.822176201978747	-1.961216290850743	-0.7280269522816153	-3.331666095295991	0.3389271122194913	0.1416837782340863	-0.3767820773930753	0.6797520661157025
2771.514892578125	0.03529854318590644	-9.721920137703224	-1.843284772863548	-0.724636519773261	-0.7362503813664076	-0.0001161386159314638	0.1457905544147844	-0.3971486761710794	0.6880165289256198
2791.046142578125	0.1293270485733506	-9.638184254294616	-1.310901619111685	0.3621695162300315	1.855413013016611	0.0149324349678658	0.1581108829568789	-0.3971486761710794	0.6611570247933884
2810.577392578125	0.02990597307184862	-9.703663735373437	-1.663532435728287	0.3692106826457882	4.443490751792315	-0.6891842066078048	0.1519507186858316	-0.3910386965376782	0.6838842975206612
2830.108642578125	-0.4484713033726829	-9.611672388090501	-2.384289887577242	0.3657086923949848	2.963540904612787	-0.338985181527457	0.1416837782340863	-0.3991853360488798	0.6673553719008265
2849.639892578125	-0.1714148044108984	-9.865424120092857	-2.286173186303387	-1.072314658116132	-1.505549428248479	-1.464186362299864	0.1437371663244353	-0.3869653767820774	0.6652892561983471
2869.171142578125	-0.2615372846777037	-9.817897055379124	-1.948757177409879	-0.7242274747176138	-4.826291892783278	-0.04102064418065664	0.1704312114989733	-0.3971486761710794	0.6735537190082644
2888.702392578125	0.252030494282125	-9.735176806848781	-1.734349809404165	-0.731640500274868	-3.696150075725464	0.7002819115447642	0.1642710472279261	-0.3910386965376782	0.6673553719008265
2908.233642578125	0.01113449801701995	-9.67306651230783	-1.704483267233998	0.3550911639001251	-0.3608427701757418	0.7227676679585114	0.135523613963039	-0.3890020366598778	0.6776859504132231
2927.764892578125	-0.1225299497413728	-9.702951350416377	-1.582335008620909	0.007189910072355707	1.100789916442297	-0.7189910072355706	0.1478439425051335	-0.3808553971486761	0.6818181818181819
2947.296142578125	0.05292888794605222	-9.622886326230777	-1.764296264868407	0.3621695162300315	1.855413013016611	0.0149324349678658	0.1478439425051335	-0.3991853360488798	0.6776859504132231
2966.827392578125	0.01151934361743823	-9.859608745563696	-2.050644787247941	0.003390432508354228	2.595415713929583	-0.3390432508354227	0.1519507186858316	-0.3910386965376782	0.6797520661157025
2986.358642578125	-0.183341074933697	-9.699280280895231	-1.888630835543435	0.007115538244056207	1.844433827609001	-0.7115538244056206	0.1601642710472279	-0.4032586558044806	0.6694214876033058
3005.889892578125	-0.324596759883947	-9.85828628569581	-1.846774670535101	0	0	0	0.162217659137577	-0.4012219959266802	0.6714876033057852
3025.421142578125	-0.1356281066621663	-9.597186421154101	-2.14572977792779	-0.003539176164953228	-1.108127891596177	0.3539176164953228	0.1560574948665298	-0.3910386965376782	0.6776859504132231
3044.952392578125	0.1377944404005864	-9.532113130937145	-1.926481346686214	0.3585931541509285	1.119107077003786	0.3725686428781636	0.1334702258726899	-0.4012219959266802	0.6900826446280992
3064.483642578125	0.06659800432320406	-9.68846664526883	-2.219933477440135	-0.3586303400650783	-0.7472851214204346	-0.3688500514631886	0.1581108829568789	-0.415478615071283	0.6942148760330579
3084.014892578125	-0.1341667974458239	-9.800047264507484	-1.861106751805869	-0.3623554458007803	0.003696764900147988	0.003660522107009284	0.1560574948665298	-0.3788187372708757	0.6673553719008265
3103.546142578125	0.132250455624069	-9.833905686014884	-1.741681854135631	-0.0001115577424492505	1.115465866750055	0.01115577424492505	0.1519507186858316	-0.395112016293279	0.6797520661157025
3123.077392578125	-0.1719597394721464	-9.642266982429327	-1.60134201759512	0.007003980501606956	2.959899694359057	-0.7003980501606956	0.1416837782340863	-0.3991853360488798	0.6756198347107438
3142.608642578125	-0.1928092230456271	-9.62900831545142	-1.906359231812431	-0.717335051958456	-0.7509263316741656	-0.7302629200964272	0.1437371663244353	-0.4093686354378818	0.6859504132231405
3162.139892578125	-0.162106745759798	-9.899081181129	-1.929775141340067	-0.7281756959382143	-1.844378272962584	0.3538014778793914	0.162217659137577	-0.3828920570264766	0.6714876033057852
3181.671142578125	-0.01775731226356247	-9.909074864298553	-2.074756257881251	-0.7316776861890179	-3.324328120142112	0.7040005029597391	0.1601642710472279	-0.3747454175152749	0.6797520661157025
3201.202392578125	-0.01488279953093001	-9.791478771848334	-1.837240015635667	-0.7245993338591113	-1.108072336949759	-0.003834730030906479	0.1498973305954825	-0.3971486761710794	0.6446280991735538
3220.733642578125	0.1341139600375698	-9.603303152921185	-1.803798667918992	-1.44949615503142	0.7584309707672955	0.02207927125798716	0.1560574948665298	-0.3971486761710794	0.6714876033057852
3240.264892578125	0.2525115512826479	-9.635021265085278	-1.750385042754927	-0.0001115577424492505	1.115465866750055	0.01115577424492505	0.1519507186858316	-0.3910386965376782	0.6590909090909091
3259.796142578125	-0.08553193469296343	-9.540988658884059	-1.81560217690122	0.3730101602097897	2.94886495430503	-1.069131963007953	0.1396303901437372	-0.3971486761710794	0.6694214876033058
3279.327392578125	-0.3117336111371793	-9.877460534267689	-1.942212962094023	0.007301467814804958	-0.01467595030775797	-0.7301467814804957	0.1457905544147844	-0.3930753564154786	0.6611570247933884
3298.858642578125	-0.05455896142159442	-9.780974064192982	-1.848034619280186	-0.3586303400650783	-0.7472851214204346	-0.3688500514631886	0.1560574948665298	-0.3971486761710794	0.6735537190082644
3318.389892578125	-0.1762206427079251	-9.606978007808896	-2.125978576402498	-0.728212881852364	-1.472556317379232	0.3575200692943664	0.1560574948665298	-0.3788187372708757	0.6570247933884298
3337.921142578125	0.1531709148205776	-9.613808070874681	-1.772363827352585	-0.003464804336653728	-1.85177180276288	0.3464804336653728	0.1416837782340863	-0.395112016293279	0.6756198347107438
3357.452392578125	0.08651691861698478	-9.502026196313841	-1.883897287232826	0.3587047118933778	0.003641210253730994	0.3614128686332386	0.1581108829568789	-0.3930753564154786	0.6797520661157025
3376.983642578125	0.1611162415095411	-9.861239081911915	-2.037208050318037	0.7208742281234094	1.859054223270342	0.3763453036011044	0.1498973305954825	-0.415478615071283	0.6714876033057852
3396.514892578125	-0.1670632101012507	-9.75068377126607	-1.764559663291644	-0.0001487436565990006	1.487287822333407	0.01487436565990006	0.162217659137577	-0.4012219959266802	0.6756198347107438
3416.046142578125	-0.08407614580285658	-9.880517953809592	-1.864128473238116	7.437182829950031e-05	-0.7436439111667036	-0.007437182829950031	0.1581108829568789	-0.3930753564154786	0.6694214876033058
3435.577392578125	0.0242681427493275	-9.662153300511051	-1.80893809164425	7.437182829950031e-05	-0.7436439111667036	-0.007437182829950031	0.1498973305954825	-0.3849287169042769	0.6673553719008265
3455.108642578125	0.271403684896624	-9.535579475216759	-1.7134561632208	-0.3623554458007803	0.003696764900147988	0.003660522107009284	0.1437371663244353	-0.3991853360488798	0.6776859504132231
3474.639892578125	-0.1955891016142223	-9.879907142855266	-1.813696612859258	-0.7246737056874109	-0.3644284257830558	0.003602452799043552	0.1519507186858316	-0.3910386965376782	0.6694214876033058
3494.171142578125	-0.07962912871113792	-9.689080084949936	-2.012362376295404	-0.01084064397975819	-1.093451941288418	1.084064397975818	0.1498973305954825	-0.3930753564154786	0.6838842975206612
3513.702392578125	0.08896478899341582	-9.661234718225463	-1.965492966447194	-0.3659318078798833	-0.7326091711126765	0.3612967300173071	0.1375770020533881	-0.3890020366598778	0.6735537190082644
3533.233642578125	-0.1891405719531151	-10.04115545159817	-1.695314268229497	-0.7210229717800084	-0.3717664009369348	-0.3614709379412043	0.1478439425051335	-0.4012219959266802	0.6528925619834711
3552.764892578125	-0.01569349886951606	-9.67174089796781	-1.810216704349465	0.003650733907402479	-0.007337975153878983	-0.3650733907402479	0.1560574948665298	-0.3890020366598778	0.6714876033057852
3572.296142578125	0.3340065502613875	-9.752004548748817	-2.133551675379581	-0.007413025557254208	1.130141817057813	0.7413025557254208	0.1519507186858316	-0.3890020366598778	0.6838842975206612
3591.827392578125	0.01532600286583793	-9.521711259073379	-1.844200095527931	-0.358816269635827	1.111824656496325	-0.3502570943883135	0.1396303901437372	-0.395112016293279	0.6818181818181819
3611.358642578125	-0.2807440768871038	-9.707440584860164	-1.97519743709654	-0.3551283498142748	0.7326647257590937	-0.7190490765435364	0.1314168377823409	-0.4032586558044806	0.6838842975206612
3630.889892578125	0.06875093155505224	-9.721103865463867	-1.958364385168408	-1.079802055501686	0.3682362999760378	-0.7154466237444929	0.1457905544147844	-0.395112016293279	0.6756198347107438
3650.421142578125	-0.2493042417398176	-9.627275038162542	-2.023191942006081	-0.007338653728954708	0.3864979058911098	0.7338653728954707	0.1642710472279261	-0.4032586558044806	0.6859504132231405
3669.952392578125	-0.06435754048962142	-9.700808938091646	-1.854748650345954	-0.3585931541509285	-1.119107077003786	-0.3725686428781636	0.1498973305954825	-0.3869653767820774	0.6652892561983471
3689.483642578125	0.001179772578331452	-9.839618540199673	-2.039325752611048	-0.007301467814804958	0.01467595030775797	0.7301467814804957	0.1293634496919918	-0.3849287169042769	0.6776859504132231
3709.014892578125	0.04598352892374931	-9.76179865898132	-1.866117630791644	-0.3623554458007803	0.003696764900147988	0.003660522107009284	0.1396303901437372	-0.3869653767820774	0.6797520661157025
3728.546142578125	0.02214991471095966	-9.722838194243456	-1.738330490365322	-0.003762291649851729	1.122803841903934	0.3762291649851729	0.1437371663244353	-0.3910386965376782	0.6549586776859504
3748.077392578125	-0.3424211046803692	-9.617382823846652	-1.919296510654361	-0.3551283498142748	0.7326647257590937	-0.7190490765435364	0.1498973305954825	-0.3890020366598778	0.6921487603305785
3767.608642578125	-0.06250980843679346	-9.670211504727897	-1.916339718773552	0.0001115577424492505	-1.115465866750055	-0.01115577424492505	0.1416837782340863	-0.4032586558044806	0.6859504132231405
3787.139892578125	0.2367147434507244	-9.483462232950933	-1.89049144835748	-0.003687919821552229	0.3791599307372308	0.3687919821552229	0.1581108829568789	-0.395112016293279	0.6735537190082644
3806.671142578125	-0.05466936794630459	-9.847676428969304	-2.177687735123181	-0.3623554458007803	0.003696764900147988	0.003660522107009284	0.1540041067761807	-0.3910386965376782	0.6652892561983471
3826.202392578125	-0.05806357996310846	-9.688773890854739	-2.064547334563052	-0.3622810739724808	-0.7399471462665556	-0.003776660722940747	0.1560574948665298	-0.4032586558044806	0.6797520661157025
3845.733642578125	0.01908061332401712	-9.710497268358568	-1.969353777467237	-0.7174094237867555	-0.007282420507461989	-0.7228257372664771	0.135523613963039	-0.3910386965376782	0.6776859504132231
3865.264892578125	0.08289558460649143	-9.823197094310567	-1.763186153549714	-0.007189910072355707	-1.100789916442297	0.7189910072355706	0.1416837782340863	-0.3910386965376782	0.6694214876033058
3884.796142578125	-0.1657564700195026	-9.780261258639639	-1.808117666016583	-0.003427618422503978	-2.223593758346232	0.3427618422503977	0.1478439425051335	-0.4093686354378818	0.6921487603305785
3904.327392578125	0.176223008562026	-9.763021227231611	-1.874100285400866	3.718591414975016e-05	-0.3718219555833518	-0.003718591414975016	0.1396303901437372	-0.3930753564154786	0.6735537190082644
3923.858642578125	0.04919793602888235	-9.800759334017329	-1.973264534296078	-0.3624298176290798	0.7473406760668516	0.01109770493695932	0.1683778234086242	-0.3849287169042769	0.6797520661157025
3943.389892578125	-0.03278206304054838	-9.500599533716443	-1.907264565315054	-0.7175209815292047	1.108183446242593	-0.7116699630215522	0.1498973305954825	-0.3727087576374745	0.6694214876033058
3962.921142578125	-0.202714265548196	-9.898877612527249	-1.9095244817268	0.3658574360515838	1.47625308227938	-0.3538595471873571	0.1478439425051335	-0.395112016293279	0.6673553719008265
3982.452392578125	-0.3715329393923383	-9.776795650403523	-1.948902020255391	-0.007078352329906457	-2.216255783192353	0.7078352329906457	0.162217659137577	-0.3828920570264766	0.6776859504132231
4001.983642578125	0.1288105037613137	-9.855017937117173	-1.62701679204379	-0.724487776116662	-2.223538203699815	-0.01499050427583152	0.1437371663244353	-0.3910386965376782	0.6570247933884298
4021.514892578125	0.2742222057488678	-9.661334820141199	-2.140740191628925	-0.3587790837216773	0.7400027009129726	-0.3539756858032885	0.1375770020533881	-0.3890020366598778	0.6714876033057852
4041.046142578125	-0.1042135072919567	-9.570362367357731	-1.859549756934778	-7.437182829950031e-05	0.7436439111667036	0.007437182829950031	0.1540041067761807	-0.3991853360488798	0.6776859504132231
4060.577392578125	0.1585784686772747	-9.642059628461014	-1.952615622575821	-7.437182829950031e-05	0.7436439111667036	0.007437182829950031	0.1519507186858316	-0.4012219959266802	0.6756198347107438
4080.108642578125	-0.4206472819096543	-9.716009287817455	-1.978423936344855	-0.358816269635827	1.111824656496325	-0.3502570943883135	0.1540041067761807	-0.395112016293279	0.6921487603305785
4099.639892578125	-0.2742348236374061	-9.698669259642763	-1.858839212086465	-0.7209114140375591	-1.48723226768699	-0.3726267121861294	0.1519507186858316	-0.3869653767820774	0.6859504132231405
4119.171142578125	-0.054318432921333	-9.730896293311233	-1.856052235955567	-0.7064200361503985	-0.4011183015524508	-1.821764500902196	0.1334702258726899	-0.4012219959266802	0.6797520661157025
4138.702392578125	0.1218761853914818	-9.720593366723421	-2.062539513049394	-0.003650733907402479	0.007337975153878983	0.3650733907402479	0.1416837782340863	-0.3890020366598778	0.6694214876033058
4158.233642578125	-0.1011031977672646	-9.329356700611415	-1.963226741091179	0.003725105735701979	-0.7509818863205826	-0.3725105735701979	0.1478439425051335	-0.3971486761710794	0.6508264462809917
4177.764892578125	-0.201646476730642	-9.558532360809574	-1.945117442311934	-0.3622810739724808	-0.7399471462665556	-0.003776660722940747	0.1663244353182751	-0.3991853360488798	0.6735537190082644
4197.296142578125	0.1797828303658951	-9.821870218181694	-1.992761012196504	-0.3587047118933778	-0.003641210253730994	-0.3614128686332386	0.1560574948665298	-0.3930753564154786	0.6776859504132231
4216.827392578125	-0.002945488355660431	-9.684285707901664	-1.568483721477986	-0.7210973436083078	0.3718775102297688	-0.3540337551112543	0.1416837782340863	-0.4032586558044806	0.6632231404958678
4236.358642578125	-0.02372005321594493	-9.72100281720649	-1.87599822613517	-0.3622067021441813	-1.483591057433259	-0.01121384355289078	0.1519507186858316	-0.3808553971486761	0.6776859504132231
4255.889892578125	0.005663066099597719	-9.321502275294463	-1.855435536653258	-0.3622810739724808	-0.7399471462665556	-0.003776660722940747	0.1540041067761807	-0.3849287169042769	0.6714876033057852
4275.421142578125	-0.1724163493136263	-9.899081286278072	-1.919455022879123	-0.00379947756400148	1.494625797487286	0.3799477564001479	0.1437371663244353	-0.3849287169042769	0.6570247933884298
4294.952392578125	-0.1798869279463362	-9.898163440035983	-2.003769068455463	-0.358816269635827	1.111824656496325	-0.3502570943883135	0.1498973305954825	-0.3890020366598778	0.6590909090909091
4314.483642578125	-0.2515730958226114	-9.798008634315979	-1.947563472579619	0.0001115577424492505	-1.115465866750055	-0.01115577424492505	0.135523613963039	-0.3971486761710794	0.6652892561983471
4334.014892578125	0.05471037608405406	-9.898976978399489	-2.157012536135135	-0.362095144401732	-2.599056924183315	-0.02236961779781583	0.1498973305954825	-0.3686354378818737	0.6673553719008265
4353.546142578125	-0.00967082294657667	-9.899793566086059	-2.010972568447445	-0.01441700605886117	-1.829757877301243	1.441700605886116	0.1498973305954825	-0.3890020366598778	0.6735537190082644
4373.077392578125	0.06726438656163326	-9.571584515011738	-1.908812885387775	-0.3585931541509285	-1.119107077003786	-0.3725686428781636	0.1519507186858316	-0.4032586558044806	0.6797520661157025
4392.608642578125	0.03089726594013915	-9.733343217346023	-1.696575531337972	-0.3587047118933778	-0.003641210253730994	-0.3614128686332386	0.1519507186858316	-0.3788187372708757	0.6611570247933884
4412.139892578125	0.03854291777631795	-9.780871123252323	-1.951430592543932	-0.3624670035432295	1.119162631650203	0.01481629635193433	0.1498973305954825	-0.4032586558044806	0.6590909090909091
4431.671142578125	-0.05033748908749797	-9.649609121471626	-1.988750363750068	-0.003725105735701979	0.7509818863205826	0.3725105735701979	0.1437371663244353	-0.3910386965376782	0.6818181818181819
4451.202392578125	0.03042567235602003	-9.98016236593822	-2.014189078534001	-0.003539176164953228	-1.108127891596177	0.3539176164953228	0.1683778234086242	-0.4073319755600814	0.6818181818181819
4470.733642578125	-0.04537550441980979	-9.661338079762405	-1.820816519339674	-0.003650733907402479	0.007337975153878983	0.3650733907402479	0.1540041067761807	-0.3910386965376782	0.6714876033057852
4490.264892578125	-0.2873692569877473	-9.919582726426038	-1.754358100408425	-0.36239263171493	0.3755187204834998	0.007379113521984299	0.1437371663244353	-0.3849287169042769	0.6611570247933884
4509.796142578125	0.01718871866130511	-9.501108980966176	-1.906290622043504	0.3477525101711704	0.02565513571536794	1.456633040853982	0.1498973305954825	-0.3849287169042769	0.6632231404958678
4529.327392578125	0.2144725604298284	-9.663987205461023	-1.815752014327612	0.362243888058331	1.111769101849907	0.007495252137915762	0.1601642710472279	-0.3890020366598778	0.6694214876033058
4548.858642578125	-0.1263247797192678	-9.557511678775898	-2.122507342691075	-0.3588534555499768	1.483646612079676	-0.3465385029733385	0.162217659137577	-0.3971486761710794	0.6673553719008265
4568.389892578125	0.0256600535787092	-9.678369916009549	-2.18866845262364	-1.800825027281694	-0.003530100960897006	-1.076917561685697	0.1581108829568789	-0.3930753564154786	0.6838842975206612
4587.921142578125	-0.1549965655684635	-9.870115556200471	-1.833447814384551	0.003725105735701979	-0.7509818863205826	-0.3725105735701979	0.1663244353182751	-0.4093686354378818	0.6694214876033058
4607.452392578125	-0.0631714589670208	-9.860425438399337	-1.894284701099307	0.3551283498142748	-0.7326647257590937	0.7190490765435364	0.1478439425051335	-0.395112016293279	0.6590909090909091
4626.983642578125	-0.0809760883126019	-9.702848935221075	-1.634130389579937	-0.3622810739724808	-0.7399471462665556	-0.003776660722940747	0.1540041067761807	-0.3971486761710794	0.6632231404958678
4646.514892578125	0.09930357141448896	-9.891225178575983	-1.976785713816299	-0.3623554458007803	0.003696764900147988	0.003660522107009284	0.1581108829568789	-0.3869653767820774	0.6528925619834711
4666.046142578125	-0.04316737392560652	-9.660624117569279	-1.89442086914645	0.3623554458007803	-0.003696764900147988	-0.003660522107009284	0.1457905544147844	-0.3849287169042769	0.6714876033057852
4685.577392578125	-0.01700575927749971	-9.778831862166392	-2.099808024083343	-0.003687919821552229	0.3791599307372308	0.3687919821552229	0.1704312114989733	-0.3767820773930753	0.6756198347107438
4705.108642578125	-0.1456474987796136	-9.650426024605407	-1.811750040679547	-1.083341231666639	-0.7398915916201386	-0.36152900724917	0.162217659137577	-0.405295315682281	0.6756198347107438
4724.639892578125	0.000238162646160482	-9.913256327411077	-1.674605421538683	-0.7209114140375591	-1.48723226768699	-0.3726267121861294	0.1581108829568789	-0.3890020366598778	0.6797520661157025
4744.171142578125	0.199245134818196	-9.89224407307545	-1.974837827273198	-0.36239263171493	0.3755187204834998	0.007379113521984299	0.1437371663244353	-0.3849287169042769	0.6652892561983471
4763.702392578125	-0.05832855562241285	-9.582192899651247	-1.722381479252905	-0.373270461608838	-0.3461112652215669	1.095162102912778	0.1519507186858316	-0.3991853360488798	0.6735537190082644
4783.233642578125	0.07709214449690506	-9.881740206612667	-1.903071483230169	-7.437182829950031e-05	0.7436439111667036	0.007437182829950031	0.1581108829568789	-0.4134419551934826	0.6818181818181819
4802.764892578125	-0.01154773386664944	-9.700400433950216	-1.948408871111686	0.003501990250803478	1.479949847179528	-0.3501990250803478	0.162217659137577	-0.3910386965376782	0.6652892561983471
4822.296142578125	0.1492451742490976	-9.661744060326125	-1.974839141636587	0.3623182598866305	0.3681251906832038	5.806930796573191e-05	0.1642710472279261	-0.3930753564154786	0.6652892561983471
4841.827392578125	-0.2085618682676665	-9.717435004073213	-2.047937724411119	-0.3658946219657335	-1.104431126696028	0.3575781386023321	0.1560574948665298	-0.4093686354378818	0.6673553719008265
4861.358642578125	0.4393903667152719	-9.874597114762063	-1.979678890509061	-0.007078352329906457	-2.216255783192353	0.7078352329906457	0.1560574948665298	-0.3849287169042769	0.6776859504132231
4880.889892578125	-0.0929425783551163	-9.580051433668155	-1.901914054829457	0.3587047118933778	0.003641210253730994	0.3614128686332386	0.1560574948665298	-0.3828920570264766	0.6735537190082644
4900.421142578125	0.3386388925910125	-9.543840091395573	-1.954629753033748	-0.369694099529735	0.3901946707912577	0.73752589500248	0.1581108829568789	-0.4114052953156823	0.6735537190082644
4919.952392578125	0.2439440049651392	-9.744458105061273	-1.798133498837971	-0.007450211471403958	1.501963772641165	0.7450211471403958	0.1560574948665298	-0.4073319755600814	0.6776859504132231
4939.483642578125	-0.1912319869783391	-9.62849834245633	-1.958933767388699	-0.003762291649851729	1.122803841903934	0.3762291649851729	0.1498973305954825	-0.3930753564154786	0.6735537190082644
4959.014892578125	0.08647117877103343	-9.682040985530699	-1.882372625701114	-0.3587790837216773	0.7400027009129726	-0.3539756858032885	0.1334702258726899	-0.395112016293279	0.6962809917355373
4978.546142578125	-0.1413518963503546	-9.779037113153279	-1.954936788321513	-0.007264281900655208	-0.3571460052755938	0.7264281900655207	0.1519507186858316	-0.4012219959266802	0.6735537190082644
4998.077392578125	-0.1221143480376423	-9.699483639198839	-1.929521732078589	-0.003539176164953228	-1.108127891596177	0.3539176164953228	0.1581108829568789	-0.3869653767820774	0.6735537190082644
5017.608642578125	0.05841136051594546	-9.701113660099844	-1.947045350531515	0.3660061797081828	-0.01103474005402697	-0.3687339128472572	0.1498973305954825	-0.3747454175152749	0.6652892561983471
5037.139892578125	0.1702239911800959	-9.901627576185101	-2.007466372669864	-0.3514032440785728	-0.01831716056148896	-1.091559650113734	0.1601642710472279	-0.3930753564154786	0.6673553719008265
5056.671142578125	-0.1084404999522886	-9.83839576165124	-2.051983334923713	0.3623554458007803	-0.003696764900147988	-0.003660522107009284	0.1498973305954825	-0.4012219959266802	0.6776859504132231
5076.202392578125	-0.1818994811681957	-9.818814165577717	-1.936683961060145	-1.438358023738464	-1.1226927326111	-1.091733858037631	0.1519507186858316	-0.3828920570264766	0.6694214876033058
5095.733642578125	-0.02398976058345118	-9.54109002258865	-1.867007980551628	-0.3695081699589862	-1.468915107125501	0.7189329379276049	0.1601642710472279	-0.3890020366598778	0.6694214876033058
5115.264892578125	0.1170995259617	-9.692137819939051	-1.903317532056666	0.0001115577424492505	-1.115465866750055	-0.01115577424492505	0.1478439425051335	-0.3788187372708757	0.6859504132231405
5134.796142578125	0.3045398374342786	-9.744865452562918	-1.817994581142618	-0.003762291649851729	1.122803841903934	0.3762291649851729	0.1375770020533881	-0.3930753564154786	0.6528925619834711
5154.327392578125	-0.04564600040534968	-9.691425540131062	-1.811799986488344	-0.0001115577424492505	1.115465866750055	0.01115577424492505	0.1581108829568789	-0.3910386965376782	0.6570247933884298
5173.858642578125	-0.1338963014602841	-9.769959804138825	-1.870123284657199	0.7318636157597666	1.465218342225353	-0.7225934600346142	0.1519507186858316	-0.4012219959266802	0.6714876033057852
5193.389892578125	0.09036616323920126	-9.824114940552658	-1.678872107973375	0.3585931541509285	1.119107077003786	0.3725686428781636	0.1478439425051335	-0.3991853360488798	0.6632231404958678
5212.921142578125	-0.01229849823467855	-9.620643181095879	-1.923383392177382	0.0001115577424492505	-1.115465866750055	-0.01115577424492505	0.1642710472279261	-0.3991853360488798	0.6714876033057852
5232.452392578125	-0.0002176585772857587	-9.960070376273322	-1.992744714090475	0.7209114140375591	1.48723226768699	0.3726267121861294	0.1601642710472279	-0.3890020366598778	0.6446280991735538
5251.983642578125	-0.3243412476410463	-9.818203670070604	-1.855291745298456	-0.7283244395948133	-0.3570904506291769	0.3686758435392914	0.1519507186858316	-0.3930753564154786	0.6590909090909091
5271.514892578125	0.05279403426229909	-9.532929928921858	-1.759801142076636	-0.365820250137434	-1.848075037862732	0.3501409557723821	0.162217659137577	-0.3747454175152749	0.6694214876033058
5291.046142578125	0.09906462015029482	-9.521302439484739	-1.968820671676494	-0.3587418978075275	0.3681807453296208	-0.3576942772182636	0.1416837782340863	-0.3890020366598778	0.6735537190082644
5310.577392578125	0.1285999427463308	-9.925086018512019	-1.619998091544359	-7.437182829950031e-05	0.7436439111667036	0.007437182829950031	0.1560574948665298	-0.3686354378818737	0.6735537190082644
5330.108642578125	-0.1320028295615047	-9.559347581558221	-1.933239014616509	-0.3550539779859753	-0.01097918540760998	-0.7264862593734864	0.1478439425051335	-0.4032586558044806	0.6797520661157025
5349.639892578125	-0.07333122509445675	-9.960377096113874	-1.888959163518109	-0.003613547993252729	-0.3644839804294728	0.3613547993252729	0.1519507186858316	-0.3910386965376782	0.6735537190082644
5369.171142578125	0.2461821029446209	-9.76373445338124	-1.872736764820696	-1.086954779659892	-1.104375572049612	-0.000174207923897194	0.1560574948665298	-0.4073319755600814	0.6508264462809917
5388.702392578125	-0.03197215231999597	-9.830337662583466	-1.934261589333468	-0.003539176164953228	-1.108127891596177	0.3539176164953228	0.1437371663244353	-0.3991853360488798	0.6632231404958678
5408.233642578125	-0.2063986890013809	-9.686735576110447	-2.120043699953971	-0.3659318078798833	-0.7326091711126765	0.3612967300173071	0.1560574948665298	-0.3991853360488798	0.6673553719008265
5427.764892578125	-0.1101076384754121	-9.778934803107049	-1.996412050819597	-0.7282872536806635	-0.7289124062125286	0.3649572521243164	0.162217659137577	-0.4012219959266802	0.6652892561983471
5447.296142578125	0.1943044428374162	-9.543841563482568	-1.810148094580538	-0.7209857858658586	-0.7435883565202867	-0.3651895293561793	0.1540041067761807	-0.3930753564154786	0.6652892561983471
5466.827392578125	0.1739549430972658	-9.723754568398551	-1.798498103242193	0.7282500677665138	1.10073436179588	-0.3612386607093414	0.1519507186858316	-0.3849287169042769	0.6797520661157025
5486.358642578125	0.1248555843225889	-9.672963361069032	-1.828519477419631	0.3694709840448365	1.840737062708853	-0.7152143465126299	0.1437371663244353	-0.3849287169042769	0.6673553719008265
5505.889892578125	-0.004843691962641596	-9.821566127067921	-1.83854360124528	0.3586303400650783	0.7472851214204346	0.3688500514631886	0.1540041067761807	-0.3788187372708757	0.6590909090909091
5525.421142578125	-0.2065295995949658	-9.880111237202373	-1.782346680167807	-0.007375839643104458	0.7583198614744615	0.7375839643104457	0.1498973305954825	-0.4012219959266802	0.6652892561983471
5544.952392578125	-0.09771135160456171	-10.11826000368547	-2.076288279847944	-0.3660061797081828	0.01103474005402697	0.3687339128472572	0.1540041067761807	-0.3890020366598778	0.6673553719008265
5564.483642578125	0.05018922889717288	-9.830438815989913	-2.006307629905763	-0.7245621479449615	-1.479894292533111	-0.007553321445881495	0.1437371663244353	-0.3971486761710794	0.6818181818181819
5584.014892578125	0.1739099918693481	-9.693769102628911	-1.796999728978269	-0.7282500677665138	-1.10073436179588	0.3612386607093414	0.1663244353182751	-0.3991853360488798	0.6756198347107438
5603.546142578125	0.1964668334856681	-9.7231423905063	-1.882227782855602	-0.36239263171493	0.3755187204834998	0.007379113521984299	0.1396303901437372	-0.395112016293279	0.6776859504132231
5623.077392578125	-0.05457394516423366	-9.770978908936437	-1.847535161192212	-0.003762291649851729	1.122803841903934	0.3762291649851729	0.1437371663244353	-0.3991853360488798	0.6756198347107438
5642.608642578125	-0.1238122426640779	-9.830032625128052	-1.872925244530737	0.3587047118933778	0.003641210253730994	0.3614128686332386	0.1498973305954825	-0.3869653767820774	0.6714876033057852
5662.139892578125	-0.1179543879101701	-9.948138585424289	-2.068187069660997	0.003613547993252729	0.3644839804294728	-0.3613547993252729	0.1560574948665298	-0.4012219959266802	0.6714876033057852
5681.671142578125	-0.1026063037393902	-9.589842704875736	-1.913123208686996	-0.01087782989390794	-0.7216299857050666	1.087782989390794	0.1519507186858316	-0.3869653767820774	0.6549586776859504
5701.202392578125	-0.1884686693884504	-9.787604869768932	-2.051044353718321	-0.7282500677665138	-1.10073436179588	0.3612386607093414	0.1519507186858316	-0.4012219959266802	0.6652892561983471
5720.733642578125	0.4628998589162339	-9.556995712283753	-1.763328630541126	-0.3660061797081828	0.01103474005402697	0.3687339128472572	0.1519507186858316	-0.3890020366598778	0.6632231404958678
5740.264892578125	0.0001790162936371836	-9.663275451398391	-1.672633876454573	-0.3551283498142748	0.7326647257590937	-0.7190490765435364	0.1642710472279261	-0.4012219959266802	0.6756198347107438
5759.796142578125	-0.1385728063997931	-9.738138540735934	-2.047573120006898	-0.358667525979228	-0.3754631658370828	-0.3651314600482136	0.1683778234086242	-0.3991853360488798	0.6528925619834711
5779.327392578125	0.05713379930144214	-9.901526738225867	-1.904459976714738	-0.003613547993252729	-0.3644839804294728	0.3613547993252729	0.1581108829568789	-0.4012219959266802	0.6590909090909091
5798.858642578125	-0.1186602010502815	-9.898366798339591	-2.044659964990617	-0.003650733907402479	0.007337975153878983	0.3650733907402479	0.1396303901437372	-0.3910386965376782	0.6859504132231405
5818.389892578125	0.1018137426155779	-9.460413556554299	-2.060458087185929	-0.366117737450632	1.126500606804082	0.3798896870921822	0.1457905544147844	-0.395112016293279	0.6776859504132231
5837.921142578125	-0.02633432199747485	-9.871848097445852	-1.788855933417505	-0.3587047118933778	-0.003641210253730994	-0.3614128686332386	0.1519507186858316	-0.3869653767820774	0.6632231404958678
5857.452392578125	-0.09808121346234074	-9.941712925686158	-1.730626217921976	-0.003687919821552229	0.3791599307372308	0.3687919821552229	0.1478439425051335	-0.4093686354378818	0.6611570247933884
5876.983642578125	-0.0317308352017009	-9.570259636715216	-1.942305493276637	0.3585931541509285	1.119107077003786	0.3725686428781636	0.1416837782340863	-0.3991853360488798	0.6652892561983471
5896.514892578125	-0.3894180077773511	-9.705911822514675	-2.019399740754965	-0.36239263171493	0.3755187204834998	0.007379113521984299	0.1786447638603696	-0.3849287169042769	0.6776859504132231
5916.046142578125	-0.1589767207842649	-9.741402473053581	-1.700775973857838	-0.7245249620308118	-1.851716248116463	-0.01127191286085651	0.1416837782340863	-0.3808553971486761	0.6652892561983471
5935.577392578125	0.05232796100441547	-9.643080625941906	-1.744265366813849	0.3550911639001251	-0.3608427701757418	0.7227676679585114	0.1581108829568789	-0.395112016293279	0.6694214876033058
5955.108642578125	0.02041810950907738	-9.550064811258732	-2.013936983635913	-0.007338653728954708	0.3864979058911098	0.7338653728954707	0.1396303901437372	-0.3890020366598778	0.6673553719008265
5974.639892578125	0.07584533938571386	-9.892143340265285	-1.861511312857129	-0.003650733907402479	0.007337975153878983	0.3650733907402479	0.1560574948665298	-0.3788187372708757	0.6673553719008265
5994.171142578125	-0.1001134821350414	-9.779036692556996	-1.996217262165287	-1.079764869587536	-0.003585655607314001	-0.7191652151594679	0.1416837782340863	-0.4012219959266802	0.6756198347107438
6013.702392578125	-0.1926901417225469	-9.918969812490289	-1.910328609248439	-0.007375839643104458	0.7583198614744615	0.7375839643104457	0.1540041067761807	-0.3869653767820774	0.6818181818181819
6033.233642578125	-0.07292587542516372	-10.02024603305414	-1.90247081916121	-0.7245993338591113	-1.108072336949759	-0.003834730030906479	0.1457905544147844	-0.4012219959266802	0.6611570247933884
6052.764892578125	0.05546744939635232	-9.632065524695181	-1.848914979878411	-0.7245621479449615	-1.479894292533111	-0.007553321445881495	0.1437371663244353	-0.4012219959266802	0.6776859504132231
6072.296142578125	-0.02738476121828869	-9.592187739460581	-1.753841292723711	-0.3586303400650783	-0.7472851214204346	-0.3688500514631886	0.1560574948665298	-0.4012219959266802	0.6590909090909091
6091.827392578125	0.4763939020899167	-9.575965971657592	-1.879796736330555	-0.36239263171493	0.3755187204834998	0.007379113521984299	0.1560574948665298	-0.3869653767820774	0.6549586776859504
6111.358642578125	0.1852865956226968	-9.563424000748663	-1.842886520756558	0.3549796061576758	0.7546230965743135	0.7339234422034364	0.1560574948665298	-0.4073319755600814	0.6756198347107438
6130.889892578125	0.1832724651647699	-9.904075236263392	-1.775748838825663	0.362243888058331	1.111769101849907	0.007495252137915762	0.1560574948665298	-0.3828920570264766	0.6528925619834711
6150.421142578125	-0.1046046618366441	-9.730488840660515	-1.846511272111864	-0.7175209815292047	1.108183446242593	-0.7116699630215522	0.1560574948665298	-0.405295315682281	0.6694214876033058
6169.952392578125	-0.3297685169485845	-9.706625153813375	-2.007716101713851	-0.3623554458007803	0.003696764900147988	0.003660522107009284	0.1519507186858316	-0.4012219959266802	0.6714876033057852
6189.483642578125	-0.0208210933242695	-9.760065486841516	-1.97263022252435	-0.007227095986505457	-0.7289679608589457	0.7227095986505457	0.1478439425051335	-0.395112016293279	0.6652892561983471
6209.014892578125	0.1603497047808391	-9.981486928787529	-2.01165682602797	-0.362243888058331	-1.111769101849907	-0.007495252137915762	0.1498973305954825	-0.3971486761710794	0.6673553719008265
6228.546142578125	0.09929489661611889	-9.534561316760788	-1.643163220537296	0.003613547993252729	0.3644839804294728	-0.3613547993252729	0.1540041067761807	-0.3930753564154786	0.6756198347107438
6248.077392578125	0.04352067480467903	-9.592594981813154	-1.784022493489301	-0.3622810739724808	-0.7399471462665556	-0.003776660722940747	0.1540041067761807	-0.3971486761710794	0.6652892561983471
6267.608642578125	0.06631725630322678	-9.78189075379529	-1.877241876774226	-0.003650733907402479	0.007337975153878983	0.3650733907402479	0.162217659137577	-0.4073319755600814	0.6818181818181819
6287.139892578125	-0.1004991163534933	-9.802494714287631	-1.650029454883557	-7.437182829950031e-05	0.7436439111667036	0.007437182829950031	0.1498973305954825	-0.4012219959266802	0.6590909090909091
6306.671142578125	-0.099257042950504	-9.718759777220663	-2.024765234983201	3.718591414975016e-05	-0.3718219555833518	-0.003718591414975016	0.1560574948665298	-0.3910386965376782	0.6652892561983471
6326.202392578125	-0.1286835362578971	-9.668274343390054	-2.043882124736766	-0.365968993794033	-0.3607872155293249	0.3650153214322821	0.135523613963039	-0.3828920570264766	0.6611570247933884
6345.733642578125	-0.0237949719291411	-9.671027040923757	-1.873500935695297	-0.365968993794033	-0.3607872155293249	0.3650153214322821	0.1663244353182751	-0.3930753564154786	0.6611570247933884
6365.264892578125	0.2436593138549937	-9.554550155186886	-1.788643795166455	-0.358667525979228	-0.3754631658370828	-0.3651314600482136	0.1519507186858316	-0.3890020366598778	0.6818181818181819
6384.796142578125	0.2012884441433676	-9.78158340306031	-2.042948138112254	-0.01456574971546017	-0.3424700549678359	1.456574971546016	0.1519507186858316	-0.405295315682281	0.6714876033057852
6404.327392578125	0.2412650695048504	-9.781990960860098	-2.042168983495013	-0.3623182598866305	-0.3681251906832038	-5.806930796573191e-05	0.162217659137577	-0.4012219959266802	0.6756198347107438
6423.858642578125	0.1464960517838146	-9.722632943256567	-1.883201726127152	0.3585559682367788	1.490929032587138	0.3762872342931387	0.1416837782340863	-0.3910386965376782	0.6880165289256198
6443.389892578125	-0.1024264988277193	-9.709784567954294	-1.91911670574269	0.003427618422503978	2.223593758346232	-0.3427618422503977	0.1560574948665298	-0.3971486761710794	0.6652892561983471
6462.921142578125	-0.1832361887352223	-9.769246367691057	-1.892127042159257	0	0	0	0.1540041067761807	-0.405295315682281	0.6590909090909091
6482.452392578125	0.01627076727014347	-9.941405785249319	-1.875692242338116	-0.3658574360515838	-1.47625308227938	0.3538595471873571	0.1601642710472279	-0.3808553971486761	0.6694214876033058
6501.983642578125	-0.04863565137089419	-9.802392193943255	-1.712144954303528	-0.3623182598866305	-0.3681251906832038	-5.806930796573191e-05	0.1560574948665298	-0.3890020366598778	0.6797520661157025
6521.514892578125	-0.009940530314082926	-9.719880771468219	-2.001982322863903	-0.7209485999517089	-1.115410312103638	-0.3689081207711543	0.135523613963039	-0.4073319755600814	0.6384297520661157
6541.046142578125	0.1703896009671612	-9.801574029020617	-2.012986698905372	-0.003613547993252729	-0.3644839804294728	0.3613547993252729	0.1416837782340863	-0.3971486761710794	0.6714876033057852
6560.577392578125	-0.1774075128485594	-9.657361762487701	-2.086416238381356	-0.3587790837216773	0.7400027009129726	-0.3539756858032885	0.1642710472279261	-0.395112016293279	0.6611570247933884
6580.108642578125	-0.09587229435010383	-9.730998708506535	-1.804256854996539	-0.3587790837216773	0.7400027009129726	-0.3539756858032885	0.1540041067761807	-0.395112016293279	0.6818181818181819
6599.639892578125	-0.190536425872665	-9.741606777698831	-1.6487858042445	3.718591414975016e-05	-0.3718219555833518	-0.003718591414975016	0.1396303901437372	-0.4012219959266802	0.6735537190082644
6619.171142578125	-0.1635475509072657	-9.569547041460016	-1.881748303091146	-0.7283244395948133	-0.3570904506291769	0.3686758435392914	0.1560574948665298	-0.3788187372708757	0.6714876033057852
6638.702392578125	0.0683597770103648	-9.881230338766651	-1.945325900345493	-0.362243888058331	-1.111769101849907	-0.007495252137915762	0.1560574948665298	-0.3706720977596741	0.6714876033057852
6658.233642578125	-0.0241711427311893	-9.841148669483086	-1.860961908960357	-0.3551283498142748	0.7326647257590937	-0.7190490765435364	0.1519507186858316	-0.4012219959266802	0.6694214876033058
6677.764892578125	-0.1991938746460091	-9.791072686135543	-1.693537511799697	-0.717335051958456	-0.7509263316741656	-0.7302629200964272	0.1601642710472279	-0.4093686354378818	0.6632231404958678
6697.296142578125	-0.1092204431875626	-9.528647943297312	-2.025985227081248	-0.365968993794033	-0.3607872155293249	0.3650153214322821	0.1416837782340863	-0.3930753564154786	0.6632231404958678
6716.827392578125	0.1180450789840392	-9.901832091128494	-1.934835966134639	0	0	0	0.1478439425051335	-0.3910386965376782	0.6673553719008265
6736.358642578125	0.1069255647096584	-9.572094067410543	-1.897518823655281	-0.3587047118933778	-0.003641210253730994	-0.3614128686332386	0.1560574948665298	-0.405295315682281	0.6735537190082644
6755.889892578125	-0.0001419512460559293	-9.800045897569559	-1.995268291798136	-0.7283244395948133	-0.3570904506291769	0.3686758435392914	0.1457905544147844	-0.4012219959266802	0.6714876033057852
6775.421142578125	0.223669423938185	-9.974346886259989	-1.788980797939499	-0.003576362079102979	-0.7363059360128246	0.3576362079102978	0.1601642710472279	-0.3869653767820774	0.6735537190082644
6794.952392578125	0.1368031475322959	-9.502433648964557	-1.893438251076529	-0.358816269635827	1.111824656496325	-0.3502570943883135	0.1581108829568789	-0.3991853360488798	0.6652892561983471
6814.483642578125	-0.001689219828065506	-9.820546181077741	-1.943692672397817	1.090568327653144	1.468859552479084	-0.3611805914013757	0.1437371663244353	-0.3991853360488798	0.6611570247933884
6834.014892578125	-0.1329499598199112	-9.769653820341771	-1.90166800600296	-0.3586303400650783	-0.7472851214204346	-0.3688500514631886	0.1375770020533881	-0.3849287169042769	0.6508264462809917
6853.546142578125	-0.09960324626727371	-9.908871716293085	-2.01322512442421	-0.3694337981306867	-2.212559018292205	0.7114957550976549	0.1560574948665298	-0.405295315682281	0.6590909090909091
6873.077392578125	0.1772497892418305	-9.676022568145143	-1.574992974727684	-0.3659318078798833	-0.7326091711126765	0.3612967300173071	0.1519507186858316	-0.4012219959266802	0.6797520661157025
6892.608642578125	0.07447866433340879	-9.82258523186553	-1.815955477780292	0.003501990250803478	1.479949847179528	-0.3501990250803478	0.1519507186858316	-0.3971486761710794	0.6797520661157025
6912.139892578125	-0.1806077248290868	-9.83839649769474	-1.979742505697108	0.003576362079102979	0.7363059360128246	-0.3576362079102978	0.1498973305954825	-0.4093686354378818	0.6549586776859504
6931.671142578125	-0.2416688419380762	-9.738139592226647	-1.944371935397462	-1.086880407831592	-1.848019483216315	-0.007611390753847227	0.1663244353182751	-0.3910386965376782	0.6549586776859504
6951.202392578125	0.05797604336137396	-9.62125441264649	-1.932534778712465	-0.724636519773261	-0.7362503813664076	-0.0001161386159314638	0.1498973305954825	-0.3727087576374745	0.6611570247933884
6970.733642578125	-0.1488626945027803	-9.821465604555899	-1.704576849907324	-0.3586303400650783	-0.7472851214204346	-0.3688500514631886	0.1457905544147844	-0.3930753564154786	0.6714876033057852
6990.264892578125	0.008305725130338835	-9.61064781554119	-1.943524171011295	-0.7245993338591113	-1.108072336949759	-0.003834730030906479	0.1683778234086242	-0.3991853360488798	0.6652892561983471
7009.796142578125	-0.0004581870775471849	-10.01014814715507	-1.984727097415094	-0.007227095986505457	-0.7289679608589457	0.7227095986505457	0.1560574948665298	-0.4134419551934826	0.6818181818181819
7029.327392578125	0.2179274960352229	-9.652870109615279	-1.930916534507428	-0.3660433656223325	0.3828566956373787	0.3724525042622321	0.1437371663244353	-0.3747454175152749	0.6694214876033058
7048.858642578125	0.08104312084546163	-9.780462724259966	-2.034770694848721	-0.36239263171493	0.3755187204834998	0.007379113521984299	0.1437371663244353	-0.4114052953156823	0.6673553719008265
7068.389892578125	-0.1875018236792028	-9.660625589656277	-1.74993921069324	-1.083527161237388	1.11921818629662	-0.342936050174295	0.1519507186858316	-0.405295315682281	0.6611570247933884
7087.921142578125	-0.09822079885429574	-9.778424724962887	-2.059306704856809	-0.36239263171493	0.3755187204834998	0.007379113521984299	0.1704312114989733	-0.4114052953156823	0.6714876033057852
7107.452392578125	-0.1301811219037871	-9.792091896082225	-1.660629269873766	-0.3624670035432295	1.119162631650203	0.01481629635193433	0.1601642710472279	-0.4032586558044806	0.6673553719008265
7126.983642578125	0.3325097532335312	-9.665821846454492	-1.75032510778437	0.36239263171493	-0.3755187204834998	-0.007379113521984299	0.1457905544147844	-0.3849287169042769	0.6694214876033058
7146.514892578125	-0.04978230199181258	-9.809429610977354	-2.007256600272914	-0.358667525979228	-0.3754631658370828	-0.3651314600482136	0.1745379876796715	-0.3971486761710794	0.6776859504132231
7166.046142578125	-0.1546961020976451	-9.860018406344906	-1.84346326341183	-0.7210229717800084	-0.3717664009369348	-0.3614709379412043	0.1437371663244353	-0.4114052953156823	0.6508264462809917
7185.577392578125	-0.04402381311014394	-9.720901032905612	-1.865872896328536	-0.003576362079102979	-0.7363059360128246	0.3576362079102978	0.1663244353182751	-0.3910386965376782	0.6673553719008265
7205.108642578125	-0.002018073548095059	-9.390652510447218	-1.932730881730165	3.718591414975016e-05	-0.3718219555833518	-0.003718591414975016	0.1457905544147844	-0.395112016293279	0.6818181818181819
7224.639892578125	-0.1627218678260404	-9.699280070597087	-1.909271072465322	0.3622810739724808	0.7399471462665556	0.003776660722940747	0.1704312114989733	-0.3971486761710794	0.6735537190082644
7244.171142578125	0.1101857116607428	-9.431039953229693	-2.006190388691428	-0.362243888058331	-1.111769101849907	-0.007495252137915762	0.1457905544147844	-0.3828920570264766	0.6425619834710744
7263.702392578125	0.1576770782648195	-9.67235107802771	-1.922569275493984	-0.01091501580805769	-0.3498080301217149	1.091501580805769	0.1540041067761807	-0.4012219959266802	0.6590909090909091
7283.233642578125	0.3191158645501211	-9.643485870462127	-1.970528818337367	-7.437182829950031e-05	0.7436439111667036	0.007437182829950031	0.1560574948665298	-0.3828920570264766	0.6590909090909091
7302.764892578125	-0.1341667974458239	-9.800047264507484	-1.861106751805869	-1.07257495951518	1.097204260834983	-1.438156222395039	0.1416837782340863	-0.3930753564154786	0.6694214876033058
7322.296142578125	-0.1191791117164193	-9.411867912788308	-1.694029609452691	-0.7172978660443063	-1.122748287257517	-0.7339815115114022	0.1375770020533881	-0.4032586558044806	0.6735537190082644
7341.827392578125	-0.05962425505168998	-9.27927850913338	-2.012524831610334	0.007338653728954708	-0.3864979058911098	-0.7338653728954707	0.1540041067761807	-0.3930753564154786	0.6590909090909091
7361.358642578125	-0.03963751960701589	-9.699482798006269	-2.012082679766138	-0.0001487436565990006	1.487287822333407	0.01487436565990006	0.1663244353182751	-0.3910386965376782	0.6880165289256198
7380.889892578125	0.01934085727511965	-9.743746456147713	-1.644695242503988	0	0	0	0.1642710472279261	-0.3971486761710794	0.6590909090909091
7400.421142578125	0.2154480809374461	-9.893671787163559	-1.848269364581534	-0.362243888058331	-1.111769101849907	-0.007495252137915762	0.1683778234086242	-0.3849287169042769	0.6797520661157025
7419.952392578125	-0.1704779261869293	-9.718454529467106	-1.984069127102357	-0.3623182598866305	-0.3681251906832038	-5.806930796573191e-05	0.1498973305954825	-0.3991853360488798	0.6611570247933884
7439.483642578125	0.02620498863995722	-9.90152705367308	-1.873499621331908	-0.3660061797081828	0.01103474005402697	0.3687339128472572	0.1457905544147844	-0.3828920570264766	0.6632231404958678
7459.014892578125	0.005181220481041214	-9.631658072044464	-1.839374016034708	-0.003725105735701979	0.7509818863205826	0.3725105735701979	0.1560574948665298	-0.3808553971486761	0.6652892561983471
7478.546142578125	0.08836465066981272	-9.471428762950094	-1.945488355660424	-0.3587790837216773	0.7400027009129726	-0.3539756858032885	0.1478439425051335	-0.4032586558044806	0.6570247933884298
7498.077392578125	-0.2196230248075575	-9.847678111354442	-2.012565839748084	-0.0001859295707487508	1.859109777916759	0.01859295707487508	0.1581108829568789	-0.3869653767820774	0.6652892561983471
7517.608642578125	0.02703146033921616	-9.821259827823653	-1.901048677973872	1.079727683673386	0.3754076111906658	0.7228838065744428	0.1540041067761807	-0.3930753564154786	0.6776859504132231
7537.139892578125	0.1322007726879494	-9.730588416830898	-2.073359089598312	0.0001859295707487508	-1.859109777916759	-0.01859295707487508	0.1457905544147844	-0.3890020366598778	0.6652892561983471
7556.671142578125	0.1125925738994244	-9.843595067772521	-1.75308579664748	0.003650733907402479	-0.007337975153878983	-0.3650733907402479	0.1560574948665298	-0.3808553971486761	0.6570247933884298
7576.202392578125	-0.06488433733609561	-9.980979269072005	-1.83718875546348	-0.3587418978075275	0.3681807453296208	-0.3576942772182636	0.1540041067761807	-0.3890020366598778	0.6528925619834711
7595.733642578125	-0.05128540796393809	-10.06991561524167	-1.957153067868731	-0.003576362079102979	-0.7363059360128246	0.3576362079102978	0.1560574948665298	-0.405295315682281	0.6776859504132231
7615.264892578125	-0.1009691327015452	-9.629313352906834	-1.967695576615162	-0.365968993794033	-0.3607872155293249	0.3650153214322821	0.162217659137577	-0.4012219959266802	0.6632231404958678
7634.796142578125	0.02501890711735661	-9.74191055336539	-1.833963570578554	-0.7136471321369039	-1.130086262411396	-1.09905490225165	0.162217659137577	-0.3869653767820774	0.6673553719008265
7654.327392578125	-0.1716348288422851	-9.788828594659005	-1.945505705257164	-0.3624670035432295	1.119162631650203	0.01481629635193433	0.1519507186858316	-0.4032586558044806	0.6673553719008265
7673.858642578125	0.009763091256512989	-9.530176600493729	-1.992103041883767	-0.3587790837216773	0.7400027009129726	-0.3539756858032885	0.1765913757700205	-0.3788187372708757	0.6776859504132231
7693.389892578125	0.02695654162601998	-9.771284051540921	-1.898551387533999	-0.003725105735701979	0.7509818863205826	0.3725105735701979	0.1498973305954825	-0.395112016293279	0.6694214876033058
7712.921142578125	-0.1585619076985681	-9.947935016822537	-2.04793641004773	-0.7172978660443063	-1.122748287257517	-0.7339815115114022	0.1601642710472279	-0.3808553971486761	0.6673553719008265
7732.452392578125	-0.06802698020016705	-9.498662056931387	-2.065767326661099	0.3587790837216773	-0.7400027009129726	0.3539756858032885	0.1519507186858316	-0.3727087576374745	0.6570247933884298
7751.983642578125	-0.004286927630888914	-9.561386106600654	-1.857102412303703	-0.3623554458007803	0.003696764900147988	0.003660522107009284	0.1519507186858316	-0.4114052953156823	0.6859504132231405
7771.514892578125	0.261073577273921	-9.662252876681434	-2.035785909130698	0.003316060680054727	3.339059625096287	-0.3316060680054727	0.1519507186858316	-0.405295315682281	0.6694214876033058
7791.046142578125	-0.001788585700304653	-9.613911642709766	-1.607047143323179	0.3584444104943295	2.606394899337194	0.3874430085380637	0.1457905544147844	-0.405295315682281	0.6570247933884298
7810.577392578125	-0.1188999409325093	-9.738444314234846	-2.036668635583024	0.7210601576941581	-5.555464641699391e-05	0.3577523465262293	0.1457905544147844	-0.4012219959266802	0.6487603305785125
7830.108642578125	-0.09801102645734644	-9.91835689855454	-2.066299118088453	0.3513288722502733	0.7619610717281925	1.098996832943684	0.1437371663244353	-0.3767820773930753	0.6652892561983471
7849.639892578125	0.0624964019302215	-9.899792830042562	-2.08321339767405	-1.452960959368074	-1.093340831995585	0.3685597049233599	0.162217659137577	-0.3991853360488798	0.6652892561983471
7869.171142578125	0.06640715875906221	-9.841861685334571	-1.880238625302074	-0.3621323303158818	-2.227234968599963	-0.01865102638284081	0.162217659137577	-0.3869653767820774	0.6756198347107438
7888.702392578125	0.01540013296100046	-9.781687290342608	-1.846671098700016	-0.3622067021441813	-1.483591057433259	-0.01121384355289078	0.1498973305954825	-0.4012219959266802	0.6652892561983471
7908.233642578125	0.01772813339631762	-9.860934570201856	-1.924271113210587	-0.003725105735701979	0.7509818863205826	0.3725105735701979	0.1560574948665298	-0.395112016293279	0.6776859504132231
7927.764892578125	0.02223981716679508	-9.782809125782736	-1.741327238893169	-0.7320123594163656	0.02206948010805394	0.7374678256945143	0.162217659137577	-0.3788187372708757	0.6611570247933884
7947.296142578125	-0.03781975503946641	-9.648895054129428	-2.072674832017787	-0.7210601576941581	5.555464641699391e-05	-0.3577523465262293	0.1560574948665298	-0.3930753564154786	0.6673553719008265
7966.827392578125	-0.04058386124738871	-9.699788781803322	-1.980537958420377	-0.36239263171493	0.3755187204834998	0.007379113521984299	0.1560574948665298	-0.3828920570264766	0.6673553719008265
7986.358642578125	-0.2035549323720606	-9.759149428133632	-1.881502254264649	-0.36239263171493	0.3755187204834998	0.007379113521984299	0.1519507186858316	-0.3788187372708757	0.6384297520661157
8005.889892578125	-0.2221316187725792	-9.858489223403133	-1.928946040914029	-0.3585559682367788	-1.490929032587138	-0.3762872342931387	0.1642710472279261	-0.3869653767820774	0.6611570247933884
8025.421142578125	0.2780856454956899	-10.20341897462306	-1.93618818318966	-0.007189910072355707	-1.100789916442297	0.7189910072355706	0.1478439425051335	-0.3971486761710794	0.6632231404958678
8044.952392578125	0.1592692980747468	-9.681836260289165	-1.975643269158226	-0.003650733907402479	0.007337975153878983	0.3650733907402479	0.1642710472279261	-0.4134419551934826	0.6611570247933884
8064.483642578125	-0.02373503695858416	-9.711007661949942	-1.875498768047195	-0.3516263595634713	2.212614572938622	-1.069248101623884	0.162217659137577	-0.4012219959266802	0.6714876033057852
8084.014892578125	-0.1105232401791425	-9.782402514324589	-1.649225327361918	-0.3660433656223325	0.3828566956373787	0.3724525042622321	0.1704312114989733	-0.4073319755600814	0.6570247933884298
8103.546142578125	-0.1246686818486153	-9.890309540464386	-1.844377271712823	-0.724636519773261	-0.7362503813664076	-0.0001161386159314638	0.1437371663244353	-0.395112016293279	0.6590909090909091
8123.077392578125	-0.05434840040661148	-9.710905982798138	-1.855053319779618	-0.3660061797081828	0.01103474005402697	0.3687339128472572	0.1560574948665298	-0.4073319755600814	0.6508264462809917
8142.608642578125	-0.1374774159510616	-10.04778436449084	-2.084086134964616	0.3623554458007803	-0.003696764900147988	-0.003660522107009284	0.1581108829568789	-0.4093686354378818	0.6797520661157025
8162.139892578125	0.1802031637778274	-9.891734310378501	-2.006772125927579	-0.362243888058331	-1.111769101849907	-0.007495252137915762	0.1560574948665298	-0.3910386965376782	0.6756198347107438
8181.671142578125	-0.06874383399274946	-9.722227172990989	-1.708538866908352	-0.7282872536806635	-0.7289124062125286	0.3649572521243164	0.1581108829568789	-0.3971486761710794	0.6611570247933884
8201.202392578125	-0.01880775148437631	-9.629414506313283	-2.039741617187457	-0.007375839643104458	0.7583198614744615	0.7375839643104457	0.1437371663244353	-0.3869653767820774	0.6611570247933884
8220.733642578125	0.3282086304780367	-9.673879209478768	-1.94028768260122	-0.358667525979228	-0.3754631658370828	-0.3651314600482136	0.1663244353182751	-0.405295315682281	0.6673553719008265
8240.264892578125	-0.08891668329336355	-9.528749727598189	-2.036110556887882	0.003650733907402479	-0.007337975153878983	-0.3650733907402479	0.1581108829568789	-0.415478615071283	0.6652892561983471
8259.796142578125	-0.1837030506111396	-10.0893973196976	-1.876564979628682	0.3513288722502733	0.7619610717281925	1.098996832943684	0.1478439425051335	-0.3869653767820774	0.6611570247933884
8279.327392578125	-0.08358010505969449	-9.790357567302635	-1.880663164676852	0.7210973436083078	-0.3718775102297688	0.3540337551112543	0.1540041067761807	-0.405295315682281	0.6756198347107438
8298.858642578125	-0.3003719911264699	-9.737120277130893	-1.987600295784337	-0.003613547993252729	-0.3644839804294728	0.3613547993252729	0.1642710472279261	-0.395112016293279	0.6673553719008265
8318.389892578125	0.04677924451969612	-9.871541377605299	-1.892641483989871	0.007375839643104458	-0.7583198614744615	-0.7375839643104457	0.1519507186858316	-0.3849287169042769	0.6694214876033058
8337.921142578125	-0.1653653154748151	-9.620134785336857	-1.821156150839497	-0.3624298176290798	0.7473406760668516	0.01109770493695932	0.1457905544147844	-0.4012219959266802	0.6714876033057852
8357.452392578125	0.1480583041084634	-9.71212781500493	-1.935276803615446	-0.0002603013990482511	2.602753689083463	0.02603013990482511	0.1560574948665298	-0.3910386965376782	0.6735537190082644
8376.983642578125	-0.1079547112435639	-9.811572023302086	-1.73484295854787	-0.3551655357284246	1.104486681342445	-0.7153304851285613	0.1457905544147844	-0.4114052953156823	0.6632231404958678
8396.514892578125	0.0249148095369156	-9.461944211583065	-1.83049365123052	-0.7177069110999535	2.967293224159353	-0.693077005946677	0.1560574948665298	-0.3869653767820774	0.6673553719008265
8416.046142578125	-0.1509951176657538	-9.66215508804526	-1.63349607780821	-0.3551655357284246	1.104486681342445	-0.7153304851285613	0.1704312114989733	-0.4134419551934826	0.6590909090909091
8435.577392578125	0.07833894960809627	-9.871337072960049	-1.944631653603209	-0.7208742281234094	-1.859054223270342	-0.3763453036011044	0.1478439425051335	-0.4093686354378818	0.6652892561983471
8455.108642578125	-0.02477128105479241	-9.651342714207717	-1.840957298173587	-0.0001859295707487508	1.859109777916759	0.01859295707487508	0.1560574948665298	-0.3991853360488798	0.6735537190082644
8474.639892578125	-0.001614301114869323	-9.870521957360475	-1.94618996283769	0.7248224493440097	-1.122859396550351	-0.01847681845894361	0.1478439425051335	-0.395112016293279	0.6735537190082644
8494.171142578125	0.02815839550929346	-9.730895452118663	-1.938613183643116	-0.7175581674433545	1.480005401825945	-0.7079513716065771	0.1498973305954825	-0.3910386965376782	0.6673553719008265
8513.702392578125	-0.1373559687738804	-9.707745096570219	-2.088134374203988	0.7207998562951099	2.602698134437046	0.3837824864310544	0.1498973305954825	-0.3849287169042769	0.6714876033057852
8533.233642578125	-0.1262593244224753	-9.460823848229936	-1.791355852584157	-7.437182829950031e-05	0.7436439111667036	0.007437182829950031	0.1457905544147844	-0.3869653767820774	0.6652892561983471
8552.764892578125	-0.1556266713773451	-9.660319290412009	-1.812444287421831	0.0001487436565990006	-1.487287822333407	-0.01487436565990006	0.1437371663244353	-0.4012219959266802	0.6818181818181819
8572.296142578125	0.02981055028977769	-9.780361255406305	-1.993685009659256	-0.365820250137434	-1.848075037862732	0.3501409557723821	0.1683778234086242	-0.4073319755600814	0.6694214876033058
8591.827392578125	0.2201198541687532	-9.852161247152102	-2.003995138958441	-0.3660061797081828	0.01103474005402697	0.3687339128472572	0.1519507186858316	-0.3869653767820774	0.640495867768595
8611.358642578125	0.01084428658063894	-9.619827014005594	-2.028142886021298	-0.3661549233647818	1.498322562387434	0.3836082785071572	0.1457905544147844	-0.405295315682281	0.6632231404958678
8630.889892578125	0.04607421999761837	-9.611769335534103	-1.869140666587279	3.718591414975016e-05	-0.3718219555833518	-0.003718591414975016	0.1478439425051335	-0.3828920570264766	0.6652892561983471
8650.421142578125	-0.1394095301334894	-9.881742414743162	-1.686348995550354	-0.358667525979228	-0.3754631658370828	-0.3651314600482136	0.1540041067761807	-0.3890020366598778	0.6487603305785125
8669.952392578125	-0.07412615207236993	-9.640634122503398	-1.86246159758767	0.365968993794033	0.3607872155293249	-0.3650153214322821	0.1334702258726899	-0.3971486761710794	0.6652892561983471
8689.483642578125	0.07109943605924414	-9.673677849007511	-1.703314535308138	-1.083304045752489	-1.11171354720349	-0.3652475986641451	0.162217659137577	-0.3910386965376782	0.6570247933884298
8709.014892578125	-0.1606943308615416	-9.788624500311899	-1.976855637948615	-0.724487776116662	-2.223538203699815	-0.01499050427583152	0.1560574948665298	-0.3788187372708757	0.6694214876033058
8728.546142578125	-0.009054123644267036	-9.679594166644979	-2.031529211857766	0.0002231154848985009	-2.230931733500111	-0.02231154848985009	0.1581108829568789	-0.3930753564154786	0.6590909090909091
8748.077392578125	0.2493507702038026	-9.982709917634105	-1.978359006793418	-0.3658574360515838	-1.47625308227938	0.3538595471873571	0.1498973305954825	-0.3890020366598778	0.6694214876033058
8767.608642578125	0.03196347752162587	-9.812998475601342	-1.732115917387529	-0.3625785612856788	2.234628498400259	0.02597207059685937	0.1437371663244353	-0.4175152749490835	0.6652892561983471
8787.139892578125	-0.1860002949431446	-9.82014009536495	-1.799990168561847	-0.7210229717800084	-0.3717664009369348	-0.3614709379412043	0.1560574948665298	-0.395112016293279	0.6673553719008265
8806.671142578125	-0.1106178743431798	-9.64909977937096	-1.979404188560675	-0.362243888058331	-1.111769101849907	-0.007495252137915762	0.1334702258726899	-0.395112016293279	0.6776859504132231
8826.202392578125	0.1000007097562303	-9.584333103845484	-1.666690325207676	-0.7318636157597666	-1.465218342225353	0.7225934600346142	0.1601642710472279	-0.3890020366598778	0.6570247933884298
8845.733642578125	0.07632166467803486	-9.718655995087436	-2.210722155934495	0.007301467814804958	-0.01467595030775797	-0.7301467814804957	0.1601642710472279	-0.3849287169042769	0.6694214876033058
8865.264892578125	-0.2405576791286717	-9.847780316251605	-1.981410695710943	-0.7137215039652034	-0.3864423512446928	-1.0916177194217	0.1540041067761807	-0.3788187372708757	0.6694214876033058
8884.796142578125	-0.2235282613101628	-9.768940804490287	-1.882391289661244	-0.7245621479449615	-1.479894292533111	-0.007553321445881495	0.1498973305954825	-0.405295315682281	0.6652892561983471
8904.327392578125	-0.1425868721910412	-9.306103088675105	-2.247104260298629	0.01467730745790942	-0.7729958117822195	-1.467730745790941	0.1642710472279261	-0.415478615071283	0.6756198347107438
8923.858642578125	0.02820413535524481	-9.550880662901804	-1.940137845174827	-3.718591414975016e-05	0.3718219555833518	0.003718591414975016	0.1478439425051335	-0.3869653767820774	0.6570247933884298
8943.389892578125	0.0589673362296645	-9.650933894619076	-1.96557787432215	-0.7210229717800084	-0.3717664009369348	-0.3614709379412043	0.1560574948665298	-0.4032586558044806	0.6632231404958678
8962.921142578125	-0.1288893655646781	-9.811674228199248	-1.703687814510729	-0.3623182598866305	-0.3681251906832038	-5.806930796573191e-05	0.1601642710472279	-0.3991853360488798	0.6776859504132231
8982.452392578125	0.0867858373664574	-9.891939245918179	-1.89286124554858	-0.003576362079102979	-0.7363059360128246	0.3576362079102978	0.1457905544147844	-0.3849287169042769	0.6652892561983471
9001.983642578125	-0.1243824135024026	-9.660216980365778	-1.853919549919916	-0.3587790837216773	0.7400027009129726	-0.3539756858032885	0.1519507186858316	-0.3849287169042769	0.6549586776859504
9021.514892578125	-0.1913526455374866	-9.758537355390454	-1.954911815417115	-0.3550167920718256	-0.3828011409909618	-0.7302048507884614	0.1457905544147844	-0.4093686354378818	0.6652892561983471
9041.046142578125	-0.04065877996058489	-9.649813005520588	-1.978040667980504	-0.007227095986505457	-0.7289679608589457	0.7227095986505457	0.1437371663244353	-0.3869653767820774	0.6508264462809917
9060.577392578125	-0.1694061942792071	-9.661441336150277	-1.686460190693098	0.7211345295224576	-0.7436994658131205	0.3503151636962792	0.1601642710472279	-0.3910386965376782	0.6632231404958678
9080.108642578125	-0.3374898761159931	-9.819121726610838	-1.75033746280023	0.003650733907402479	-0.007337975153878983	-0.3650733907402479	0.1540041067761807	-0.4012219959266802	0.6797520661157025
9099.639892578125	0.01795919848017532	-9.66419319249141	-1.598639949339177	0.007264281900655208	0.3571460052755938	-0.7264281900655207	0.1498973305954825	-0.3869653767820774	0.6570247933884298
9119.171142578125	-0.1220394293244461	-9.749459415481571	-1.932019022518462	-0.3587047118933778	-0.003641210253730994	-0.3614128686332386	0.1601642710472279	-0.3849287169042769	0.6673553719008265
9138.702392578125	-0.1256946739103862	-9.767307944564358	-2.143510869653794	-0.3731960897805385	-1.08975517638827	1.087724920082828	0.1540041067761807	-0.4012219959266802	0.6652892561983471
9158.233642578125	-0.2240077410746183	-9.449095836280794	-1.866408630846058	0.007450211471403958	-1.501963772641165	-0.7450211471403958	0.1498973305954825	-0.4032586558044806	0.6632231404958678
9177.764892578125	0.02352684179770212	-9.729059654485409	-2.117561393256738	-0.7245621479449615	-1.479894292533111	-0.007553321445881495	0.1396303901437372	-0.3869653767820774	0.6797520661157025
9197.296142578125	-0.1188944206062738	-9.601775862662695	-1.703519313124207	-0.3695081699589862	-1.468915107125501	0.7189329379276049	0.1457905544147844	-0.4012219959266802	0.6570247933884298
9216.827392578125	0.2521054129953212	-9.785152583131513	-1.736847099844038	-0.7209857858658586	-0.7435883565202867	-0.3651895293561793	0.1560574948665298	-0.395112016293279	0.6714876033057852
9236.358642578125	-0.02537220799642915	-9.671537013918847	-1.820926400119029	-0.7139074335359521	1.472667426672066	-1.073024762346825	0.1642710472279261	-0.4093686354378818	0.6694214876033058
9255.889892578125	-0.4166970941791314	-9.824732060451252	-2.110096860695619	0.3587418978075275	-0.3681807453296208	0.3576942772182636	0.1601642710472279	-0.3890020366598778	0.6549586776859504
9275.421142578125	0.210667478417496	-9.581884181978342	-2.022249280583199	-0.7282500677665138	-1.10073436179588	0.3612386607093414	0.1457905544147844	-0.3971486761710794	0.6487603305785125
9294.952392578125	0.03331595744932538	-9.662561173758053	-1.777198581644179	0.358667525979228	0.3754631658370828	0.3651314600482136	0.1601642710472279	-0.3930753564154786	0.6694214876033058
9314.483642578125	-0.1563521999682976	-9.527220544656418	-2.121593334390081	0	0	0	0.162217659137577	-0.3890020366598778	0.6508264462809917
9334.014892578125	-0.2576012920717863	-9.706624417769877	-2.079956930940456	-1.094330619302996	-0.3460557105751498	0.7374097563865486	0.1540041067761807	-0.3869653767820774	0.6570247933884298
9353.546142578125	0.4292613566911481	-9.784538828003194	-1.9753785563716	-0.7210973436083078	0.3718775102297688	-0.3540337551112543	0.1745379876796715	-0.3849287169042769	0.6694214876033058
9373.077392578125	-0.06431337787973734	-9.940794658847782	-1.856220737342089	-0.003687919821552229	0.3791599307372308	0.3687919821552229	0.1457905544147844	-0.3991853360488798	0.6756198347107438
9392.608642578125	-0.02534145189311703	-9.481527069445443	-1.821951603562766	-0.003539176164953228	-1.108127891596177	0.3539176164953228	0.1581108829568789	-0.4134419551934826	0.6652892561983471
9412.139892578125	-0.07347081048641174	-9.797088895390608	-2.217639650452943	-0.3588906414641265	1.855468567663028	-0.3428199115583635	0.1601642710472279	-0.4093686354378818	0.6466942148760331
9431.671142578125	0.01164000217658576	-9.729569732629571	-2.054666739219526	0.003539176164953228	1.108127891596177	-0.3539176164953228	0.1848049281314169	-0.4032586558044806	0.6776859504132231
9451.202392578125	-0.02352447594360121	-9.640939580555099	-1.882517468546627	-0.003353246594204478	-2.967237669512935	0.3353246594204478	0.1498973305954825	-0.3849287169042769	0.6632231404958678
9470.733642578125	0.07928686848453638	-9.45103057919	-1.976228949484546	-0.3585931541509285	-1.119107077003786	-0.3725686428781636	0.1540041067761807	-0.3971486761710794	0.6590909090909091
9490.264892578125	-0.02140624790523336	-9.580254686822693	-1.953125069825555	0.003501990250803478	1.479949847179528	-0.3501990250803478	0.1540041067761807	-0.4073319755600814	0.6652892561983471
9509.796142578125	-0.01491276701620848	-9.771488461335242	-1.836241099459718	-7.437182829950031e-05	0.7436439111667036	0.007437182829950031	0.1560574948665298	-0.3890020366598778	0.6756198347107438
9529.327392578125	0.3433106658223197	-9.502329551384117	-2.110355527410654	-0.365820250137434	-1.848075037862732	0.3501409557723821	0.1396303901437372	-0.3869653767820774	0.6590909090909091
9548.858642578125	0.06777462242940094	-9.701419538747828	-1.925820747646698	-0.3695081699589862	-1.468915107125501	0.7189329379276049	0.1478439425051335	-0.3991853360488798	0.6652892561983471
9568.389892578125	0.2998231129750537	-9.756390526804733	-1.660770432501788	-0.7136099462227541	-1.501908217994748	-1.102773493666625	0.1601642710472279	-0.4093686354378818	0.6714876033057852
9587.921142578125	0.1393559041072016	-9.731608257672004	-1.978530136906719	-0.3586303400650783	-0.7472851214204346	-0.3688500514631886	0.1642710472279261	-0.4012219959266802	0.6694214876033058
9607.452392578125	0.09558839185799198	-9.869093086632583	-2.186279728599732	3.718591414975016e-05	-0.3718219555833518	-0.003718591414975016	0.1642710472279261	-0.3890020366598778	0.6590909090909091
9626.983642578125	-0.01565406796783386	-9.8383948153096	-2.144864401072205	0.007264281900655208	0.3571460052755938	-0.7264281900655207	0.1498973305954825	-0.3971486761710794	0.6611570247933884
9646.514892578125	-0.1085012235408792	-10.00841539561155	-2.049959215304026	-0.3477153242570206	-0.3974770912987198	-1.460351632268957	0.1478439425051335	-0.4032586558044806	0.6673553719008265
9666.046142578125	-0.1545959476073724	-9.856652689726383	-2.180135079754256	0	0	0	0.1416837782340863	-0.4012219959266802	0.6632231404958678
9685.577392578125	0.212384299876739	-9.744662409706523	-1.746143329224633	0.7212089013507571	-1.487343376979824	0.3428779808663293	0.1601642710472279	-0.415478615071283	0.6714876033057852
9705.108642578125	0.06097042603512032	-9.583619562248645	-1.699014201170677	-0.01095220172220744	0.02201392546163695	1.095220172220744	0.1663244353182751	-0.3930753564154786	0.6673553719008265
9724.639892578125	0.1946640526607578	-9.783725289639687	-1.822135088691927	0.3623554458007803	-0.003696764900147988	-0.003660522107009284	0.1478439425051335	-0.3727087576374745	0.6714876033057852
9744.171142578125	-0.08637891046109711	-9.747929181049088	-2.120702984630098	-0.3587790837216773	0.7400027009129726	-0.3539756858032885	0.1560574948665298	-0.395112016293279	0.6611570247933884
9763.702392578125	0.04814670819003486	-9.731099231018556	-1.938223606334495	-0.3697312854438847	0.7620166263746095	0.741244486417455	0.1581108829568789	-0.4134419551934826	0.6632231404958678
9783.233642578125	-0.03180654253293073	-9.730284115418982	-1.939781915568976	0.3622810739724808	0.7399471462665556	0.003776660722940747	0.1540041067761807	-0.3930753564154786	0.6549586776859504
9802.764892578125	-0.1316179839610865	-9.745889814814083	-2.279400534630452	0.007189910072355707	1.100789916442297	-0.7189910072355706	0.1519507186858316	-0.3971486761710794	0.6611570247933884
9822.296142578125	0.04703554538063043	-9.621458506993596	-1.901184846021014	0.3585559682367788	1.490929032587138	0.3762872342931387	0.1252566735112936	-0.4012219959266802	0.6673553719008265
9841.827392578125	0.2970858197802753	-9.333942251604377	-1.902860659342508	0.358667525979228	0.3754631658370828	0.3651314600482136	0.1560574948665298	-0.4073319755600814	0.6756198347107438
9861.358642578125	-0.01304374227647214	-9.404217476669393	-1.565208590784262	-0.728361625508963	0.01473150495417496	0.3723944349542664	0.1478439425051335	-0.3910386965376782	0.6673553719008265
9880.889892578125	-0.007246611111154932	-9.69234307092594	-1.758446296294836	-1.442194687216616	0.7437550204595376	-0.7080675102225086	0.1437371663244353	-0.405295315682281	0.6818181818181819
9900.421142578125	-0.1746047643569885	-9.983122207142094	-1.513174521433718	-1.076076949765984	-0.3827455863445448	-1.087957197314691	0.1540041067761807	-0.4012219959266802	0.6611570247933884
9919.952392578125	-0.1894252630632606	-9.851247501723787	-1.685824564557981	-1.076039763851834	-0.7545675419278965	-1.091675788729666	0.1519507186858316	-0.3828920570264766	0.6487603305785125
9939.483642578125	0.01102488011034343	-9.529768622097658	-2.034162670344781	-1.086991965574041	-0.7325536164662596	0.003544383491077821	0.1416837782340863	-0.395112016293279	0.6570247933884298
9959.014892578125	0.06263677594021014	-9.853080775779333	-1.754559198007005	0.717335051958456	0.7509263316741656	0.7302629200964272	0.1724845995893224	-0.3910386965376782	0.6776859504132231
9978.546142578125	-0.07113334663469084	-10.02299978207855	-1.628888445510305	0.3621323303158818	2.227234968599963	0.01865102638284081	0.1683778234086242	-0.3991853360488798	0.6549586776859504
9998.077392578125	0.416587476272455	-10.03197004933857	-1.219582542415164	2.188438123121093	2.923043154650411	-1.452507964283247	0.1519507186858316	-0.4114052953156823	0.6549586776859504
10017.60864257812	0.2247711233311857	-9.937324003456249	-0.4923707777061888	9.057064035226169	18.12685670108054	0.09069792665854366	0.1601642710472279	-0.3971486761710794	0.6425619834710744
10037.13989257812	0.5310498635296494	-9.964960544125415	-0.03499545098830924	13.77856266053022	18.80042874308368	-1.04467185012337	0.1519507186858316	-0.4032586558044806	0.6528925619834711
10056.67114257812	-0.715177979260923	-9.314574213294366	0.1725993086974317	19.21698729273708	24.31496862817786	-1.408874201244132	0.1519507186858316	-0.4114052953156823	0.6446280991735538
10076.20239257812	-1.414456630345549	-10.14734097714506	0.1485543448516255	21.74256039753449	23.93928324375511	-0.3429962751874289	0.1581108829568789	-0.4236252545824847	0.6177685950413223
10095.73364257812	-0.4680266647529537	-10.32132862160345	0.6008888250984523	26.82201350212819	-4.378278064335579	-1.041929922963908	0.1416837782340863	-0.4256619144602851	0.6301652892561984
10115.26489257812	0.05678680736663878	-10.30163893228479	0.1071064211120408	30.78613056023481	-5.490380494063989	1.097088904055552	0.1704312114989733	-0.4480651731160896	0.5805785123966942
10134.79614257812	0.4043150024328867	-10.05593814921337	0.1894999189037788	34.74212806041533	1.5922760493491	4.048063523684958	0.1560574948665298	-0.4541751527494908	0.5764462809917356
10154.32739257812	0.2643013908856259	-10.13120921694698	0.8566203038124686	40.89017723171019	11.96245972784207	5.185175379705845	0.1642710472279261	-0.4928716904276985	0.5516528925619835
10173.85864257812	-0.4489318563043309	-9.585154633538401	0.9643952101443617	45.27457806125209	15.56293835333502	1.527701121169005	0.1827515400410678	-0.5010183299389002	0.5227272727272727
10193.38989257812	-1.050611139545172	-10.11969760178627	1.020371318172414	48.18209897429667	1.761275927242065	0.6306822804783589	0.1868583162217659	-0.5315682281059063	0.5330578512396694
10212.92114257812	-0.6531728863656617	-10.0445258999249	1.105762878855389	51.44463667941309	-11.65758535785993	0.4638682905761749	0.2073921971252567	-0.5600814663951119	0.4958677685950413
10232.45239257812	-0.6076948616014783	-10.41648800525114	1.256495386715939	54.32902605384632	-13.14509539877901	1.880003311021192	0.2073921971252567	-0.5682281059063136	0.493801652892562
10251.98364257812	-0.6580907084234658	-10.27278266239025	0.93635694744886	59.37622404222053	-10.91455254780382	4.406581285194648	0.2217659137577002	-0.6048879837067209	0.4793388429752066
10271.51489257812	-0.7877158546135339	-10.68136145965838	0.9238618204511262	60.8332075946375	-13.54676924679563	3.635762275381289	0.2299794661190965	-0.625254582484725	0.4566115702479339
10291.04614257812	-0.460362874702001	-10.87218399615365	0.6787624900666986	65.17048355661051	-13.19729454455241	4.690774773732897	0.2340862422997947	-0.6782077393075355	0.4400826446280992
10310.57739257812	0.5121041038893853	-11.01108633974243	0.5965298703538239	67.34074238202288	-10.98120542529931	5.056196580320939	0.2505133470225873	-0.6904276985743381	0.4380165289256198
10330.10864257812	0.7576182473595098	-10.64503676668709	0.7460584213496776	70.23861911466123	-1.34340869933335	5.123595780254215	0.2731006160164271	-0.7230142566191445	0.4504132231404959
10349.63989257812	0.2756354092651578	-10.67421121767093	1.145486357828072	73.11820499184843	8.70289985798536	7.020080525303706	0.2484599589322382	-0.7372708757637474	0.4462809917355372
10369.17114257812	-0.7053123676600364	-10.21138433221008	1.843745588667874	74.89995825948182	16.92320285754939	10.00417405182009	0.2792607802874744	-0.7698574338085539	0.4834710743801653
10388.70239257812	-0.9468802664898061	-10.40282461949837	2.229342216326864	77.39312099008238	12.15169578251133	14.31108939755933	0.2464065708418891	-0.7780040733197555	0.4958677685950413
10408.23364257812	-0.9102544791532766	-10.69431561492623	2.341815971775886	78.82529312343053	2.134405797929634	16.0214122946282	0.2628336755646817	-0.8065173116089612	0.487603305785124
10427.76489257812	-0.8369753028490405	-10.59395534792119	2.232510094968012	79.54746885854919	-9.020308424217337	16.26760689870518	0.2566735112936345	-0.8187372708757636	0.5061983471074381
10447.29614257812	-0.4614180456310167	-10.51919183475403	2.380601521033888	80.99342583741566	-10.88686728658081	16.59944524394252	0.2689938398357289	-0.8350305498981669	0.5309917355371901
10466.82739257812	-0.395470651185569	-10.79120217721667	2.515688372852297	84.61266021506135	-4.223701759928077	16.99484805908222	0.2546201232032854	-0.8472505091649694	0.5516528925619835
10486.35864257812	-0.4134550854428209	-10.51368381095985	2.781836181427362	87.48516773991864	3.60635101419828	19.59916803712236	0.2361396303901437	-0.8329938900203665	0.5640495867768596
10505.88989257812	-0.7753976409280143	-10.47737857056673	2.513254697600471	88.18410037868348	5.881255043975248	22.16967227657992	0.2525667351129364	-0.855397148676171	0.597107438016529
10525.42114257812	-1.226491099262564	-10.33989878876156	3.216369975418776	87.80021238857979	2.210760103965151	24.32658722897867	0.2402464065708419	-0.8594704684317718	0.615702479338843
10544.95239257812	-0.7059330100525141	-10.14825167325031	3.531100335083802	88.15202467771401	-1.860964246890229	25.37724237352768	0.2505133470225873	-0.8635437881873727	0.6466942148760331
10564.48364257812	-1.375707094644416	-10.24147862726836	3.523569821480535	87.03936601704568	-1.426686170529281	27.94745626644542	0.2217659137577002	-0.8370672097759674	0.6570247933884298
10584.01489257812	-1.391463682956624	-10.04657325748931	4.048789431887455	85.57977293631751	-9.198146252717441	28.97922810737973	0.2258726899383984	-0.8329938900203665	0.6921487603305785
10603.54614257812	-1.171230267791026	-9.658697786585765	4.041008926367523	84.13795010824239	-12.17261078809142	28.23397468300746	0.2197125256673511	-0.8452138492871689	0.7024793388429752
10623.07739257812	-0.9017728922014352	-9.474906568478465	4.392429740047837	84.5147597460162	-10.71837163127368	26.78489496359936	0.2094455852156057	-0.8228105906313645	0.7520661157024794
10642.60864257812	-1.30566992707649	-9.452166609754732	4.522330902549681	83.07197008417317	-4.02546532148051	26.13632491601646	0.1909650924024641	-0.8248472505091649	0.7644628099173554
10662.13989257812	-1.576758164759657	-9.249818473272288	4.55860549198856	83.07945748155873	-5.899251049705027	25.38758517746109	0.2094455852156057	-0.8065173116089612	0.8057851239669421
10681.67114257812	-1.514338258778699	-8.852969370338446	4.811275292623293	82.7174367089853	-9.241951885055046	25.35777837683332	0.1909650924024641	-0.7983706720977596	0.8181818181818182
10701.20239257812	-1.648934064434825	-8.893155347500594	4.964468814494168	82.35183957433277	-13.32095865641789	25.68560778411585	0.1909650924024641	-0.7942973523421588	0.8533057851239669
10720.73364257812	-1.562140340888031	-8.685092043553796	5.071344696267707	80.90286402209944	-17.76803506381751	25.65562677556419	0.1704312114989733	-0.7902240325865579	0.8863636363636364
10740.26489257812	-1.354020098719205	-8.56779983191921	5.134003290640181	78.37386329887951	-19.615943437741	24.93251069175788	0.1868583162217659	-0.7678207739307535	0.9132231404958678
10759.79614257812	-0.9847717857703341	-8.495076210732408	5.49239285901113	76.21064563988291	-19.24395481821839	23.86297224359417	0.1683778234086242	-0.745417515274949	0.9318181818181819
10779.32739257812	-0.9078515600047633	-8.15687200440154	5.595052000158775	74.05826862486603	-17.77851425740738	21.70936939745464	0.1848049281314169	-0.7291242362525457	0.9524793388429752
10798.85864257812	-1.082782812227681	-7.746766442620284	5.759427074256011	72.26087121600685	-15.55845060002204	20.28968999351854	0.1663244353182751	-0.7107942973523421	0.9607438016528926
10818.38989257812	-1.28237493898068	-7.587967896937087	6.079164632689321	69.75016134823809	-17.81487080529827	17.73748836459602	0.162217659137577	-0.6883910386965376	0.9917355371900827
10837.92114257812	-1.024044175227773	-7.631107616656981	6.134805840925753	70.13088202131834	-18.97072331271787	15.89730511454285	0.1581108829568789	-0.6965376782077393	0.987603305785124
10857.45239257812	-1.149765662151303	-7.205090897428922	6.658855405043422	70.86218784836586	-11.92817563674224	15.23049052573286	0.1765913757700205	-0.645621181262729	1.010330578512397
10876.98364257812	-1.603002584301297	-7.181637502257419	6.766752810043208	70.49979521665094	-11.55265691625874	15.23786963925484	0.1848049281314169	-0.6334012219959266	1.049586776859504
10896.51489257812	-1.428274795531059	-7.105142183888375	6.942493184368644	70.86609888367232	-14.53826730097958	14.83938699508779	0.1724845995893224	-0.6232179226069245	1.043388429752066
10916.04614257812	-1.147655320293272	-6.577741886894825	6.921844009775708	70.51469563959375	-14.55658446154107	13.74782734497405	0.1848049281314169	-0.5906313645621181	1.059917355371901
10935.57739257812	-1.130730788673237	-6.42893628833768	7.02435962244123	69.07227783689223	-11.58189770758142	13.0620713832414	0.1745379876796715	-0.5641547861507128	1.076446280991736
10955.10864257812	-1.302883739563626	-6.187932409125573	7.09612465212087	67.98491401217669	-8.59623176821416	13.10280168088222	0.1786447638603696	-0.5336048879837066	1.101239669421488
10974.63989257812	-1.285703695700691	-5.999044194943224	7.190123190023035	66.54271932496007	-7.852476747754622	12.39473417065971	0.1724845995893224	-0.5295315682281059	1.107438016528926
10994.17114257812	-1.202469793957766	-5.732131900046345	7.415659798592211	66.91580385699815	-5.647255704616296	11.31816502482181	0.1765913757700205	-0.4969450101832993	1.117768595041322
11013.70239257812	-1.695187300726081	-5.6181105605681	7.506243357536021	66.19455776973327	-3.78809037205312	10.97900563537046	0.1848049281314169	-0.4806517311608961	1.130165289256198
11033.23364257812	-1.840917604399227	-5.318563358755751	7.697253479974227	65.83615054515307	-6.766307226973666	10.58784403541742	0.1827515400410678	-0.45010183299389	1.161157024793388
11052.76489257812	-1.537437669602166	-5.303771513171367	7.914588986738861	65.47409258666548	-9.737186106740333	10.56175582620463	0.1724845995893224	-0.4276985743380855	1.175619834710744
11072.29614257812	-1.445351530431587	-5.11733032817288	8.178384347719566	65.83648521838042	-10.11270482722383	10.55437671268264	0.1745379876796715	-0.4134419551934826	1.163223140495868
11091.82739257812	-1.432887422409843	-4.72996693324585	8.429580746994773	64.38285491255766	-4.513250458719084	10.98987106307555	0.1827515400410678	-0.3849287169042769	1.18801652892562
11111.35864257812	-1.426622640750575	-4.487941320509353	8.220754691685837	63.65069380948469	-3.003893156277623	11.74221325442997	0.1786447638603696	-0.35030549898167	1.192148760330578
11130.88989257812	-1.523635276777328	-4.545975406158003	8.121175892577606	62.93339594344038	-4.12664144353514	11.00823174291857	0.1663244353182751	-0.3197556008146639	1.18801652892562
11150.42114257812	-1.786094455936362	-3.854170540752757	8.203148531212056	61.84286480170139	-5.967322951597576	11.36569374290497	0.1601642710472279	-0.2892057026476578	1.243801652892562
11169.95239257812	-1.669137669838751	-3.556354513247863	8.304588994625043	60.38643903799667	-8.912435586356041	12.0807338814937	0.1765913757700205	-0.2892057026476578	1.214876033057851
11189.48364257812	-0.9906919413488996	-3.633657061036144	8.356398044963319	60.01678212438108	-8.894062871148135	12.8145411850812	0.1601642710472279	-0.2586558044806517	1.235537190082645
11209.01489257812	-1.253889266987424	-3.5020908629926	8.462975566247463	59.28797426790232	-4.417467899193738	13.23155871701517	0.1704312114989733	-0.2403258655804481	1.241735537190083
11228.54614257812	-1.448874287187875	-3.188469352857413	8.29580957292916	57.47988495871997	-4.77814400543023	12.88106934539499	0.1540041067761807	-0.2036659877800407	1.25
11248.07739257812	-1.391718406581491	-3.209988951461349	8.390613552716355	57.84577958068571	-3.673712878734201	12.52349120679266	0.1868583162217659	-0.1914460285132383	1.268595041322314
11267.60864257812	-1.414859614160741	-2.79080460857864	8.495320472024694	57.11343254804199	-0.3052457983759809	13.29442635522195	0.162217659137577	-0.1629327902240326	1.252066115702479
11287.13989257812	-1.747250286071192	-2.748277592496352	8.575009535706389	54.58052078951563	0.4569374919378797	12.96241380206072	0.1663244353182751	-0.1425661914460285	1.243801652892562
11306.67114257812	-1.28663189912629	-2.502677647384167	8.554396637543002	52.77962139040563	1.197051302143686	11.89293342320497	0.1704312114989733	-0.120162932790224	1.260330578512397
11326.20239257812	-1.119282420678827	-1.855234649352821	8.642747355960887	51.68491891196115	4.569215147402055	12.66752909374127	0.1704312114989733	-0.09572301425661914	1.258264462809917
11345.73364257812	-1.679170468462771	-1.846265118136296	8.30568228209235	49.15215589709138	3.844110615382508	12.32064217492014	0.1683778234086242	-0.09979633401221995	1.287190082644628
11365.26489257812	-1.556922055359409	-1.780071464566209	8.56406851198029	47.33724853697818	-1.335574963129799	12.65195789638578	0.162217659137577	-0.05295315682281058	1.247933884297521
11384.79614257812	-1.590013256669146	-1.60077095298969	8.667108555638185	43.3628858095182	-7.266075764023435	11.53750600470254	0.1519507186858316	-0.03462321792260692	1.28305785123967
11404.32739257812	-1.421943769956965	-1.223095152286085	8.731458998565504	40.83746144837739	-8.377678201934092	10.45675371298594	0.1724845995893224	-0.01629327902240326	1.270661157024793
11423.85864257812	-1.025022850207525	-1.574757388233766	8.500761673584162	39.75762220696156	-7.637619946374703	9.745025680656418	0.1642710472279261	0.008146639511201629	1.272727272727273
11443.38989257812	-1.198572443635498	-1.244205090108811	8.619081454516586	39.39098386671283	-1.305611961403696	10.17697564755825	0.1519507186858316	0.02647657841140529	1.274793388429752
11462.92114257812	-1.256277202393298	-0.7161962954404997	8.875906746443267	36.86854089302473	4.268242826032101	8.79808461057095	0.1560574948665298	0.04276985743380855	1.285123966942149
11482.45239257812	-1.354115521501277	-0.6444973519520795	8.803850716709212	33.96954858296189	5.785104767566692	8.842243153086924	0.1683778234086242	0.04480651731160896	1.28099173553719
11501.98364257812	-1.7278960222895	-0.922019713873605	8.929867409650003	31.7994385012061	2.081727825980184	8.461946980838981	0.1704312114989733	0.07128309572301425	1.291322314049587
11521.51489257812	-1.514548031175648	-0.7130371967467929	8.818267705854936	29.99566927238585	-4.979081455910519	7.679449573009007	0.1724845995893224	0.08146639511201628	1.291322314049587
11541.04614257812	-1.408221816171559	-0.5519917205621374	8.607393872385304	27.82920992453748	-8.689796372650909	6.934080010020817	0.1704312114989733	0.07535641547861506	1.287190082644628
11560.57739257812	-0.7230405010563539	-0.3504497620082211	8.768016701878462	27.10453621885006	-9.054224798433964	6.93768246281986	0.1581108829568789	0.09572301425661914	1.293388429752066
11580.10864257812	-1.018172913967293	-0.179209242182758	8.939097132243095	26.37204044254975	-4.198469895742336	7.72349197690905	0.1786447638603696	0.120162932790224	1.297520661157025
11599.63989257812	-1.127513227095969	-0.2945626100943634	8.58377423653231	24.19407110426692	-2.30984155327081	8.129121457366228	0.1601642710472279	0.1384928716904277	1.278925619834711
11619.17114257812	-1.398256838698434	-0.3221030445124934	8.608561289947774	21.66529349653191	-6.388681660694401	7.383693825070073	0.1683778234086242	0.1466395112016293	1.291322314049587
11638.70239257812	-1.459225687497486	0.3481836943758127	8.640856249916208	17.68709410559378	-10.4527347085174	6.652908281201954	0.1765913757700205	0.1364562118126273	1.28099173553719
11658.23364257812	-1.685587453402532	0.04832672339984801	8.852915113417732	14.79245906180719	-16.00782789822037	6.261340196093155	0.1806981519507187	0.1344195519348269	1.278925619834711
11677.76489257812	-0.9232982214297488	-0.09853309159561877	8.776607380991624	12.62968763378036	-20.09770274569799	5.147178650949742	0.1868583162217659	0.1771894093686354	1.285123966942149
11697.29614257812	-0.7248267209025576	-0.001027306425160288	8.827557363418585	12.62924140281056	-15.63583927869777	5.191801747929443	0.1724845995893224	0.164969450101833	1.270661157024793
11716.82739257812	-0.7470830990480593	0.0384431313077942	8.902769968268638	10.82797014455907	-11.17750591265845	4.159507283223445	0.1971252566735113	0.1629327902240326	1.268595041322314
11736.35864257812	-0.2499998028454916	-0.180833269586709	8.333326761516386	11.18205728877715	-1.499155882083689	4.982676919386282	0.2217659137577002	0.185336048879837	1.270661157024793
11755.88989257812	-0.8083839560392764	0.298622520880634	7.946131867975877	9.003567347696224	5.594979838554762	5.440366679653111	0.2197125256673511	0.1670061099796334	1.262396694214876
11775.42114257812	-1.351767805615118	0.5262617428511117	8.725593520503937	5.025256399015643	2.646392657481818	4.720736910029918	0.2032854209445585	0.1873727087576375	1.274793388429752
11794.95239257812	-1.356379643875868	0.4447705818134692	8.879321462528946	1.421108373883495	-8.879810192370003	2.816698843534545	0.1909650924024641	0.1894093686354379	1.278925619834711
11814.48364257812	-1.010773310957611	0.9198499627903725	9.025777031920367	-0.02436518809902535	-11.84693675259011	2.436518809902534	0.2073921971252567	0.2057026476578411	1.276859504132231
11834.01489257812	-0.6290143615230107	0.4366186897742265	8.967145384100355	-0.7347334454700243	-9.266141434321861	1.009576431060387	0.2053388090349076	0.1873727087576375	1.264462809917355
11853.54614257812	-0.6984576997116024	0.4441653437599152	9.281923323720079	-0.7391278976604218	-1.822364347500947	1.449021650100135	0.2073921971252567	0.1894093686354379	1.270661157024793
11873.07739257812	-0.5829141171302821	0.4215244354612088	9.430470571009401	-1.464061904746881	0.4159609157994597	1.478654242804004	0.2217659137577002	0.2036659877800407	1.264462809917355
11892.60864257812	-1.084063527914318	0.5461527926410371	9.468784263810607	-1.471474930304135	1.546102732857273	2.219956798529424	0.2053388090349076	0.1873727087576375	1.270661157024793
11912.13989257812	-1.004906781405333	0.4450801406789424	9.496892713511103	-2.543566472935368	-2.190378428891317	0.7334588877397106	0.2217659137577002	0.1812627291242362	1.272727272727273
11931.67114257812	-0.9309675318069369	0.3156538313824238	9.365584393564561	-1.815279219254705	-1.461466022678788	0.3685016356153942	0.215605749486653	0.1955193482688391	1.258264462809917
11951.20239257812	-1.049074911615634	0.2941324452442784	9.635830387187795	-1.46417346248933	1.531426782549515	1.489810017048929	0.2094455852156057	0.185336048879837	1.262396694214876
11970.73364257812	-1.164283331532656	0.2335483894711081	9.80944438442185	-2.181694444018535	2.639610228792108	0.7781400540273765	0.2094455852156057	0.1731160896130346	1.272727272727273
11990.26489257812	-1.231283531053018	0.1552183249595242	9.709451035100599	-2.177820594626234	0.4013405201381187	0.3907551147972786	0.2320328542094456	0.1812627291242362	1.28305785123967
12009.79614257812	-1.172008633790232	0.4043838750744916	9.733621126341077	-1.818781209505508	-2.941415869858317	0.718700660695742	0.2114989733059548	0.1873727087576375	1.256198347107438
12029.32739257812	-1.048274464311485	0.1110579232059531	9.942482143716173	-1.456277020048129	-4.432400457091871	0.7001657729288326	0.2279260780287475	0.1792260692464358	1.243801652892562
12048.85864257812	-1.286586159280339	0.3440038084993571	9.886205309344623	0.3518866609625196	-4.815368262022084	1.043217961719059	0.2279260780287475	0.1670061099796334	1.264462809917355
12068.38989257812	-0.8732872202081794	-0.05569620120064468	9.442907340272646	-0.3617232852602345	-6.317276480016832	-0.05955553194756599	0.2197125256673511	0.1894093686354379	1.272727272727273
12087.92114257812	-0.8523927854067812	-0.09894033394819254	9.746426180226033	-0.716888820988659	-5.212789798674388	-0.7748860170761274	0.2176591375770021	0.1955193482688391	1.25
12107.45239257812	-0.5713096027652104	-0.09139010489408467	9.710320092173676	-0.7172234942160068	-1.866392198424221	-0.7414186943413522	0.2258726899383984	0.1894093686354379	1.291322314049587
12126.98364257812	-0.9465151363402289	0.1606267725833261	9.883837878007624	-1.080062356900734	2.9709899890595	-0.6894164838396677	0.2340862422997947	0.1731160896130346	1.268595041322314
12146.51489257812	-1.072924298189097	0.1330878102521922	9.76414327296988	-0.7252314943996571	5.212900907967221	0.05938132402366878	0.2238193018480493	0.175152749490835	1.260330578512397
12166.04614257812	-1.216026926574141	0.1534846270743612	9.867564219138025	-0.0001859295707487508	1.859109777916759	0.01859295707487508	0.2176591375770021	0.185336048879837	1.264462809917355
12185.57739257812	-1.05484365253174	0.1422672190147374	9.828121751057996	0.3660805515364823	-0.7546786512207306	-0.3761710956772072	0.2299794661190965	0.1812627291242362	1.260330578512397
12205.10864257812	-1.026878468440689	0.2946426285375105	9.562615614689641	0.7175581674433545	-1.480005401825945	0.7079513716065771	0.1991786447638604	0.1792260692464358	1.278925619834711
12224.63989257812	-1.066796736067682	-0.164930944661884	9.559891202256077	0.3586303400650783	0.7472851214204346	0.3688500514631886	0.2176591375770021	0.1690427698574338	1.285123966942149
12244.17114257812	-1.112795248734071	0.2735295362426504	9.759841624469029	0.003650733907402479	-0.007337975153878983	-0.3650733907402479	0.2258726899383984	0.175152749490835	1.276859504132231
12263.70239257812	-1.120881738051057	0.2642482380301583	9.696057935035222	0	0	0	0.2361396303901437	0.1771894093686354	1.260330578512397
12283.23364257812	-1.431857487257904	0.197032745786611	9.728582908596804	0.3623554458007803	-0.003696764900147988	-0.003660522107009284	0.2320328542094456	0.2118126272912423	1.264462809917355
12302.76489257812	-0.9303019381865414	0.2225357066530183	9.676731272884709	1.083527161237388	-1.11921818629662	0.342936050174295	0.2176591375770021	0.1710794297352342	1.256198347107438
12322.29614257812	-0.8481697358366175	0.4524251187461604	9.605657861220575	1.083341231666639	0.7398915916201386	0.36152900724917	0.2381930184804928	0.1955193482688391	1.272727272727273
12341.82739257812	-1.187185587847712	0.2828099932625733	9.906186261590385	0.3695081699589862	1.468915107125501	-0.7189329379276049	0.2238193018480493	0.1894093686354379	1.258264462809917
12361.35864257812	-1.028935972890467	0.4039773687654158	9.631199096348881	0.365968993794033	0.3607872155293249	-0.3650153214322821	0.2238193018480493	0.1832993890020367	1.243801652892562
12380.88989257812	-1.253315153058931	0.04476143384427895	9.777171768631035	0.3696569136155852	-0.01837271520790595	-0.733807303587505	0.2217659137577002	0.1731160896130346	1.272727272727273
12400.42114257812	-1.040102804246866	0.1337000932935134	9.670093474895527	3.718591414975016e-05	-0.3718219555833518	-0.003718591414975016	0.2217659137577002	0.1955193482688391	1.28305785123967
12419.95239257812	-1.279031198518029	0.1464465791458373	9.634373283934298	0.365968993794033	0.3607872155293249	-0.3650153214322821	0.2238193018480493	0.185336048879837	1.266528925619835
12439.48364257812	-1.275470588096126	0.2975978431822526	9.515686269870875	1.44562230563912	1.479838737886694	0.3653056679721108	0.2176591375770021	0.175152749490835	1.28099173553719
12459.01489257812	-1.144976384832983	0.126457635570669	9.499212827766083	0.3587047118933778	0.003641210253730994	0.3614128686332386	0.2176591375770021	0.1873727087576375	1.252066115702479
12478.54614257812	-1.059368742808789	0.4941374398251581	9.645624760292977	-0.01080345806560844	-1.46527389687177	1.080345806560844	0.2217659137577002	0.1731160896130346	1.266528925619835
12498.07739257812	-1.067125589787712	0.2649627259686398	9.570852992923729	-0.7244505902025123	-2.595360159283167	-0.01870909569080654	0.2197125256673511	0.1771894093686354	1.274793388429752
12517.60864257812	-0.9928708929758581	0.1356384112711392	9.429029765861934	-0.007338653728954708	0.3864979058911098	0.7338653728954707	0.2176591375770021	0.1812627291242362	1.270661157024793
12537.13989257812	-1.042978105597532	-0.193896254143202	9.43260351991773	-0.3624298176290798	0.7473406760668516	0.01109770493695932	0.2279260780287475	0.1792260692464358	1.28099173553719
12556.67114257812	-1.102670970418149	0.2568030528981318	9.422365680604964	-0.00391103530645073	2.610091664237342	0.391103530645073	0.2114989733059548	0.1894093686354379	1.270661157024793
12576.20239257812	-1.197696289000119	0.0660781998899615	9.589876300003969	-1.090865814966342	1.50571609218773	0.3909293227211758	0.2258726899383984	0.1792260692464358	1.28305785123967
12595.73364257812	-1.515240437809188	0.2400722584416961	9.508014593639585	-1.101632087117801	-0.3313797602673919	1.467556537867044	0.2238193018480493	0.1914460285132383	1.256198347107438
12615.26489257812	-0.8698606748519961	0.3954117151311879	9.328689161733204	-2.181396956705337	-0.3349654158747059	0.7483913227075764	0.2176591375770021	0.185336048879837	1.264462809917355
12634.79614257812	-0.9758115076720707	0.1944876125193638	9.527050255735684	-2.536488120605462	0.02587735430103592	0.02562365474906499	0.2320328542094456	0.185336048879837	1.276859504132231
12654.32739257812	-0.9541418613436002	-0.08517253516776403	9.471395378120002	-3.253823172563918	-0.7250489773731296	-0.7046392653473622	0.2197125256673511	0.1608961303462322	1.289256198347108
12673.85864257812	-0.9436611276764711	0.151549568717941	9.788704255882367	-2.529112280962357	-0.7324425071734256	-0.7119603095613808	0.2320328542094456	0.1792260692464358	1.254132231404959
12693.38989257812	-1.420796330718013	0.3272758530678424	9.693211023933769	-2.529075095048208	-1.104264462756777	-0.7156789009763558	0.1991786447638604	0.1792260692464358	1.272727272727273
12712.92114257812	-0.9396959562033089	0.03283164082759678	9.65653187344363	-2.898806380492092	-0.3422478363821679	0.02556558544109925	0.2279260780287475	0.185336048879837	1.266528925619835
12732.45239257812	-1.005539253068316	0.02487564150791127	9.517975102277187	-2.185270806097638	1.903304292779284	1.135776261937674	0.2197125256673511	0.1955193482688391	1.278925619834711
12751.98364257812	-1.035852153045525	0.03507447051528038	9.528405101517485	-1.467935754139182	2.654230624453449	1.866039182034102	0.2279260780287475	0.1690427698574338	1.274793388429752
12771.51489257812	-1.203589631565541	0.06750601912714178	9.452987718851361	-2.902791787626843	3.011487739021877	0.4241062989161223	0.2279260780287475	0.175152749490835	1.270661157024793
12791.04614257812	-0.9633379362339232	0.4351874006176982	9.444597874464101	-3.609025894206492	0.7512596595526675	-1.416251159060949	0.2217659137577002	0.1771894093686354	1.28305785123967
12810.57739257812	-1.286771484518245	0.3272772200057674	9.559049483941502	-4.688753577879878	0.3758520483620018	-2.139134965635392	0.2073921971252567	0.1670061099796334	1.262396694214876
12830.10864257812	-1.024410093995384	0.2621074029414927	9.813669799846114	-4.3301976096431	1.86678108094914	-1.762847731342253	0.2258726899383984	0.1670061099796334	1.258264462809917
12849.63989257812	-1.073164826689358	0.08301003937044096	9.77216088964526	-4.326621247563996	2.603087016961965	-2.120483939252551	0.2217659137577002	0.1588594704684318	1.272727272727273
12869.17114257812	-0.9990394632350218	0.1803105735540097	9.967982107834052	-4.688939507450627	2.234961826278761	-2.120542008560516	0.215605749486653	0.1771894093686354	1.268595041322314
12888.70239257812	-0.9317143530847978	0.1120790258359154	9.723811769493258	-3.964079872192467	0.7402804741450576	-2.142737418434435	0.2032854209445585	0.1466395112016293	1.266528925619835
12908.23364257812	-1.112645411307679	0.1735779836771839	9.754847043589285	-4.330048865986501	0.3794932586157327	-1.777722097002153	0.1971252566735113	0.1608961303462322	1.270661157024793
12927.76489257812	-1.137305497219727	0.1322712225656216	9.91018324065757	-1.43500477714426	1.844544936901835	-1.427058517458079	0.2135523613963039	0.1608961303462322	1.256198347107438
12947.29614257812	-1.264425992534942	0.01783559574703552	9.48086641783139	-1.438581139223363	1.10823900088901	-1.069422309547782	0.2176591375770021	0.1507128309572301	1.287190082644628
12966.82739257812	-1.032573079261633	-0.1171986289612613	9.752435975387757	-0.724636519773261	-0.7362503813664076	-0.0001161386159314638	0.2114989733059548	0.1568228105906314	1.287190082644628
12986.35864257812	-1.307476650991569	0.1039158828460594	9.915888366385628	-0.007152724158205957	-1.472611872025649	0.7152724158205956	0.2073921971252567	0.1670061099796334	1.268595041322314
13005.88989257812	-1.216807658427449	0.2532321904417917	9.893588614248277	-0.003464804336653728	-1.85177180276288	0.3464804336653728	0.215605749486653	0.164969450101833	1.254132231404959
13025.42114257812	-1.197271223879985	-0.07711769572119515	9.909040795999498	0.36239263171493	-0.3755187204834998	-0.007379113521984299	0.2012320328542095	0.1547861507128309	1.272727272727273
13044.95239257812	-0.8861204014696686	-0.05651226314185952	9.537346715655618	0.7284731832514122	-1.13019737170423	-0.3835502091991915	0.2258726899383984	0.1731160896130346	1.268595041322314
13064.48364257812	-1.252159039021609	-0.09486475595032023	9.73863463405363	1.804401389360797	0.7398360369737216	0.7192813537753994	0.2114989733059548	0.1629327902240326	1.276859504132231
13084.01489257812	-1.413602557015113	-0.05039816010155299	9.453418567170409	2.521922370890002	-0.3683474092688718	1.430951316796951	0.215605749486653	0.164969450101833	1.256198347107438
13103.54614257812	-0.9136691952389553	0.004580293539404473	9.455639841298506	2.159715668745821	-1.851938466702131	1.419737473244061	0.2114989733059548	0.1629327902240326	1.260330578512397
13123.07739257812	-1.140224961180277	0.04466059588504365	9.67416537267591	1.438729882879962	-2.595526823222418	1.054547943887881	0.2094455852156057	0.1568228105906314	1.266528925619835
13142.60864257812	-1.083959430333877	0.2661864508587131	9.465314344462573	1.43493040531596	-1.100901025735131	1.434495700288029	0.2032854209445585	0.1588594704684318	1.266528925619835
13162.13989257812	-0.7922764327020972	0.2204972867596553	9.742547756736572	1.808275238753098	-1.498433671680268	0.3318964145453014	0.2197125256673511	0.1670061099796334	1.264462809917355
13181.67114257812	-0.9518974544198493	0.2422198230709154	9.729915147328306	1.08717789514479	-1.126556161450499	-0.0221373405659529	0.2279260780287475	0.1608961303462322	1.276859504132231
13201.20239257812	-1.104474539861093	-0.01378010122175335	9.482484662036427	1.445845421124018	-0.7510929956134165	0.3429941194822607	0.2176591375770021	0.1710794297352342	1.272727272727273
