Time Stamp	Accelerometer X	Accelerometer Y	Accelerometer Z	Gyroscope X	Gyroscope Y	Gyroscope Z	Magnetometer X	Magnetometer Y	Magnetometer Z
302.764892578125	0.6579045945675259	-9.953944181089833	-1.263486485584194	-23.19045104393674	-2.737982691057343	0.204524683528794	0.188911704312115	-0.395112016293279	0.7148760330578513
322.296142578125	0.2806115890574516	-9.572602252871423	-2.020386301915054	6.164139543490465	-4.532046445456617	-0.4719253635391059	0.1704312114989733	-0.4073319755600814	0.7066115702479339
341.827392578125	0.3714793133660506	-9.836555022011645	-1.715977112201682	-2.167017136560625	1.866614417009889	-0.6895906917635649	0.1683778234086242	-0.3991853360488798	0.71900826446281
361.358642578125	0.4919509700396124	-9.567602519687194	-1.731699001320409	-0.3587047118933778	-0.003641210253730994	-0.3614128686332386	0.1601642710472279	-0.3788187372708757	0.7024793388429752
380.889892578125	0.3431939503533403	-9.915700622719088	-1.773131678444677	-0.3624298176290798	0.7473406760668516	0.01109770493695932	0.1704312114989733	-0.3971486761710794	0.7231404958677686
400.421142578125	0.4584331263736741	-9.665106622472512	-1.947770879122468	-0.7210601576941581	5.555464641699391e-05	-0.3577523465262293	0.1724845995893224	-0.4012219959266802	0.7004132231404959
419.952392578125	-0.08150209654104246	-9.773019011214938	-1.616596781965252	-0.36239263171493	0.3755187204834998	0.007379113521984299	0.1765913757700205	-0.4032586558044806	0.7004132231404959
439.483642578125	0.2752639701713115	-9.584331316311276	-1.842132339043717	0.00379947756400148	-1.494625797487286	-0.3799477564001479	0.1581108829568789	-0.4093686354378818	0.7024793388429752
459.014892578125	0.2668612450228345	-9.803714864109283	-1.895374834094481	-0.3624298176290798	0.7473406760668516	0.01109770493695932	0.162217659137577	-0.4175152749490835	0.7045454545454546
478.546142578125	-0.01126304275650395	-9.890308383824602	-1.957898574783202	-0.003687919821552229	0.3791599307372308	0.3687919821552229	0.1581108829568789	-0.3971486761710794	0.7004132231404959
498.077392578125	0.09412235093344774	-9.592900439864852	-1.804078364448258	-0.358667525979228	-0.3754631658370828	-0.3651314600482136	0.1786447638603696	-0.3971486761710794	0.7086776859504132
517.608642578125	0.06047359667392458	-9.883780203742099	-1.682453222464153	-1.090642699481444	-0.7252156413123806	0.3686177742313257	0.1560574948665298	-0.3991853360488798	0.7024793388429752
537.139892578125	0.27753597872624	-9.906930033545184	-1.584532624207997	-0.7209114140375591	-1.48723226768699	-0.3726267121861294	0.1765913757700205	-0.395112016293279	0.6983471074380165
556.671142578125	0.3778537129319952	-9.737827299485321	-1.595123764399837	-0.3550539779859753	-0.01097918540760998	-0.7264862593734864	0.1724845995893224	-0.4093686354378818	0.7066115702479339
576.202392578125	0.2203911387723268	-9.612073531796948	-2.013037959077559	-0.3551283498142748	0.7326647257590937	-0.7190490765435364	0.1704312114989733	-0.405295315682281	0.7128099173553719
595.733642578125	0.2494469816039072	-9.696012142614737	-1.648232720130238	-0.3623182598866305	-0.3681251906832038	-5.806930796573191e-05	0.1704312114989733	-0.3808553971486761	0.6838842975206612
615.264892578125	0.2464218428268487	-9.923656937485985	-1.880728094228289	-0.3660061797081828	0.01103474005402697	0.3687339128472572	0.1601642710472279	-0.395112016293279	0.71900826446281
634.796142578125	0.3656766618744978	-9.685097879327245	-1.855888729149925	-0.7211345295224576	0.7436994658131205	-0.3503151636962792	0.1663244353182751	-0.3971486761710794	0.7107438016528926
654.327392578125	0.3626515230974393	-9.912742674198494	-2.088384103247976	0.3695081699589862	1.468915107125501	-0.7189329379276049	0.1745379876796715	-0.3930753564154786	0.6983471074380165
673.858642578125	0.2718240183085563	-9.605443567413568	-1.727467276951876	0.0001487436565990006	-1.487287822333407	-0.01487436565990006	0.1540041067761807	-0.4073319755600814	0.7024793388429752
693.389892578125	0.208819746364668	-9.612481615342091	-1.960658212155601	-0.01449137788716067	-1.08611396613454	1.449137788716066	0.1683778234086242	-0.405295315682281	0.7004132231404959
712.921142578125	0.8490309067293567	-9.798813340157508	-1.967696890978551	-0.3587047118933778	-0.003641210253730994	-0.3614128686332386	0.1642710472279261	-0.395112016293279	0.7148760330578513
732.452392578125	0.2775162632753989	-9.823603074874287	-1.917208775846627	0.3694337981306867	2.212559018292205	-0.7114957550976549	0.1724845995893224	-0.415478615071283	0.7128099173553719
751.983642578125	0.08602008925578905	-9.802186837807294	-1.867336308526302	-0.3658574360515838	-1.47625308227938	0.3538595471873571	0.1642710472279261	-0.4012219959266802	0.7148760330578513
771.514892578125	0.236113027891054	-9.713656787648558	-1.870434263035133	-0.02168128795951637	-2.186903882576837	2.168128795951637	0.1745379876796715	-0.3890020366598778	0.7107438016528926
791.046142578125	0.3224099220766521	-9.805754125195216	-1.74699740255507	0.3442877058345166	-1.826116667047512	1.803113474519355	0.1806981519507187	-0.3991853360488798	0.6983471074380165
810.577392578125	0.08190508035623455	-9.583517357351484	-1.730169345207818	0.7066431516352969	-1.82981343194766	1.799452952412346	0.1704312114989733	-0.3930753564154786	0.7128099173553719
830.108642578125	0.5263946512770487	-9.596465729420421	-1.879821709234954	-0.3551283498142748	0.7326647257590937	-0.7190490765435364	0.162217659137577	-0.3930753564154786	0.7086776859504132
849.639892578125	-0.002480203715810463	-9.784135265868112	-1.583993209472985	-1.076225693422583	1.104542235988862	-1.073082831654791	0.1683778234086242	-0.3930753564154786	0.6983471074380165
869.171142578125	0.1934377516184414	-9.667455126976703	-1.447925053948045	-0.3585931541509285	-1.119107077003786	-0.3725686428781636	0.1704312114989733	-0.3991853360488798	0.7210743801652892
888.702392578125	0.4335467070859697	-9.976486564708871	-1.784890236198987	0.3548680484152266	1.870088963324369	0.7450792164483615	0.1868583162217659	-0.3869653767820774	0.7086776859504132
908.233642578125	-0.01253902673493997	-9.67072095197763	-1.915365775502001	0.3620579584875823	2.970878879766667	0.02608820921279084	0.1704312114989733	-0.3828920570264766	0.7128099173553719
927.764892578125	0.01715796255799299	-9.691118925439582	-1.905265418599767	-0.7175209815292047	1.108183446242593	-0.7116699630215522	0.1581108829568789	-0.395112016293279	0.6962809917355373
947.296142578125	0.07805425849795078	-9.681429123085662	-1.935141949931692	-0.003464804336653728	-1.85177180276288	0.3464804336653728	0.1704312114989733	-0.395112016293279	0.7148760330578513
966.827392578125	0.3916032683485787	-9.716714943233958	-1.720108944952621	-0.3657086923949848	-2.963540904612787	0.338985181527457	0.1745379876796715	-0.3971486761710794	0.7024793388429752
986.358642578125	0.6946873168927504	-9.78871776753801	-1.822910563091677	-0.3622067021441813	-1.483591057433259	-0.01121384355289078	0.1704312114989733	-0.3930753564154786	0.7066115702479339
1005.889892578125	0.5147026003102424	-9.726912825899689	-1.823420010341411	-0.7174466097009052	0.3645395350758898	-0.7191071458515021	0.162217659137577	-0.3930753564154786	0.7004132231404959
1025.421142578125	0.2278964165985169	-9.70631349196648	-1.596547219950564	0.006966794587457206	3.331721649942408	-0.6966794587457206	0.1663244353182751	-0.4073319755600814	0.7252066115702479
1044.952392578125	-0.02954794048457425	-9.622887167423347	-1.681735317180859	-0.0002974873131980013	2.974575644666814	0.02974873131980012	0.1848049281314169	-0.3890020366598778	0.71900826446281
1064.483642578125	-0.004122106461857311	-9.671332814422668	-1.862596451271423	0.3549796061576758	0.7546230965743135	0.7339234422034364	0.1663244353182751	-0.3971486761710794	0.6942148760330579
1084.014892578125	0.1886855393477025	-9.795658342277575	-1.622851311590083	-0.7244505902025123	-2.595360159283167	-0.01870909569080654	0.1560574948665298	-0.4032586558044806	0.71900826446281
1103.546142578125	0.3478207723567298	-9.844204616937992	-1.92735907855766	-0.003464804336653728	-1.85177180276288	0.3464804336653728	0.1683778234086242	-0.4012219959266802	0.6983471074380165
1123.077392578125	0.2315761083434999	-9.845123724968936	-1.719203611449998	7.437182829950031e-05	-0.7436439111667036	-0.007437182829950031	0.1560574948665298	-0.395112016293279	0.6900826446280992
1142.608642578125	0.2346107105369621	-9.764142536926382	-1.820357017898738	-0.007264281900655208	-0.3571460052755938	0.7264281900655207	0.1806981519507187	-0.4175152749490835	0.7045454545454546
1162.139892578125	0.5411299792356872	-9.741701306713795	-1.370999307856239	0.3587047118933778	0.003641210253730994	0.3614128686332386	0.1745379876796715	-0.3910386965376782	0.7128099173553719
1181.671142578125	0.2777717755182995	-9.783520459249083	-1.925725850609983	0.3586303400650783	0.7472851214204346	0.3688500514631886	0.1724845995893224	-0.3971486761710794	0.7128099173553719
1201.202392578125	0.4747709261766773	-9.756490733869541	-1.825697539222575	0.724487776116662	2.223538203699815	0.01499050427583152	0.1745379876796715	-0.3788187372708757	0.6900826446280992
1220.733642578125	-0.01591904362713826	-9.731813824106109	-1.802698545762059	-0.3588906414641265	1.855468567663028	-0.3428199115583635	0.1745379876796715	-0.4032586558044806	0.71900826446281
1240.264892578125	0.1705843896214712	-9.931511047355723	-2.019479654049041	0.00383666347815123	-1.866447753070638	-0.3836663478151229	0.1806981519507187	-0.3869653767820774	0.6983471074380165
1259.796142578125	0.4262717057256036	-9.895505481815388	-1.875723524186784	-0.362095144401732	-2.599056924183315	-0.02236961779781583	0.1581108829568789	-0.3890020366598778	0.7128099173553719
1279.327392578125	0.3834868115463144	-9.706005930933358	-1.782893718210478	0.36239263171493	-0.3755187204834998	-0.007379113521984299	0.1437371663244353	-0.3991853360488798	0.7169421487603306
1298.858642578125	0.4604504113037355	-9.817787700345127	-1.681680376791181	0.003501990250803478	1.479949847179528	-0.3501990250803478	0.1765913757700205	-0.3808553971486761	0.7024793388429752
1318.389892578125	0.1160175420195404	-9.812487661413682	-1.867251400651346	3.718591414975016e-05	-0.3718219555833518	-0.003718591414975016	0.162217659137577	-0.3849287169042769	0.7024793388429752
1337.921142578125	0.1877660107204736	-9.322622323200379	-1.925533690682452	-0.3622810739724808	-0.7399471462665556	-0.003776660722940747	0.1806981519507187	-0.4012219959266802	0.7045454545454546
1357.452392578125	0.1879197912370341	-9.705905934166692	-1.597326374567804	0.003613547993252729	0.3644839804294728	-0.3613547993252729	0.1704312114989733	-0.3849287169042769	0.7210743801652892
1376.983642578125	-0.05212607478780262	-9.930187430848056	-1.92913084040658	-0.7174094237867555	-0.007282420507461989	-0.7228257372664771	0.1704312114989733	-0.3808553971486761	0.7107438016528926
1396.514892578125	0.2367037027982534	-9.756799136095232	-1.556790093275112	-0.3657830642232843	-2.219896993446084	0.346422364357407	0.1683778234086242	-0.4195519348268839	0.7045454545454546
1416.046142578125	0.4389250820754219	-9.774747556795615	-1.964169402514062	-0.007152724158205957	-1.472611872025649	0.7152724158205956	0.1642710472279261	-0.3971486761710794	0.6900826446280992
1435.577392578125	0.3507213094844726	-9.463266776600022	-2.024043649482417	-0.7210601576941581	5.555464641699391e-05	-0.3577523465262293	0.1724845995893224	-0.405295315682281	0.71900826446281
1455.108642578125	0.1169796560205861	-9.612176577886677	-1.899321867352869	0.003650733907402479	-0.007337975153878983	-0.3650733907402479	0.1848049281314169	-0.4012219959266802	0.7293388429752067
1474.639892578125	0.2475542983231615	-9.696624110208845	-1.585143277438716	0.3551655357284246	-1.104486681342445	0.7153304851285613	0.1642710472279261	-0.3930753564154786	0.7024793388429752
1494.171142578125	0.525753504815696	-9.660006366776258	-1.525116827189867	-0.3660061797081828	0.01103474005402697	0.3687339128472572	0.1704312114989733	-0.3767820773930753	0.7107438016528926
1513.702392578125	0.5277810417801948	-9.749350796491072	-1.59270139267316	0.7318636157597666	1.465218342225353	-0.7225934600346142	0.1848049281314169	-0.3808553971486761	0.6983471074380165
1533.233642578125	-0.01121257120235072	-9.783625398022092	-1.626247626588309	0.01434263423056167	2.573401788467947	-1.434263423056166	0.1765913757700205	-0.3890020366598778	0.7066115702479339
1552.764892578125	0.01112897769078443	-9.809734963879981	-2.037632589692815	-3.718591414975016e-05	0.3718219555833518	0.003718591414975016	0.1663244353182751	-0.395112016293279	0.7128099173553719
1572.296142578125	0.3227703205180275	-9.835637596365837	-1.759010683934247	-0.007264281900655208	-0.3571460052755938	0.7264281900655207	0.1642710472279261	-0.4032586558044806	0.6962809917355373
1591.827392578125	0.2394023537093832	-9.802593238967299	-1.98007845697944	-1.086806036003293	-2.591663394383019	-0.01504857358379726	0.1601642710472279	-0.3869653767820774	0.7024793388429752
1611.358642578125	0.1215599495599906	-9.930695616308936	-2.051998318666352	-1.079541754102638	-2.234517389107425	-0.7414767636493179	0.1642710472279261	-0.3991853360488798	0.6962809917355373
1630.889892578125	0.2557701209976649	-9.913967660877423	-1.859004033255497	-0.7244134042883625	-2.967182114866518	-0.02242768710578156	0.1868583162217659	-0.395112016293279	0.7045454545454546
1650.421142578125	0.4654431520747358	-9.639506714162502	-1.514771735824525	0.3550911639001251	-0.3608427701757418	0.7227676679585114	0.1745379876796715	-0.3910386965376782	0.7066115702479339
1669.952392578125	0.3530090904000738	-9.585860394103976	-1.76696968000246	0.3585931541509285	1.119107077003786	0.3725686428781636	0.1683778234086242	-0.3910386965376782	0.7004132231404959
1689.483642578125	0.1887013117083754	-9.595653242547625	-1.623377056945845	0.003427618422503978	2.223593758346232	-0.3427618422503977	0.1601642710472279	-0.3930753564154786	0.7066115702479339
1709.014892578125	0.3168477990853609	-9.604219211629069	-1.894926636178693	-0.7175209815292047	1.108183446242593	-0.7116699630215522	0.1704312114989733	-0.415478615071283	0.7066115702479339
1728.546142578125	0.4667443718302485	-9.80575265310822	-1.89147906100828	0.3587047118933778	0.003641210253730994	0.3614128686332386	0.1540041067761807	-0.395112016293279	0.7066115702479339
1748.077392578125	0.3694360040408788	-9.947215692026784	-1.647866801362627	-0.369545355873136	-1.097093151542149	0.7226515293425799	0.1745379876796715	-0.3991853360488798	0.71900826446281
1767.608642578125	0.1679267468480909	-9.632370351852451	-1.930891561603029	0.007152724158205957	1.472611872025649	-0.7152724158205956	0.1704312114989733	-0.4114052953156823	0.6983471074380165
1787.139892578125	0.1373283671427028	-9.642263827957191	-1.910945571423426	-0.0001859295707487508	1.859109777916759	0.01859295707487508	0.1745379876796715	-0.3971486761710794	0.7066115702479339
1806.671142578125	0.2063710873702033	-9.663273348416968	-1.879036245673444	-0.01095220172220744	0.02201392546163695	1.095220172220744	0.1683778234086242	-0.405295315682281	0.71900826446281
1826.202392578125	0.3754295010965734	-9.945277794645442	-1.847650036552446	-0.3659318078798833	-0.7326091711126765	0.3612967300173071	0.1765913757700205	-0.4093686354378818	0.7128099173553719
1845.733642578125	0.1139300700844847	-9.683162610672683	-1.797669002816155	0.007301467814804958	-0.01467595030775797	-0.7301467814804957	0.1663244353182751	-0.395112016293279	0.7086776859504132
1865.264892578125	0.2511590713549484	-9.785458566928567	-1.705302378498277	-0.3514776159068723	0.7253267506052147	-1.084122467283784	0.1601642710472279	-0.3930753564154786	0.7107438016528926
1884.796142578125	0.01493405970311685	-9.891837987362658	-1.831135323437229	0.7210973436083078	-0.3718775102297688	0.3540337551112543	0.1642710472279261	-0.4134419551934826	0.7024793388429752
1904.327392578125	0.3016866173885545	-9.525787993711035	-1.722887246285149	-0.3731589038663887	-1.461577131971622	1.084006328667853	0.1704312114989733	-0.4032586558044806	0.7148760330578513
1923.858642578125	0.355802375475241	-9.764957231929671	-1.860079182508031	-0.003427618422503978	-2.223593758346232	0.3427618422503977	0.1683778234086242	-0.3930753564154786	0.71900826446281
1943.389892578125	0.6172426601348066	-9.777091539889746	-1.908088671160212	-1.08315530209589	-2.599001369536898	-0.3801219643240451	0.1581108829568789	-0.4032586558044806	0.7045454545454546
1962.921142578125	0.3320886312035652	-9.805958009244181	-1.736287706785506	0.003576362079102979	0.7363059360128246	-0.3576362079102978	0.1806981519507187	-0.3890020366598778	0.7128099173553719
1982.452392578125	0.1841951482641334	-9.537110235394596	-1.473171608804447	0.3584815964084793	2.234572943753842	0.3837244171230887	0.1724845995893224	-0.3788187372708757	0.7231404958677686
2001.983642578125	0.07202921672091045	-10.08337721992691	-1.734307224030348	0.3622067021441813	1.483591057433259	0.01121384355289078	0.1642710472279261	-0.415478615071283	0.7004132231404959
2021.514892578125	0.1363071067891338	-9.592594035471514	-1.876903559637793	-0.3660061797081828	0.01103474005402697	0.3687339128472572	0.1704312114989733	-0.3890020366598778	0.7086776859504132
2041.046142578125	0.1692177145691661	-9.861952938955969	-1.973923818972205	-0.003613547993252729	-0.3644839804294728	0.3613547993252729	0.1601642710472279	-0.3910386965376782	0.7107438016528926
2060.577392578125	0.2088844130434268	-9.725794039782626	-1.629480434780894	7.437182829950031e-05	-0.7436439111667036	-0.007437182829950031	0.1704312114989733	-0.3991853360488798	0.7004132231404959
2080.108642578125	0.3806328028825567	-9.696928727067974	-1.687760096085221	0.0001487436565990006	-1.487287822333407	-0.01487436565990006	0.1745379876796715	-0.3991853360488798	0.7004132231404959
2099.639892578125	0.2956726162639852	-9.654399187407977	-1.855753875466172	-0.007264281900655208	-0.3571460052755938	0.7264281900655207	0.1848049281314169	-0.3991853360488798	0.7252066115702479
2119.171142578125	0.2324475312706766	-9.794841964889148	-1.748251042355886	-0.3587047118933778	-0.003641210253730994	-0.3614128686332386	0.1642710472279261	-0.4012219959266802	0.6983471074380165
2138.702392578125	0.1998768178631448	-9.682039828890915	-1.995893928771493	-0.0001115577424492505	1.115465866750055	0.01115577424492505	0.1848049281314169	-0.405295315682281	0.7107438016528926
2158.233642578125	0.381458485963782	-9.826661756205043	-1.715282865459397	-1.08714070923064	0.7547342058671476	0.01841874915097788	0.1683778234086242	-0.3890020366598778	0.7045454545454546
2177.764892578125	0.06597184160449071	-9.762002437881215	-1.865728053483023	-0.7211345295224576	0.7436994658131205	-0.3503151636962792	0.1704312114989733	-0.3971486761710794	0.7334710743801653
2197.296142578125	0.0856896582996922	-9.792293677149766	-1.856321943323073	0.007301467814804958	-0.01467595030775797	-0.7301467814804957	0.1704312114989733	-0.4032586558044806	0.7086776859504132
2216.827392578125	0.3397398033659795	-9.716817463578334	-1.65799344553265	-0.7210601576941581	5.555464641699391e-05	-0.3577523465262293	0.1868583162217659	-0.4012219959266802	0.6962809917355373
2236.358642578125	0.02414748419017997	-9.792192313445176	-1.804916139672666	-0.7245993338591113	-1.108072336949759	-0.003834730030906479	0.1683778234086242	-0.4012219959266802	0.7210743801652892
2255.889892578125	0.4246495184303978	-9.866029989040838	-1.821650614346592	0.0001859295707487508	-1.859109777916759	-0.01859295707487508	0.1581108829568789	-0.4093686354378818	0.6962809917355373
2275.421142578125	0.3822652422121998	-9.663067571684723	-2.075508073739992	-0.0001115577424492505	1.115465866750055	0.01115577424492505	0.1806981519507187	-0.3788187372708757	0.71900826446281
2294.952392578125	0.3607288723314152	-9.893364331279509	-2.024295744380505	0.358518782322629	1.86275098817049	0.3800058257081136	0.1601642710472279	-0.395112016293279	0.7024793388429752
2314.483642578125	0.1717917638309802	-9.754453996361315	-1.726392127699341	0.3587047118933778	0.003641210253730994	0.3614128686332386	0.1601642710472279	-0.3971486761710794	0.7066115702479339
2334.014892578125	0.122507079818397	-9.720389377525384	-2.083569327279901	-0.003539176164953228	-1.108127891596177	0.3539176164953228	0.1806981519507187	-0.395112016293279	0.7086776859504132
2353.546142578125	0.1930276702409465	-9.534254386622095	-1.767589008031549	0	0	0	0.1601642710472279	-0.4032586558044806	0.7004132231404959
2373.077392578125	0.2816170770503478	-9.822277145087053	-2.053902568344925	-0.3587047118933778	-0.003641210253730994	-0.3614128686332386	0.1724845995893224	-0.3849287169042769	0.7128099173553719
2392.608642578125	0.2519855430542073	-9.705191341079141	-1.732851435140241	-0.3622810739724808	-0.7399471462665556	-0.003776660722940747	0.1724845995893224	-0.405295315682281	0.7107438016528926
2412.139892578125	0.09364208255095853	-9.483055726641858	-1.788069418365284	-0.3659318078798833	-0.7326091711126765	0.3612967300173071	0.1683778234086242	-0.4073319755600814	0.6921487603305785
2431.671142578125	0.5936196069369998	-9.668062993757038	-1.787320231233322	0.3550167920718256	0.3828011409909618	0.7302048507884614	0.1765913757700205	-0.3971486761710794	0.7066115702479339
2451.202392578125	0.2483752496961849	-9.753025335931566	-1.945841656539497	0.728212881852364	1.472556317379232	-0.3575200692943664	0.1971252566735113	-0.3971486761710794	0.7066115702479339
2470.733642578125	0.4633296557445699	-9.773523411309256	-2.110988524818992	-0.36239263171493	0.3755187204834998	0.007379113521984299	0.1827515400410678	-0.395112016293279	0.7148760330578513
2490.264892578125	0.1716411377865542	-9.864502698782347	-1.721371259551807	-0.3623554458007803	0.003696764900147988	0.003660522107009284	0.1704312114989733	-0.3991853360488798	0.7045454545454546
2509.796142578125	0.2482104285271533	-9.643078628109553	-1.940347617571777	-0.003613547993252729	-0.3644839804294728	0.3613547993252729	0.1848049281314169	-0.3991853360488798	0.7066115702479339
2529.327392578125	0.2177319187628791	-9.73293334626667	-1.924397292095971	-0.3550539779859753	-0.01097918540760998	-0.7264862593734864	0.1765913757700205	-0.4012219959266802	0.6921487603305785
2548.858642578125	0.3306620211807032	-9.69641927981824	-1.688734039356772	3.718591414975016e-05	-0.3718219555833518	-0.003718591414975016	0.1683778234086242	-0.395112016293279	0.6983471074380165
2568.389892578125	0.2044184691189007	-9.623904694984889	-1.813948970630024	-0.369545355873136	-1.097093151542149	0.7226515293425799	0.1704312114989733	-0.3849287169042769	0.6962809917355373
2587.921142578125	0.5305396276618817	-9.835125520389326	-2.017987588729386	0.3551655357284246	-1.104486681342445	0.7153304851285613	0.1704312114989733	-0.395112016293279	0.7128099173553719
2607.452392578125	0.3324947694908919	-9.655826691197944	-1.749825649696395	-0.3550167920718256	-0.3828011409909618	-0.7302048507884614	0.1745379876796715	-0.3828920570264766	0.6900826446280992
2626.983642578125	0.2242269768879713	-9.504166610806223	-1.80756589626571	0.003576362079102979	0.7363059360128246	-0.3576362079102978	0.1540041067761807	-0.3930753564154786	0.7107438016528926
2646.514892578125	0.2834845245540168	-9.875006670394203	-1.782817485133893	-0.3660061797081828	0.01103474005402697	0.3687339128472572	0.1765913757700205	-0.3930753564154786	0.7045454545454546
2666.046142578125	0.2573024058370353	-9.883472222112694	-1.910080194567841	0.7171491223877073	2.610036109590924	0.7488558771713023	0.1683778234086242	-0.3930753564154786	0.6921487603305785
2685.577392578125	0.3157957826284797	-9.744559363616792	-1.859859420949322	0.01460293562960992	-0.02935190061551593	-1.460293562960991	0.1806981519507187	-0.3971486761710794	0.7210743801652892
2705.108642578125	0.2901136477448285	-9.946196587229172	-1.670454924827615	-0.3585559682367788	-1.490929032587138	-0.3762872342931387	0.1704312114989733	-0.3747454175152749	0.7293388429752067
2724.639892578125	-0.01366596190501728	-9.761085327682622	-1.877801269832758	-0.7390907117462719	-2.194186303084299	1.44530305868516	0.1540041067761807	-0.3991853360488798	0.71900826446281
2744.171142578125	0.5066058589588193	-9.799530772269982	-1.553528631960639	-0.01069190032315919	-2.580739763621826	1.069190032315918	0.1724845995893224	-0.415478615071283	0.7004132231404959
2763.702392578125	0.6391891113930859	-9.67999552064957	-1.639637046436196	-3.718591414975016e-05	0.3718219555833518	0.003718591414975016	0.1827515400410678	-0.4134419551934826	0.7252066115702479
2783.233642578125	-0.03477884390173504	-9.221245159528227	-1.840705203275499	-0.0001487436565990006	1.487287822333407	0.01487436565990006	0.1540041067761807	-0.3890020366598778	0.7128099173553719
2802.764892578125	0.06549078460396784	-9.862157979644717	-1.849692820132262	-0.003650733907402479	0.007337975153878983	0.3650733907402479	0.1724845995893224	-0.3808553971486761	0.7004132231404959
2822.296142578125	0.3171025227102279	-9.774136850990361	-1.903417423674261	-0.01080345806560844	-1.46527389687177	1.080345806560844	0.1704312114989733	-0.3991853360488798	0.7128099173553719
2841.827392578125	0.3448019425239405	-9.725180705250594	-1.826731417464682	-0.3658574360515838	-1.47625308227938	0.3538595471873571	0.1745379876796715	-0.4032586558044806	0.7024793388429752
2861.358642578125	0.2350310439488944	-9.834006629123191	-1.834368131629813	-0.3695081699589862	-1.468915107125501	0.7189329379276049	0.162217659137577	-0.3930753564154786	0.7066115702479339
2880.889892578125	0.5471786795537369	-9.706412226944291	-1.905955985124561	-0.7321239171588148	1.13753534685811	0.7486235999394393	0.1724845995893224	-0.3991853360488798	0.7024793388429752
2900.421142578125	0.2924377050899774	-9.742111808687575	-2.081256836332579	-1.442343430873215	2.231042842792945	-0.6931931445626085	0.1745379876796715	-0.395112016293279	0.6983471074380165
2919.952392578125	0.3143384165023056	-9.825030578664254	-1.811280550076851	-1.808238052838948	1.126611716096916	-0.3356150059602764	0.1642710472279261	-0.3767820773930753	0.6942148760330579
2939.483642578125	0.1279950727145258	-9.661948259822305	-1.933169090484193	-2.529037909134058	-1.476086418340129	-0.7193974923913308	0.1375770020533881	-0.405295315682281	0.7004132231404959
2959.014892578125	0.1636295671827646	-9.923759773277572	-1.787652239425487	-1.449384597288971	-0.3570348959827598	0.01092349701306212	0.1601642710472279	-0.3788187372708757	0.7252066115702479
2978.546142578125	0.1922398408253361	-9.991175784799809	-2.074661360844536	3.718591414975016e-05	-0.3718219555833518	-0.003718591414975016	0.1806981519507187	-0.4073319755600814	0.7086776859504132
2998.077392578125	0.1065785727748551	-9.972206261469463	-1.885952425828502	0.0001115577424492505	-1.115465866750055	-0.01115577424492505	0.1848049281314169	-0.395112016293279	0.6942148760330579
3017.608642578125	0.3296510128615716	-9.583412839174757	-1.988367095385717	0.3553142793850236	-2.591774503675853	0.7004561194686614	0.1704312114989733	-0.4012219959266802	0.6942148760330579
3037.139892578125	0.3065981305020895	-9.644199937804323	-1.886604350069648	0.3517007313917708	-2.956258484105325	1.061810918793934	0.1663244353182751	-0.4032586558044806	0.7128099173553719
3056.671142578125	0.2568521049398245	-9.79361781940279	-1.895070164660817	-0.3662292951930813	2.241966473554138	0.3910454613371072	0.1683778234086242	-0.3971486761710794	0.7107438016528926
3076.202392578125	0.2649590983256851	-9.657663224874696	-1.498636610856168	-0.0003346732273477514	3.346397600250166	0.03346732273477514	0.1848049281314169	-0.4032586558044806	0.7086776859504132
3095.733642578125	0.3163659534668044	-9.914375008379068	-1.878865115560143	0.7244505902025123	2.595360159283167	0.01870909569080654	0.1724845995893224	-0.3910386965376782	0.7231404958677686
3115.264892578125	0.3392090634293372	-9.713655736157847	-1.973635447644569	-0.0002231154848985009	2.230931733500111	0.02231154848985009	0.1786447638603696	-0.4073319755600814	0.7045454545454546
3134.796142578125	0.06420060550092624	-9.422575137554702	-1.806686850030874	0.362541375371529	-1.862806542816907	-0.02225347918188436	0.1540041067761807	-0.405295315682281	0.7107438016528926
3154.327392578125	0.2272907579486783	-9.653175988263261	-1.90969193162261	-0.7209857858658586	-0.7435883565202867	-0.3651895293561793	0.1704312114989733	-0.3849287169042769	0.6962809917355373
3173.858642578125	0.2726299859389405	-9.651849637879742	-2.087666197964682	-0.7247480775157102	0.3792154853836477	0.01103963562899358	0.1745379876796715	-0.4093686354378818	0.7231404958677686
3193.389892578125	0.4969523856089827	-9.745985395319764	-1.898412853632756	-1.079764869587536	-0.003585655607314001	-0.7191652151594679	0.1745379876796715	-0.3869653767820774	0.6962809917355373
3212.921142578125	0.4255516974608866	-9.625738284487646	-1.851723248696217	0.02168128795951637	2.186903882576837	-2.168128795951637	0.1663244353182751	-0.3971486761710794	0.7066115702479339
3232.452392578125	0.1548822159535851	-9.913254750175009	-1.829407198452836	-0.7249340070864591	2.238325263300407	0.02963259270386866	0.1642710472279261	-0.4032586558044806	0.7210743801652892
3251.983642578125	0.2042773064908785	-9.880617004234615	-2.142576883029282	-0.7285475550797117	1.873841282870934	0.3909873920291415	0.1909650924024641	-0.4032586558044806	0.7086776859504132
3271.514892578125	0.3555168957470619	-9.785049537041782	-1.850563191568727	-1.800750655453395	-0.7471740121276006	-1.084354744515647	0.1848049281314169	-0.3930753564154786	0.6900826446280992
3291.046142578125	0.1488540197044102	-9.821870533628907	-1.961800656813673	-0.731789243931467	-2.208862253392057	0.7151562772046642	0.1724845995893224	-0.3890020366598778	0.7024793388429752
3310.577392578125	0.5420108655792676	-9.838083153462703	-1.733695519308918	-1.445436376068371	-3.338948515803453	-0.3838986250469859	0.1560574948665298	-0.3930753564154786	0.7066115702479339
3330.108642578125	0.3726511997640455	-9.776176112076293	-1.755039992134849	-0.3587418978075275	0.3681807453296208	-0.3576942772182636	0.1581108829568789	-0.3849287169042769	0.7045454545454546
3349.639892578125	0.03221820114649289	-9.982916114962634	-1.740606704883096	-0.7137586898793531	-0.01462039566134097	-1.087899128006725	0.1663244353182751	-0.395112016293279	0.6983471074380165
3369.171142578125	0.5678980411516663	-9.703046300027628	-2.263268038388874	0.7137586898793531	0.01462039566134097	1.087899128006725	0.1683778234086242	-0.395112016293279	0.7107438016528926
3388.702392578125	0.5575939579240735	-9.566377953604551	-1.919798597469114	0.7172978660443063	1.122748287257517	0.7339815115114022	0.1642710472279261	-0.3971486761710794	0.7107438016528926
3408.233642578125	0.3553221070927518	-9.655112518706677	-1.844070236425058	0.3622810739724808	0.7399471462665556	0.003776660722940747	0.1663244353182751	-0.3788187372708757	0.6921487603305785
3427.764892578125	0.1840248067688663	-9.563831979144734	-1.800826892295543	0.007227095986505457	0.7289679608589457	-0.7227095986505457	0.1642710472279261	-0.3991853360488798	0.7128099173553719
3447.296142578125	0.2077377624225084	-9.732831456816722	-1.924592080750281	-0.007413025557254208	1.130141817057813	0.7413025557254208	0.1519507186858316	-0.395112016293279	0.7066115702479339
3466.827392578125	0.5490469156754395	-9.549141497264941	-1.634897189181317	-0.7320123594163656	0.02206948010805394	0.7374678256945143	0.1581108829568789	-0.3930753564154786	0.7272727272727273
3486.358642578125	0.4975075727046682	-9.90580588482549	-1.916919090155602	-0.3515519877351718	1.468970661771918	-1.076685284453834	0.1437371663244353	-0.3930753564154786	0.7024793388429752
3505.889892578125	0.1966166709120604	-9.823093943071767	-1.887222363735347	0.003464804336653728	1.85177180276288	-0.3464804336653728	0.1519507186858316	-0.4032586558044806	0.71900826446281
3525.421142578125	-0.008528115415826477	-9.609424090651116	-2.049062819472451	1.087029151488191	0.3607316608829078	-0.007262974906052836	0.1786447638603696	-0.3991853360488798	0.7086776859504132
3544.952392578125	0.3887894792045368	-9.664291401723867	-1.959649306817892	-0.01449137788716067	-1.08611396613454	1.449137788716066	0.1806981519507187	-0.395112016293279	0.7128099173553719
3564.483642578125	0.2905765665305775	-9.342713576821781	-2.019218884352583	-1.079616125930937	-1.490873477940721	-0.7340395808193679	0.1663244353182751	-0.3890020366598778	0.7024793388429752
3584.014892578125	0.1923202798647678	-9.904483109510391	-1.744009328825593	-1.079690497759237	-0.7472295667740175	-0.7266023979894179	0.1683778234086242	-0.3869653767820774	0.7148760330578513
3603.546142578125	0.6408262824309309	-9.719466168680665	-1.694209414364362	-0.3731589038663887	-1.461577131971622	1.084006328667853	0.1745379876796715	-0.3991853360488798	0.7086776859504132
3623.077392578125	0.4766841135262977	-9.62920546995983	-1.556137117543255	0.7172978660443063	1.122748287257517	0.7339815115114022	0.162217659137577	-0.3788187372708757	0.6983471074380165
3642.608642578125	0.3233065807809054	-9.702130872214175	-2.110219359363512	-0.362541375371529	1.862806542816907	0.02225347918188436	0.1581108829568789	-0.3991853360488798	0.6880165289256198
3662.139892578125	0.2356414343069349	-9.960475936240758	-2.188047810231162	-3.718591414975016e-05	0.3718219555833518	0.003718591414975016	0.1724845995893224	-0.3910386965376782	0.7086776859504132
3681.671142578125	0.3501795288953591	-9.733441952323835	-2.005984296511969	-1.434521360260313	-2.989140485681738	-1.475400205852754	0.1581108829568789	-0.395112016293279	0.7086776859504132
3701.202392578125	0.3712088173805106	-9.866642482380302	-1.706960579350352	-0.7244505902025123	-2.595360159283167	-0.01870909569080654	0.1765913757700205	-0.4073319755600814	0.6900826446280992
3720.733642578125	0.1409985954712821	-9.634410454130952	-1.699953182376069	7.437182829950031e-05	-0.7436439111667036	-0.007437182829950031	0.1909650924024641	-0.3890020366598778	0.7066115702479339
3740.264892578125	0.2569719748809384	-9.873579061455164	-1.899065829364613	-0.3624298176290798	0.7473406760668516	0.01109770493695932	0.1745379876796715	-0.4032586558044806	0.7024793388429752
3759.796142578125	0.2153179589618948	-9.877047193268989	-1.510598632063159	0.003650733907402479	-0.007337975153878983	-0.3650733907402479	0.1704312114989733	-0.3991853360488798	0.6983471074380165
3779.327392578125	0.002025959728431484	-9.842678273021141	-1.734198657614383	0.003576362079102979	0.7363059360128246	-0.3576362079102978	0.1724845995893224	-0.4012219959266802	0.7148760330578513
3798.858642578125	0.1383038876503205	-9.87194840965973	-1.943462921677348	0.0002974873131980013	-2.974575644666814	-0.02974873131980012	0.1683778234086242	-0.405295315682281	0.7086776859504132
3818.389892578125	0.5065861435079781	-9.716203813599087	-1.886204783599268	-0.7209857858658586	-0.7435883565202867	-0.3651895293561793	0.1745379876796715	-0.4114052953156823	0.6900826446280992
3837.921142578125	0.2673265296626844	-9.903564422075732	-1.91088432208948	0.003427618422503978	2.223593758346232	-0.3427618422503977	0.1560574948665298	-0.3910386965376782	0.7210743801652892
3857.452392578125	0.05884667767051696	-9.780972907553199	-1.961555922350565	-0.00394822122060048	2.981913619820693	0.394822122060048	0.1642710472279261	-0.4093686354378818	0.7004132231404959
3876.983642578125	0.285287305378927	-9.814423771260815	-1.842910179297567	-0.7320123594163656	0.02206948010805394	0.7374678256945143	0.1724845995893224	-0.3869653767820774	0.6942148760330579
3896.514892578125	0.437843886751296	-9.685097143283748	-1.92812955837653	-0.003576362079102979	-0.7363059360128246	0.3576362079102978	0.1560574948665298	-0.4073319755600814	0.7045454545454546
3916.046142578125	0.3833212017592492	-9.806059478097843	-1.77737339197497	-0.7245993338591113	-1.108072336949759	-0.003834730030906479	0.1868583162217659	-0.3991853360488798	0.7066115702479339
3935.577392578125	0.2763451654954375	-9.673981729823144	-1.878172183181248	-0.7246737056874109	-0.3644284257830558	0.003602452799043552	0.1765913757700205	-0.3930753564154786	0.7045454545454546
3955.108642578125	0.5648382031811275	-9.837368980971437	-1.827940106037581	-1.090791443138043	0.7620721810210266	0.3834921398912258	0.1765913757700205	-0.3890020366598778	0.7004132231404959
3974.639892578125	0.3103693019389752	-9.422980592373065	-2.012310064632505	-0.3514404299927226	0.3535047950218628	-1.087841058698759	0.1642710472279261	-0.395112016293279	0.6921487603305785
3994.171142578125	0.1805335947339242	-9.901627471036031	-2.017786491130807	-0.3586303400650783	-0.7472851214204346	-0.3688500514631886	0.1827515400410678	-0.395112016293279	0.7272727272727273
4013.702392578125	0.2579333002639505	-9.883268232914658	-1.931110008798348	-0.724487776116662	-2.223538203699815	-0.01499050427583152	0.1581108829568789	-0.3828920570264766	0.7066115702479339
4033.233642578125	0.2899141273823165	-9.742927765479719	-1.99713757941055	-0.7318636157597666	-1.465218342225353	0.7225934600346142	0.1581108829568789	-0.3991853360488798	0.6880165289256198
4052.764892578125	0.413753971677572	-9.896219549157584	-1.791799055919065	-0.7172978660443063	-1.122748287257517	-0.7339815115114022	0.1704312114989733	-0.395112016293279	0.7086776859504132
4072.296142578125	0.2807511744494067	-9.735890453594694	-1.69170581498022	-0.7173722378726058	-0.3791043760908138	-0.7265443286814521	0.1827515400410678	-0.3890020366598778	0.7128099173553719
4091.827392578125	0.3840120311567213	-9.845836109925994	-1.800401038557376	-3.718591414975016e-05	0.3718219555833518	0.003718591414975016	0.1601642710472279	-0.4012219959266802	0.7024793388429752
4111.358642578125	0.3388936162158795	-9.713757730756866	-1.963120540529315	0.362243888058331	1.111769101849907	0.007495252137915762	0.1683778234086242	-0.3991853360488798	0.7004132231404959
4130.889892578125	0.1999217690910625	-9.712025294660554	-1.997392303035417	0.003501990250803478	1.479949847179528	-0.3501990250803478	0.1663244353182751	-0.3991853360488798	0.7024793388429752
4150.421142578125	0.3128660666334922	-9.895506638455171	-1.762202221116404	0.3696569136155852	-0.01837271520790595	-0.733807303587505	0.1683778234086242	-0.3971486761710794	0.7024793388429752
4169.952392578125	0.3059664474571406	-9.854404181988857	-1.865548248571353	-0.007115538244056207	-1.844433827609001	0.7115538244056206	0.1827515400410678	-0.3991853360488798	0.7128099173553719
4189.483642578125	0.4356507399997319	-9.69580626073342	-1.855024666657729	-0.007264281900655208	-0.3571460052755938	0.7264281900655207	0.1540041067761807	-0.395112016293279	0.7148760330578513
4209.014892578125	0.2526014537384833	-9.694992196624558	-1.753381791282774	-0.3587047118933778	-0.003641210253730994	-0.3614128686332386	0.1786447638603696	-0.395112016293279	0.7107438016528926
4228.546142578125	0.362477238512004	-9.656132359547785	-1.749241283733465	-0.7139074335359521	1.472667426672066	-1.073024762346825	0.1806981519507187	-0.3930753564154786	0.7086776859504132
4248.077392578125	0.1957760040881959	-9.683365758678148	-1.859200136273196	-0.003687919821552229	0.3791599307372308	0.3687919821552229	0.1930184804928131	-0.4012219959266802	0.7045454545454546
4267.608642578125	0.4801642849087688	-9.564746881212832	-2.005476163625624	0.3624670035432295	-1.119162631650203	-0.01481629635193433	0.1786447638603696	-0.395112016293279	0.7066115702479339
4287.139892578125	0.3151798719442038	-9.754758508071374	-1.83932906480679	-0.3624298176290798	0.7473406760668516	0.01109770493695932	0.1848049281314169	-0.3930753564154786	0.6983471074380165
4306.671142578125	0.2525612342187674	-9.738338534269266	-1.418707807292246	-0.724636519773261	-0.7362503813664076	-0.0001161386159314638	0.1704312114989733	-0.4134419551934826	0.7045454545454546
4326.202392578125	0.1853607257178593	-9.823400032017892	-1.845357523928643	-0.7247480775157102	0.3792154853836477	0.01103963562899358	0.1683778234086242	-0.4032586558044806	0.7252066115702479
4345.733642578125	0.2344742796171417	-10.09418664959046	-1.815809320571391	-0.7320123594163656	0.02206948010805394	0.7374678256945143	0.1745379876796715	-0.3910386965376782	0.7086776859504132
4365.264892578125	0.3189352710204166	-9.733544262370067	-1.964509034013884	-3.718591414975016e-05	0.3718219555833518	0.003718591414975016	0.1663244353182751	-0.4215885947046843	0.7066115702479339
4384.796142578125	0.150857109509866	-9.754556201258477	-1.6952369836622	-1.079616125930937	-1.490873477940721	-0.7340395808193679	0.1683778234086242	-0.3971486761710794	0.71900826446281
4404.327392578125	0.6423585672703012	-9.688970729915935	-1.745285575676707	-0.003613547993252729	-0.3644839804294728	0.3613547993252729	0.1601642710472279	-0.395112016293279	0.6962809917355373
4423.858642578125	0.5785625228206345	-9.869598117621328	-1.618750760687812	-0.003762291649851729	1.122803841903934	0.3762291649851729	0.1704312114989733	-0.3910386965376782	0.7024793388429752
4443.389892578125	0.3990083916844961	-9.814320620022015	-1.9669463894832	0.007152724158205957	1.472611872025649	-0.7152724158205956	0.1683778234086242	-0.405295315682281	0.7169421487603306
4462.921142578125	0.2504083069869192	-9.705701314074231	-1.680276899563973	-0.003613547993252729	-0.3644839804294728	0.3613547993252729	0.162217659137577	-0.4195519348268839	0.7004132231404959
4482.452392578125	0.1453699052317709	-9.602997063975062	-1.845663507725696	0.3514032440785728	0.01831716056148896	1.091559650113734	0.1704312114989733	-0.3747454175152749	0.6962809917355373
4501.983642578125	0.2678982777370764	-9.653379556865012	-1.929942591235877	-0.007264281900655208	-0.3571460052755938	0.7264281900655207	0.1745379876796715	-0.3971486761710794	0.7169421487603306
4521.514892578125	0.3862651128788423	-9.875107613502507	-1.875503762628075	-0.7210973436083078	0.3718775102297688	-0.3540337551112543	0.1683778234086242	-0.3788187372708757	0.7169421487603306
4541.046142578125	0.2830641911420846	-9.805142578197394	-1.768806371402817	-1.083266859838339	-1.483535502786842	-0.3689661900791201	0.1868583162217659	-0.4093686354378818	0.7107438016528926
4560.577392578125	0.3765264687813723	-9.834923108427358	-1.88421562604574	-0.3658946219657335	-1.104431126696028	0.3575781386023321	0.162217659137577	-0.3930753564154786	0.6983471074380165
4580.108642578125	0.4369724638241193	-9.735378903363536	-1.899082127470642	-0.0001115577424492505	1.115465866750055	0.01115577424492505	0.1663244353182751	-0.4073319755600814	0.7128099173553719
4599.639892578125	-0.1032080192990605	-9.820037259573363	-1.893066023364649	-0.0001115577424492505	1.115465866750055	0.01115577424492505	0.1683778234086242	-0.3910386965376782	0.6983471074380165
4619.171142578125	-0.1853694005162294	-9.819936106166914	-1.821019982792354	-0.7245249620308118	-1.851716248116463	-0.01127191286085651	0.1601642710472279	-0.3869653767820774	0.6983471074380165
4638.702392578125	0.3671190442580327	-9.594631509023236	-1.903968141934422	-0.3694337981306867	-2.212559018292205	0.7114957550976549	0.1806981519507187	-0.3910386965376782	0.7004132231404959
4658.233642578125	0.3995391316211385	-9.8174823474425	-1.651304387371281	7.437182829950031e-05	-0.7436439111667036	-0.007437182829950031	0.1909650924024641	-0.3828920570264766	0.6859504132231405
4677.764892578125	0.4332564956495887	-9.923247066406633	-2.108549854986287	-0.3587418978075275	0.3681807453296208	-0.3576942772182636	0.162217659137577	-0.4032586558044806	0.7004132231404959
4697.296142578125	0.261268365928231	-9.79218989501654	-2.042278864274368	-0.003762291649851729	1.122803841903934	0.3762291649851729	0.1704312114989733	-0.4134419551934826	0.7128099173553719
4716.827392578125	0.2359781742073009	-9.623700390339639	-1.865939140243362	-0.3624298176290798	0.7473406760668516	0.01109770493695932	0.1765913757700205	-0.3910386965376782	0.7107438016528926
4736.358642578125	0.4024388801308476	-9.646544762091025	-1.74796267102825	0.3477525101711704	0.02565513571536794	1.456633040853982	0.1806981519507187	-0.3869653767820774	0.7148760330578513
4755.889892578125	0.313152334979705	-9.665414078356564	-1.771744499323497	-0.003613547993252729	-0.3644839804294728	0.3613547993252729	0.1519507186858316	-0.3910386965376782	0.7107438016528926
4775.421142578125	0.32499343475487	-9.84491878942926	-1.833114491828997	0.007152724158205957	1.472611872025649	-0.7152724158205956	0.1601642710472279	-0.4114052953156823	0.6983471074380165
4794.952392578125	0.1326865613966741	-9.703764678481742	-1.756218713222469	0.3657830642232843	2.219896993446084	-0.346422364357407	0.1724845995893224	-0.4012219959266802	0.7148760330578513
4814.483642578125	0.199335825892065	-9.742214749628232	-1.977860863068833	0.3551655357284246	-1.104486681342445	0.7153304851285613	0.1745379876796715	-0.3849287169042769	0.7045454545454546
4834.014892578125	0.2604923657831253	-9.765774135063456	-1.68307885943751	-1.445659491553269	-1.108016782303342	-0.3615870765571358	0.1601642710472279	-0.395112016293279	0.7004132231404959
4853.546142578125	0.2304050105635386	-9.695502379917789	-1.680167018784619	-1.445696677467419	-0.7361948267199907	-0.3578684851421607	0.1745379876796715	-0.4114052953156823	0.7004132231404959
4873.077392578125	0.431549926224783	-9.697132190520653	-1.718330874159432	7.437182829950031e-05	-0.7436439111667036	-0.007437182829950031	0.1786447638603696	-0.3849287169042769	0.7128099173553719
4892.608642578125	0.5266943261298335	-9.796368834551354	-1.889810870994445	0.7209485999517089	1.115410312103638	0.3689081207711543	0.1683778234086242	-0.3930753564154786	0.7128099173553719
4912.139892578125	0.2439077285355915	-10.07113650110682	-2.13025761785305	-0.003725105735701979	0.7509818863205826	0.3725105735701979	0.1663244353182751	-0.3869653767820774	0.7066115702479339
4931.671142578125	0.1235433239146053	-9.78005432526761	-2.11811079715351	-1.086917593745742	-1.476197527632963	-0.00389279933887221	0.1848049281314169	-0.4012219959266802	0.7128099173553719
4951.202392578125	0.3104931149702573	-9.786273892826284	-1.683103832341909	-1.090382398082396	-3.327969330395843	0.3425876343265006	0.1724845995893224	-0.3910386965376782	0.7004132231404959
4970.733642578125	0.3291896713118898	-9.766895339609157	-1.639655710396325	-0.3660433656223325	0.3828566956373787	0.3724525042622321	0.1848049281314169	-0.4032586558044806	0.7148760330578513
4990.264892578125	0.09116266745318173	-9.723857404190138	-1.705422248439391	-0.3589278273782763	2.22729052324638	-0.3391013201433885	0.1765913757700205	-0.4093686354378818	0.7148760330578513
5009.796142578125	0.5544986321420207	-9.817378775607414	-1.816621071400688	0.7246737056874109	0.3644284257830558	-0.003602452799043552	0.1601642710472279	-0.3910386965376782	0.7024793388429752
5029.327392578125	0.1286709183693587	-9.691729736393908	-1.955697278978624	0	0	0	0.1806981519507187	-0.3991853360488798	0.7252066115702479
5048.858642578125	0.2060406564141065	-9.653380187759439	-1.868021880470216	-0.007227095986505457	-0.7289679608589457	0.7227095986505457	0.1663244353182751	-0.4175152749490835	0.7169421487603306
5068.389892578125	0.3309569643252861	-9.822990581534823	-2.031898810842867	-0.7318636157597666	-1.465218342225353	0.7225934600346142	0.1724845995893224	-0.3747454175152749	0.7128099173553719
5087.921142578125	0.4286809338183861	-9.678059831398723	-1.6226977939462	-0.7245993338591113	-1.108072336949759	-0.003834730030906479	0.1642710472279261	-0.395112016293279	0.7107438016528926
5107.452392578125	0.3451173897373981	-9.725078710651575	-1.837246324579936	-0.0001487436565990006	1.487287822333407	0.01487436565990006	0.1581108829568789	-0.4012219959266802	0.7086776859504132
5126.983642578125	0.09702131082512316	-9.631963109499878	-1.900710360837439	0	0	0	0.1724845995893224	-0.4134419551934826	0.7128099173553719
5146.514892578125	0.2525257464072534	-9.855016675328322	-1.750858213575113	-0.3549796061576758	-0.7546230965743135	-0.7339234422034364	0.1642710472279261	-0.3869653767820774	0.7169421487603306
5166.046142578125	0.2853322566068448	-9.844409237030455	-1.844408553561491	0.0001115577424492505	-1.115465866750055	-0.01115577424492505	0.1540041067761807	-0.4032586558044806	0.6921487603305785
5185.577392578125	0.386369999077317	-9.945073700298334	-1.878999969243897	-0.007227095986505457	-0.7289679608589457	0.7227095986505457	0.1663244353182751	-0.3991853360488798	0.71900826446281
5205.108642578125	0.2802992963161286	-10.06603656085779	-1.676643210537619	-0.003613547993252729	-0.3644839804294728	0.3613547993252729	0.1724845995893224	-0.395112016293279	0.7066115702479339
5224.639892578125	0.2891783467569267	-9.673165667881928	-1.972611558564221	0.362243888058331	1.111769101849907	0.007495252137915762	0.1765913757700205	-0.3747454175152749	0.6962809917355373
5244.171142578125	0.01484415724728143	-9.831867055823379	-1.828138574909381	0.007301467814804958	-0.01467595030775797	-0.7301467814804957	0.1765913757700205	-0.3991853360488798	0.7169421487603306
5263.702392578125	0.04559395161512916	-9.501924622311106	-1.853131720504305	0.3550167920718256	0.3828011409909618	0.7302048507884614	0.1848049281314169	-0.395112016293279	0.7148760330578513
5283.233642578125	0.3784246723883534	-9.697642689261098	-1.614155746278446	-0.7282500677665138	-1.10073436179588	0.3612386607093414	0.1724845995893224	-0.3869653767820774	0.7086776859504132
5302.764892578125	0.4939934907467504	-9.666942104658551	-1.799783024891677	0.007264281900655208	0.3571460052755938	-0.7264281900655207	0.1683778234086242	-0.3849287169042769	0.7128099173553719
5322.296142578125	0.3765114850387331	-9.82492795317081	-1.883716167957766	-0.00383666347815123	1.866447753070638	0.3836663478151229	0.1827515400410678	-0.3930753564154786	0.7045454545454546
5341.827392578125	0.04218396723765241	-9.543027183926492	-1.739465574588414	0.3549424202435261	1.126445052157665	0.7376420336184115	0.1642710472279261	-0.3910386965376782	0.6962809917355373
5361.358642578125	0.2866792162083088	-9.830640386759313	-2.222640540276957	-0.003687919821552229	0.3791599307372308	0.3687919821552229	0.1704312114989733	-0.3910386965376782	0.7148760330578513
5380.889892578125	0.5459610533097905	-9.9468059260965	-1.865368443659682	-0.3550911639001251	0.3608427701757418	-0.7227676679585114	0.1868583162217659	-0.3910386965376782	0.7045454545454546
5400.421142578125	0.2679731964502725	-9.703355333147746	-1.93243988167575	-0.362243888058331	-1.111769101849907	-0.007495252137915762	0.1848049281314169	-0.395112016293279	0.6921487603305785
5419.952392578125	0.2554357469513999	-9.620742441819047	-2.181191565046661	-0.007003980501606956	-2.959899694359057	0.7003980501606956	0.1786447638603696	-0.3869653767820774	0.7128099173553719
5439.483642578125	0.4299569177968221	-9.897647263245695	-1.665230593227401	-0.7283244395948133	-0.3570904506291769	0.3686758435392914	0.1745379876796715	-0.3910386965376782	0.7024793388429752
5459.014892578125	0.1244494460352623	-9.823094679115265	-1.814981534508742	-0.7137958757935028	0.3572015599220108	-1.08418053659175	0.1765913757700205	-0.3890020366598778	0.7107438016528926
5478.546142578125	0.155303337983551	-9.773118587385319	-1.8434445994517	-0.003725105735701979	0.7509818863205826	0.3725105735701979	0.1642710472279261	-0.3767820773930753	0.7231404958677686
5498.077392578125	0.3183800839247312	-9.573723772864337	-1.946002797491038	-0.365820250137434	-1.848075037862732	0.3501409557723821	0.1848049281314169	-0.395112016293279	0.7066115702479339
5517.608642578125	0.4818314234318922	-9.624207839757021	-2.061047447729739	-0.362243888058331	-1.111769101849907	-0.007495252137915762	0.1704312114989733	-0.4114052953156823	0.7107438016528926
5537.139892578125	0.2938248842111573	-9.684996620771726	-1.794162807038574	-0.7209114140375591	-1.48723226768699	-0.3726267121861294	0.1519507186858316	-0.4093686354378818	0.7024793388429752
5556.671142578125	0.3413115191070321	-9.852975942155393	-2.043717303567734	-1.086954779659892	-1.104375572049612	-0.000174207923897194	0.1601642710472279	-0.3849287169042769	0.6962809917355373
5576.202392578125	0.3544964240115265	-9.525379489569607	-1.816547467050881	-0.3658946219657335	-1.104431126696028	0.3575781386023321	0.1806981519507187	-0.3991853360488798	0.7004132231404959
5595.733642578125	0.6236627995467025	-9.498349028146567	-1.788759984890078	-0.0001115577424492505	1.115465866750055	0.01115577424492505	0.1560574948665298	-0.3788187372708757	0.7148760330578513
5615.264892578125	0.2415655329756688	-9.771893811004533	-2.052184432522292	-0.3517007313917708	2.956258484105325	-1.061810918793934	0.1724845995893224	-0.3849287169042769	0.7086776859504132
5634.796142578125	0.1702996985113258	-9.741603097481338	-2.009989950377525	-0.7174094237867555	-0.007282420507461989	-0.7228257372664771	0.1765913757700205	-0.3991853360488798	0.7086776859504132
5654.327392578125	0.134848952044926	-9.883065505505474	-1.828298401497533	-0.007189910072355707	-1.100789916442297	0.7189910072355706	0.1745379876796715	-0.4093686354378818	0.6942148760330579
5673.858642578125	0.25928578019165	-9.732830931071367	-1.976192673054998	-0.3657458783091345	-2.591718949029436	0.342703772942432	0.188911704312115	-0.3828920570264766	0.6942148760330579
5693.389892578125	0.3730715331759778	-9.846040204273102	-1.769051105865925	0	0	0	0.1663244353182751	-0.405295315682281	0.7024793388429752
5712.921142578125	0.1029887834857075	-9.893366960006286	-1.766292782856916	0	0	0	0.1704312114989733	-0.3971486761710794	0.6797520661157025
5732.452392578125	0.2526763724516795	-9.744967972907292	-1.755879081722647	-0.007338653728954708	0.3864979058911098	0.7338653728954707	0.1909650924024641	-0.3930753564154786	0.6838842975206612
5751.983642578125	0.3929699434008838	-9.786273051633714	-1.765664780029457	0.36239263171493	-0.3755187204834998	-0.007379113521984299	0.1765913757700205	-0.3890020366598778	0.7086776859504132
5771.514892578125	0.2243910094389693	-9.824113573614733	-1.813033647965641	-0.7210973436083078	0.3718775102297688	-0.3540337551112543	0.1683778234086242	-0.3991853360488798	0.7024793388429752
5791.046142578125	0.2138566497455524	-9.674186349915606	-1.79522165818508	0.3587047118933778	0.003641210253730994	0.3614128686332386	0.1478439425051335	-0.3991853360488798	0.7169421487603306
5810.577392578125	0.4486542627564882	-9.668268455042069	-1.621808758549605	-0.003687919821552229	0.3791599307372308	0.3687919821552229	0.1560574948665298	-0.3788187372708757	0.7045454545454546
5830.108642578125	0.367328816654982	-9.734563682614889	-1.910960555166066	0.358518782322629	1.86275098817049	0.3800058257081136	0.1745379876796715	-0.3930753564154786	0.7086776859504132
5849.639892578125	0.2755336775388178	-9.764244110929116	-1.851122584627258	0.7208370422092596	2.230876178853694	0.3800638950160794	0.1642710472279261	-0.3869653767820774	0.7252066115702479
5869.171142578125	0.09608995292738957	-9.642264248553477	-1.869665097579652	0.003613547993252729	0.3644839804294728	-0.3613547993252729	0.1704312114989733	-0.3991853360488798	0.7148760330578513
5888.702392578125	0.07996192552133567	-9.6908123107481	-1.998730850711189	-0.007227095986505457	-0.7289679608589457	0.7227095986505457	0.1663244353182751	-0.3930753564154786	0.6921487603305785
5908.233642578125	0.3957340496088061	-9.735379323959819	-1.857801653626867	-0.3657086923949848	-2.963540904612787	0.338985181527457	0.1601642710472279	-0.3971486761710794	0.7066115702479339
5927.764892578125	0.5094157050126928	-9.56862225537923	-1.64719016708976	-0.3622810739724808	-0.7399471462665556	-0.003776660722940747	0.1724845995893224	-0.395112016293279	0.71900826446281
5947.296142578125	0.426002786976131	-9.505592432211051	-1.86675956587103	0.724487776116662	2.223538203699815	0.01499050427583152	0.1601642710472279	-0.3971486761710794	0.7024793388429752
5966.827392578125	0.2460275338100266	-9.590451097401425	-2.200917793667555	-0.007524583299703459	2.245607683807869	0.7524583299703458	0.1745379876796715	-0.395112016293279	0.7066115702479339
5986.358642578125	0.3211583852572591	-9.742825455433488	-2.038612841908634	-0.003725105735701979	0.7509818863205826	0.3725105735701979	0.1745379876796715	-0.3930753564154786	0.6983471074380165
6005.889892578125	0.09873340057616434	-9.721409533813707	-1.957780019205478	-0.3624298176290798	0.7473406760668516	0.01109770493695932	0.188911704312115	-0.395112016293279	0.6859504132231405
6025.421142578125	0.3569750504912697	-9.494578067007822	-1.899168349708987	-0.724487776116662	-2.223538203699815	-0.01499050427583152	0.1642710472279261	-0.4012219959266802	0.7066115702479339
6044.952392578125	0.2655253260738415	-9.544146811236123	-1.850844202461382	-0.3658946219657335	-1.104431126696028	0.3575781386023321	0.1724845995893224	-0.3910386965376782	0.7128099173553719
6064.483642578125	0.4080916941960079	-9.698050352209957	-1.603056473200262	-0.3768840096020907	-0.7105952456510396	1.456516902238051	0.1806981519507187	-0.3828920570264766	0.731404958677686
6084.014892578125	0.5800656287927599	-9.609112113357009	-1.668854293091995	-0.0001115577424492505	1.115465866750055	0.01115577424492505	0.1642710472279261	-0.395112016293279	0.7231404958677686
6103.546142578125	0.4303788284448217	-9.547510845469509	-1.679294281494053	0.7242646606317635	4.454469937199926	0.03730205276568162	0.1663244353182751	-0.3910386965376782	0.7024793388429752
6123.077392578125	0.1981040045235131	-9.762613038537397	-1.936800150783768	-0.0002603013990482511	2.602753689083463	0.02603013990482511	0.1724845995893224	-0.3828920570264766	0.7004132231404959
6142.608642578125	0.1599151762443013	-9.691627426347676	-1.997172541476708	0.3588534555499768	-1.483646612079676	0.3465385029733385	0.1745379876796715	-0.405295315682281	0.6880165289256198
6162.139892578125	0.1970370043239927	-9.892958035268574	-1.901233477466423	-0.3620207725734325	-3.342700835350018	-0.02980680062776585	0.1724845995893224	-0.3828920570264766	0.7107438016528926
6181.671142578125	0.3583109694402626	-9.75414611988098	-1.943698981342086	0.3660433656223325	-0.3828566956373787	-0.3724525042622321	0.1642710472279261	-0.395112016293279	0.7107438016528926
6201.202392578125	0.2067811687476982	-9.796474088771578	-1.559372291589941	-0.3625041894573793	1.490984587233555	0.01853488776690934	0.1848049281314169	-0.3910386965376782	0.6921487603305785
6220.733642578125	0.2000416390321764	-9.791986536712928	-2.001387967739213	-0.01456574971546017	-0.3424700549678359	1.456574971546016	0.1806981519507187	-0.4073319755600814	0.6983471074380165
6240.264892578125	0.4345537723149331	-9.806160946951506	-1.818459077164434	0.007115538244056207	1.844433827609001	-0.7115538244056206	0.1683778234086242	-0.3869653767820774	0.7128099173553719
6259.796142578125	0.04533686213616121	-9.962007747909308	-1.844562071205374	-3.718591414975016e-05	0.3718219555833518	0.003718591414975016	0.1683778234086242	-0.4093686354378818	0.7024793388429752
6279.327392578125	0.3142784815317486	-9.785049957638067	-1.809282717724953	-0.007115538244056207	-1.844433827609001	0.7115538244056206	0.1683778234086242	-0.3849287169042769	0.7045454545454546
6298.858642578125	0.1696143894400891	-9.565158014081039	-1.653812981336303	0.3515519877351718	-1.468970661771918	1.076685284453834	0.1745379876796715	-0.3869653767820774	0.7148760330578513
6318.389892578125	0.5075025176630724	-9.695907519288941	-1.91675058876908	-0.003650733907402479	0.007337975153878983	0.3650733907402479	0.1704312114989733	-0.4073319755600814	0.7004132231404959
6337.921142578125	0.1739391707365929	-9.923759668128501	-1.79797235788643	-0.36239263171493	0.3755187204834998	0.007379113521984299	0.1745379876796715	-0.3727087576374745	0.6962809917355373
6357.452392578125	0.3908225364952712	-9.616967379866528	-1.694084549842368	-0.003687919821552229	0.3791599307372308	0.3687919821552229	0.1478439425051335	-0.4012219959266802	0.7004132231404959
6376.983642578125	0.3681245322509288	-9.844306401238867	-1.937484408364293	-0.003762291649851729	1.122803841903934	0.3762291649851729	0.1704312114989733	-0.395112016293279	0.6942148760330579
6396.514892578125	0.2529318846945801	-9.704885357282087	-1.764396156486002	-0.3550539779859753	-0.01097918540760998	-0.7264862593734864	0.1601642710472279	-0.4134419551934826	0.6983471074380165
6416.046142578125	0.176628358231319	-9.822890164171874	-1.887611941043967	-0.3696569136155852	0.01837271520790595	0.733807303587505	0.1745379876796715	-0.3910386965376782	0.6900826446280992
6435.577392578125	0.3762315256367894	-9.708351806710771	-1.541050854559645	-0.007115538244056207	-1.844433827609001	0.7115538244056206	0.1683778234086242	-0.3971486761710794	0.7107438016528926
6455.108642578125	0.349253691323861	-9.607074639805285	-1.641789710795366	0.3548308625010768	2.241910918907721	0.7487978078633365	0.1683778234086242	-0.3747454175152749	0.7024793388429752
6474.639892578125	0.3677791175521928	-9.82441808532479	-1.92597058507309	-0.0002231154848985009	2.230931733500111	0.02231154848985009	0.1478439425051335	-0.3869653767820774	0.6983471074380165
6494.171142578125	0.2483295098502336	-9.933040125148425	-1.944316995007785	0.003576362079102979	0.7363059360128246	-0.3576362079102978	0.1765913757700205	-0.415478615071283	0.7128099173553719
6513.702392578125	0.2356769221184488	-9.843797795181702	-1.855897403948295	0.3511801285936743	2.2492488940616	1.113871198603584	0.162217659137577	-0.4012219959266802	0.6983471074380165
6533.233642578125	0.1047466130827	-9.80279859510326	-1.824887102756667	-0.365968993794033	-0.3607872155293249	0.3650153214322821	0.1581108829568789	-0.3991853360488798	0.6983471074380165
6552.764892578125	0.4144905409209955	-9.755981391768877	-1.816351364033182	0	0	0	0.1724845995893224	-0.3767820773930753	0.7066115702479339
6572.296142578125	0.1299674064166695	-9.784643871925276	-1.665580213888983	-1.079653311845087	-1.11905152235737	-0.7303209894043929	0.1663244353182751	-0.3767820773930753	0.7066115702479339
6591.827392578125	0.2228287571143205	-9.83461870186637	-1.760958570477348	1.072277472201982	1.877371383831831	1.467904953714839	0.1560574948665298	-0.3890020366598778	0.7148760330578513
6611.358642578125	0.2209912770959299	-9.801879487072316	-2.033042569864329	-0.003613547993252729	-0.3644839804294728	0.3613547993252729	0.1683778234086242	-0.3767820773930753	0.7066115702479339
6630.889892578125	0.3609843845743159	-9.853281715654303	-2.032812819143861	-0.7247480775157102	0.3792154853836477	0.01103963562899358	0.1724845995893224	-0.4073319755600814	0.7128099173553719
6650.421142578125	0.1737893333102005	-9.823808115563034	-1.792977777006685	-1.079727683673386	-0.3754076111906658	-0.7228838065744428	0.1704312114989733	-0.4073319755600814	0.6983471074380165
6669.952392578125	0.1124277527303928	-9.733648359950507	-1.747591757679759	0.7136471321369039	1.130086262411396	1.09905490225165	0.1827515400410678	-0.3869653767820774	0.7066115702479339
6689.483642578125	0.7328469663047174	-9.629712814228142	-1.761565543490576	3.718591414975016e-05	-0.3718219555833518	-0.003718591414975016	0.1745379876796715	-0.4012219959266802	0.7004132231404959
6709.014892578125	0.5698758951800454	-9.689073460558451	-1.662529839334848	0.003539176164953228	1.108127891596177	-0.3539176164953228	0.1724845995893224	-0.4093686354378818	0.7045454545454546
6728.546142578125	0.2215772202949274	-9.77169003210464	-2.052574009830912	-7.437182829950031e-05	0.7436439111667036	0.007437182829950031	0.1581108829568789	-0.3910386965376782	0.7128099173553719
6748.077392578125	0.1983287606631016	-9.912540367385597	-1.944292022103386	-0.003725105735701979	0.7509818863205826	0.3725105735701979	0.1704312114989733	-0.395112016293279	0.7004132231404959
6767.608642578125	0.3935858540851598	-9.776073907179132	-1.78619513617199	-0.365820250137434	-1.848075037862732	0.3501409557723821	0.1663244353182751	-0.3788187372708757	0.7148760330578513
6787.139892578125	0.2522867951430593	-9.485093936237078	-1.742893171435308	-0.3622067021441813	-1.483591057433259	-0.01121384355289078	0.1765913757700205	-0.3991853360488798	0.7148760330578513
6806.671142578125	0.3830207382884308	-9.816156627953408	-1.767357942947691	-0.3622810739724808	-0.7399471462665556	-0.003776660722940747	0.1786447638603696	-0.395112016293279	0.7086776859504132
6826.202392578125	0.5971494612555904	-9.706921674194026	-1.904982041853011	-0.0001487436565990006	1.487287822333407	0.01487436565990006	0.1704312114989733	-0.3849287169042769	0.7252066115702479
6845.733642578125	0.1862471323876752	-9.783113427194651	-1.874904412922505	-3.718591414975016e-05	0.3718219555833518	0.003718591414975016	0.162217659137577	-0.3890020366598778	0.6983471074380165
6865.264892578125	0.2957916975870654	-9.944360684446849	-1.85972325290218	-0.3660433656223325	0.3828566956373787	0.3724525042622321	0.1724845995893224	-0.405295315682281	0.6983471074380165
6884.796142578125	0.196828020545077	-9.543025606690424	-1.894267351502567	-0.7318264298456169	-1.837040297808705	0.7188748686196392	0.1663244353182751	-0.3971486761710794	0.7169421487603306
6904.327392578125	0.3866412836808905	-9.704985984943178	-1.888042789363015	0.7138702476218023	-1.100845471088715	1.0767433537618	0.1519507186858316	-0.3910386965376782	0.7086776859504132
6923.858642578125	0.3937964151001427	-9.706005825784288	-1.793213836671422	1.075779462452786	3.357321231011359	1.117705928634491	0.1724845995893224	-0.3991853360488798	0.7045454545454546
6943.389892578125	0.3141286441053563	-9.685098405072601	-1.804288136845207	0.7278782086250163	4.818953917629399	-0.3240527465595912	0.1540041067761807	-0.4012219959266802	0.6962809917355373
6962.921142578125	-0.02697941154899567	-9.652056676400843	-1.767352948366811	-0.7175953533575042	1.851827357409297	-0.7042327801916021	0.1457905544147844	-0.3930753564154786	0.7086776859504132
6982.452392578125	0.1978185247953339	-9.782705343649507	-1.927284159844463	-0.7246737056874109	-0.3644284257830558	0.003602452799043552	0.1581108829568789	-0.3788187372708757	0.6983471074380165
7001.983642578125	0.3635126939901786	-9.925797562276509	-1.783756466339285	-0.3660805515364823	0.7546786512207306	0.3761710956772072	0.1498973305954825	-0.4012219959266802	0.7148760330578513
7021.514892578125	0.2665308140667376	-9.793821703451755	-1.884360468891253	-1.079802055501686	0.3682362999760378	-0.7154466237444929	0.162217659137577	-0.4012219959266802	0.7107438016528926
7041.046142578125	0.03272922563229422	-9.902750883712226	-1.757640854409807	-1.08322967392419	-1.855357458370194	-0.3726847814940951	0.1683778234086242	-0.4012219959266802	0.7210743801652892
7060.577392578125	0.3136176196195549	-9.765263636323011	-1.787253987318496	-0.3730101602097897	-2.94886495430503	1.069131963007953	0.1765913757700205	-0.3788187372708757	0.7148760330578513
7080.108642578125	0.4395110252744194	-9.744558101827939	-1.983700842480645	-0.3622810739724808	-0.7399471462665556	-0.003776660722940747	0.162217659137577	-0.3910386965376782	0.7004132231404959
7099.639892578125	0.4122824104267923	-9.756695353962003	-1.742747014226406	-1.083304045752489	-1.11171354720349	-0.3652475986641451	0.1540041067761807	-0.3890020366598778	0.6962809917355373
7119.171142578125	0.2677531720188859	-9.626759807713894	-1.591772400629527	-0.3587418978075275	0.3681807453296208	-0.3576942772182636	0.1930184804928131	-0.4012219959266802	0.6962809917355373
7138.702392578125	0.1664094457513598	-9.672860945873728	-1.880314858378659	-0.007375839643104458	0.7583198614744615	0.7375839643104457	0.1704312114989733	-0.405295315682281	0.7024793388429752
7158.233642578125	0.372681167249324	-9.796166422589385	-1.756038908310799	-7.437182829950031e-05	0.7436439111667036	0.007437182829950031	0.188911704312115	-0.3869653767820774	0.7066115702479339
7177.764892578125	0.04243869086251943	-9.712944823287785	-1.747956362083981	0.3659318078798833	0.7326091711126765	-0.3612967300173071	0.162217659137577	-0.395112016293279	0.7024793388429752
7197.296142578125	-0.002663951717649515	-9.380861344388707	-1.911201609411683	0.3622067021441813	1.483591057433259	0.01121384355289078	0.1745379876796715	-0.3869653767820774	0.7086776859504132
7216.827392578125	-0.007912204731550496	-9.599224946196536	-2.069593175614984	0.7137958757935028	-0.3572015599220108	1.08418053659175	0.1683778234086242	-0.4032586558044806	0.6838842975206612
7236.358642578125	0.4490099294896617	-9.624820122798342	-1.966997649655387	-0.7244505902025123	-2.595360159283167	-0.01870909569080654	0.1868583162217659	-0.4032586558044806	0.7066115702479339
7255.889892578125	0.4047810756907703	-9.945787452193319	-1.826035856359008	-0.36239263171493	0.3755187204834998	0.007379113521984299	0.1683778234086242	-0.405295315682281	0.6942148760330579
7275.421142578125	0.1875688562120626	-9.822686069824766	-1.918961873735418	-0.3623554458007803	0.003696764900147988	0.003660522107009284	0.1704312114989733	-0.4032586558044806	0.6921487603305785
7294.952392578125	0.1558143624693523	-9.692953356134909	-1.860478748978411	0.3585559682367788	1.490929032587138	0.3762872342931387	0.1663244353182751	-0.3971486761710794	0.7004132231404959
7314.483642578125	0.0382140640562884	-9.350977452621802	-1.94046880187628	-0.3587790837216773	0.7400027009129726	-0.3539756858032885	0.1416837782340863	-0.3890020366598778	0.7169421487603306
7334.014892578125	0.1185718758305134	-9.621661760148134	-1.952395861017112	-0.7209114140375591	-1.48723226768699	-0.3726267121861294	0.1704312114989733	-0.3869653767820774	0.6983471074380165
7353.546142578125	0.5948214608202732	-9.627674394334779	-1.827382027342439	-1.086731664174993	-3.335307305549722	-0.02248575641374729	0.1745379876796715	-0.3767820773930753	0.7004132231404959
7373.077392578125	0.4221117455981314	-9.646850535589937	-1.737058186604376	-0.7245249620308118	-1.851716248116463	-0.01127191286085651	0.1724845995893224	-0.3890020366598778	0.6921487603305785
7392.608642578125	0.5171354869440342	-9.876126192554763	-1.904516231467805	-0.3587418978075275	0.3681807453296208	-0.3576942772182636	0.1704312114989733	-0.3808553971486761	0.7107438016528926
7412.139892578125	0.3236724995485162	-9.595345891812647	-1.789083318283872	0.003613547993252729	0.3644839804294728	-0.3613547993252729	0.1601642710472279	-0.3849287169042769	0.6776859504132231
7431.671142578125	0.2517450145539459	-9.755269111960891	-1.72483381846486	-0.7210229717800084	-0.3717664009369348	-0.3614709379412043	0.1663244353182751	-0.405295315682281	0.7148760330578513
7451.202392578125	0.433397658277611	-9.666534757156906	-1.77992194258703	1.087103523316491	-0.3829122502837958	-0.01470015773600287	0.1683778234086242	-0.3991853360488798	0.7169421487603306
7470.733642578125	0.2581438612789335	-9.813200151519814	-1.93812870929778	-0.3585931541509285	-1.119107077003786	-0.3725686428781636	0.1540041067761807	-0.3788187372708757	0.7107438016528926
7490.264892578125	0.2890032735534577	-9.626555608217716	-1.633442451781922	-0.003650733907402479	0.007337975153878983	0.3650733907402479	0.1724845995893224	-0.3849287169042769	0.6983471074380165
7509.796142578125	0.4100695482243872	-9.684077512740782	-2.002318274146235	-0.7208742281234094	-1.859054223270342	-0.3763453036011044	0.1745379876796715	-0.3930753564154786	0.6859504132231405
7529.327392578125	0.3089001065422964	-9.986788965551325	-1.630003551409878	-0.3623554458007803	0.003696764900147988	0.003660522107009284	0.1683778234086242	-0.3849287169042769	0.6880165289256198
7548.858642578125	0.2455661922603449	-9.773933597835823	-1.852206408678163	0	0	0	0.1765913757700205	-0.3869653767820774	0.6942148760330579
7568.389892578125	0.4299521860886202	-9.824315459831345	-1.998406202954005	0.358816269635827	-1.111824656496325	0.3502570943883135	0.1765913757700205	-0.3930753564154786	0.7107438016528926
7587.921142578125	0.3160071322614963	-9.464491027235452	-1.866904408716543	-0.7208742281234094	-1.859054223270342	-0.3763453036011044	0.1765913757700205	-0.4012219959266802	0.7210743801652892
7607.452392578125	0.3024768126582658	-9.77219916390716	-2.082560421942193	-0.358816269635827	1.111824656496325	-0.3502570943883135	0.1704312114989733	-0.395112016293279	0.6983471074380165
7626.983642578125	0.1951451096612807	-9.683569747876184	-1.838170322042689	-0.0001115577424492505	1.115465866750055	0.01115577424492505	0.1663244353182751	-0.3930753564154786	0.7148760330578513
7646.514892578125	0.5315214571137684	-9.718141395533214	-1.71738190379228	-0.365968993794033	-0.3607872155293249	0.3650153214322821	0.1704312114989733	-0.3788187372708757	0.7045454545454546
7666.046142578125	0.3122201884639377	-9.885715472396662	-1.740672948797923	-0.7172606801301565	-1.494570242840869	-0.7377001029263772	0.162217659137577	-0.3828920570264766	0.7148760330578513
7685.577392578125	0.429381226632262	-9.864500070055568	-1.979374221075396	0.0183280413653119	-0.7803337869360985	-1.832804136531189	0.1806981519507187	-0.3828920570264766	0.7004132231404959
7705.108642578125	0.4476574495619622	-9.775257424641632	-1.921914985398737	-0.3733448334371375	0.3975326459451367	1.102599285742728	0.1683778234086242	-0.3971486761710794	0.7004132231404959
7724.639892578125	0.346409146076507	-9.744661042768598	-1.8803048692169	-0.3659318078798833	-0.7326091711126765	0.3612967300173071	0.1683778234086242	-0.4093686354378818	0.7045454545454546
7744.171142578125	0.4365671141548263	-9.675509966423274	-1.885570471827541	-0.3549796061576758	-0.7546230965743135	-0.7339234422034364	0.1601642710472279	-0.4073319755600814	0.7004132231404959
7763.702392578125	0.3762859402811108	-9.885000879309109	-1.876198009370359	-0.3550167920718256	-0.3828011409909618	-0.7302048507884614	0.1540041067761807	-0.3849287169042769	0.7293388429752067
7783.233642578125	0.3467143412555272	-9.80789569632738	-1.557144708517574	-0.0001487436565990006	1.487287822333407	0.01487436565990006	0.1827515400410678	-0.4012219959266802	0.7107438016528926
7802.764892578125	-0.04941638322420177	-9.702644630575826	-1.686120559193275	-0.3659318078798833	-0.7326091711126765	0.3612967300173071	0.1745379876796715	-0.4012219959266802	0.6942148760330579
7822.296142578125	0.2871500211743943	-9.793821493153613	-1.90500070581314	-0.01095220172220744	0.02201392546163695	1.095220172220744	0.1642710472279261	-0.3971486761710794	0.7024793388429752
7841.827392578125	0.4060586369052737	-9.745374374067296	-1.868621230175785	-0.01084064397975819	-1.093451941288418	1.084064397975818	0.1683778234086242	-0.3849287169042769	0.6756198347107438
7861.358642578125	0.2909361763539192	-9.5825973029789	-2.031205878463972	-3.718591414975016e-05	0.3718219555833518	0.003718591414975016	0.1683778234086242	-0.3991853360488798	0.7024793388429752
7880.889892578125	0.1844593353054042	-9.853691481584585	-1.815311176846805	-0.358667525979228	-0.3754631658370828	-0.3651314600482136	0.1704312114989733	-0.4032586558044806	0.6838842975206612
7900.421142578125	-0.0107464979444671	-9.673474701002046	-1.641783401851097	-0.3660433656223325	0.3828566956373787	0.3724525042622321	0.1724845995893224	-0.405295315682281	0.7128099173553719
7919.952392578125	0.204222891846557	-9.70396793163628	-1.807429728218567	-0.01456574971546017	-0.3424700549678359	1.456574971546016	0.1663244353182751	-0.3890020366598778	0.7086776859504132
7939.483642578125	0.41205686566917	-9.816768280100302	-1.735228855639	-0.3697312854438847	0.7620166263746095	0.741244486417455	0.1601642710472279	-0.3991853360488798	0.7107438016528926
7959.014892578125	0.3393139496278118	-9.783621822953673	-1.977131654260391	-0.00383666347815123	1.866447753070638	0.3836663478151229	0.1765913757700205	-0.3971486761710794	0.6962809917355373
7978.546142578125	0.2803552881965173	-9.822685123483126	-2.01184293988391	-0.01467730745790942	0.7729958117822195	1.467730745790941	0.1724845995893224	-0.3971486761710794	0.7252066115702479
7998.077392578125	0.3103535295783023	-9.622985692103017	-2.011784319276742	-0.7209485999517089	-1.115410312103638	-0.3689081207711543	0.1724845995893224	-0.3991853360488798	0.7045454545454546
8017.608642578125	0.2853030777396	-9.614418671530863	-1.84343592465333	-0.3660061797081828	0.01103474005402697	0.3687339128472572	0.188911704312115	-0.3991853360488798	0.7169421487603306
8037.139892578125	0.4800136588643428	-9.674795583633863	-2.000455295478091	-0.7319008016739164	-1.093396386642001	0.7263120514495892	0.1642710472279261	-0.3849287169042769	0.71900826446281
8056.671142578125	0.2920378757469199	-9.545574420175162	-1.734595858230662	-0.3660805515364823	0.7546786512207306	0.3761710956772072	0.1642710472279261	-0.395112016293279	0.7024793388429752
8076.202392578125	0.3862808852395152	-9.675102513772558	-1.876029507983837	0.3514032440785728	0.01831716056148896	1.091559650113734	0.162217659137577	-0.4032586558044806	0.6942148760330579
8095.733642578125	0.3295595331696689	-9.943442417608473	-1.985317772322293	-0.7247108916015605	0.007393529800295976	0.007321044214018567	0.1704312114989733	-0.395112016293279	0.7086776859504132
8115.264892578125	0.2042820381990803	-9.953948807648965	-1.809401273302677	-0.7283988114231127	0.3865534605375267	0.3761130263692414	0.1704312114989733	-0.395112016293279	0.7024793388429752
8134.796142578125	0.4998063942727405	-9.755062599185147	-1.993546475758013	-0.365968993794033	-0.3607872155293249	0.3650153214322821	0.1765913757700205	-0.3910386965376782	0.7045454545454546
8154.327392578125	0.4893059451547703	-9.908457744399959	-1.643531505159008	-0.3589278273782763	2.22729052324638	-0.3391013201433885	0.1601642710472279	-0.4012219959266802	0.7169421487603306
8173.858642578125	0.03477332357549952	-9.58208995871059	-1.825777452516651	0.35837003866603	3.350038810503897	0.3948801913680137	0.1827515400410678	-0.3869653767820774	0.7148760330578513
8193.389892578125	0.07901479526292919	-9.901118549531652	-1.96715984209764	-0.0001859295707487508	1.859109777916759	0.01859295707487508	0.1663244353182751	-0.3788187372708757	0.7024793388429752
8212.921142578125	0.0738879894262094	-9.779442883418859	-2.129599647540314	0.0001115577424492505	-1.115465866750055	-0.01115577424492505	0.1683778234086242	-0.4012219959266802	0.7293388429752067
8232.452392578125	0.5237204475249618	-9.707330388633597	-1.790681584165391	0.7175953533575042	-1.851827357409297	0.7042327801916021	0.1642710472279261	-0.3971486761710794	0.7148760330578513
8251.983642578125	0.3357699001846156	-9.524767732273641	-1.858996672820516	-0.3550911639001251	0.3608427701757418	-0.7227676679585114	0.1519507186858316	-0.3849287169042769	0.7252066115702479
8271.514892578125	0.02082819088657228	-9.683265551613342	-1.694273029552409	-0.7247108916015605	0.007393529800295976	0.007321044214018567	0.1848049281314169	-0.3991853360488798	0.6921487603305785
8291.046142578125	0.2926577295213641	-9.818707334121427	-1.421924317378802	0.3553514652991733	-2.963596459259204	0.6967375280536863	0.1745379876796715	-0.3910386965376782	0.7024793388429752
8310.577392578125	0.7622884433547495	-9.690193403315297	-1.742948111824986	-0.724487776116662	-2.223538203699815	-0.01499050427583152	0.1704312114989733	-0.3828920570264766	0.7024793388429752
8330.108642578125	0.4838037571340359	-9.746903451859996	-1.793458571134529	0.007078352329906457	2.216255783192353	-0.7078352329906457	0.162217659137577	-0.395112016293279	0.6983471074380165
8349.639892578125	0.2381397762375191	-10.01300147234987	-1.937992541250638	-0.3479756256560689	2.205276597784743	-1.434321492364132	0.1868583162217659	-0.3849287169042769	0.6859504132231405
8369.171142578125	-0.361803758711272	-9.670316548649978	-1.606541376290935	2.167017136560625	-1.866614417009889	0.6895906917635649	0.1724845995893224	-0.3971486761710794	0.6942148760330579
8388.702392578125	0.2131358528628018	-9.614419407574362	-1.771195095426725	1.438395209652614	0.7508707770277486	1.088015266622657	0.1765913757700205	-0.395112016293279	0.6921487603305785
8408.233642578125	0.185405676945777	-9.853385497787531	-1.846855898192566	-0.007041166415756707	-2.588077738775705	0.7041166415756707	0.1683778234086242	-0.405295315682281	0.6962809917355373
8427.764892578125	-0.01116683135639937	-9.603610608805237	-1.627772288120021	0.7172606801301565	1.494570242840869	0.7377001029263772	0.1663244353182751	-0.395112016293279	0.6880165289256198
8447.296142578125	0.5399021009573035	-10.0454316540238	-0.996736698576781	2.880775826439979	-1.851994021348548	1.77748981977029	0.1827515400410678	-0.3971486761710794	0.6942148760330579
8466.827392578125	0.06977219190862126	-9.770773657949546	-0.9924063969540416	2.880441153212631	1.494403578901618	1.810957142505065	0.1724845995893224	-0.3930753564154786	0.6818181818181819
8486.358642578125	0.4936275719791395	-9.773727085060077	-1.120919065971316	3.971121038608224	1.847797264630647	1.438620776858764	0.162217659137577	-0.4012219959266802	0.6838842975206612
8505.889892578125	0.3769578428457755	-9.631450297479866	-1.231928094859183	4.713602182862851	6.637399281644529	-0.3457255326618183	0.1848049281314169	-0.395112016293279	0.6611570247933884
8525.421142578125	-0.06486856497542272	-9.780974169342054	-0.8377145008192427	6.529402004915652	2.893357926156393	-0.7662874480868627	0.1663244353182751	-0.3991853360488798	0.6776859504132231
8544.952392578125	0.4523134504325965	-9.933751984360125	-1.077115014419881	9.42492951064184	-0.4752758181410784	-0.4639655569374643	0.1765913757700205	-0.4032586558044806	0.6590909090909091
8564.483642578125	-0.03815255184966419	-10.26900265843139	-1.061581605011194	11.21830432645213	1.030218055460984	1.357973151888629	0.1745379876796715	-0.4358452138492871	0.6776859504132231
8584.014892578125	0.3297551104420126	-9.863379180957081	-0.9918370147337507	12.30876109636283	3.614543474690123	1.007948334732178	0.1930184804928131	-0.4297352342158859	0.6652892561983471
8603.546142578125	0.2593449265441733	-9.982811807084051	-0.9781642181391085	13.76913508128815	3.577742489627894	-0.1019139259166026	0.1868583162217659	-0.4297352342158859	0.6549586776859504
8623.077392578125	0.2299239535630157	-9.79565792168129	-0.6641317854338569	14.8597034089413	5.046602042106978	-0.4630945173179782	0.1909650924024641	-0.4439918533604887	0.640495867768595
8642.608642578125	0.4021376280419955	-9.866642166933088	-0.7379209347331829	16.67192686891499	0.566254750606017	-0.5260202248327248	0.1991786447638604	-0.4338085539714867	0.6136363636363636
8662.139892578125	0.5223726993054643	-9.931099493891235	-0.4124233101821366	18.49826984763436	0.8902409810731132	-2.000897806913787	0.1930184804928131	-0.4358452138492871	0.6115702479338843
8681.671142578125	0.8702762765557266	-9.725277337246983	-0.3425425518575503	22.4982992701886	5.653910089139542	-3.453115424657206	0.2094455852156057	-0.4684317718940936	0.597107438016529
8701.202392578125	0.16052950969251	-10.10142879186609	-0.01765032308366477	25.76970676583484	13.03506439124361	-4.506908467541533	0.2073921971252567	-0.4663951120162932	0.5785123966942149
8720.733642578125	0.03887650320454938	-10.28409659729719	0.3707832265150205	30.83173080532355	13.00532360810318	-3.462935604818919	0.2258726899383984	-0.4908350305498981	0.5764462809917356
8740.264892578125	0.4780586747589392	-10.26542769516128	0.0647108413686939	34.81365530199739	16.31839476960559	-3.104660634520998	0.2238193018480493	-0.5030549898167006	0.5454545454545454
8759.796142578125	0.4959390114357502	-10.26297971963577	-0.1979670478583368	39.50140486019522	25.98173552199409	-0.8651237006812815	0.2525667351129364	-0.5336048879837066	0.5537190082644629
8779.327392578125	-0.02161917477431724	-10.28032353317703	0.05397249247724114	41.64599699051333	29.3646563340744	2.066967615333421	0.215605749486653	-0.5336048879837066	0.5392561983471075
8798.858642578125	-0.4396853098598548	-9.998831583521355	0.3228436619951562	43.81036741284861	17.46618709146789	3.021229729632908	0.2484599589322382	-0.5621181262729124	0.5061983471074381
8818.389892578125	-0.062490881603986	-9.963538718385291	0.4163627201328663	45.6262416067297	12.97850182481305	2.593230631377914	0.2320328542094456	-0.5967413441955193	0.5309917355371901
8837.921142578125	0.103213539625296	-10.04329428885449	0.2262153458234657	49.6229549686039	14.40311130778319	1.472619081639968	0.2525667351129364	-0.5987780040733197	0.5082644628099173
8857.452392578125	-0.5443002237309362	-10.45932373900634	0.476674124364538	48.16280409916346	12.20898055934531	2.560169793798899	0.2648870636550308	-0.6048879837067209	0.5
8876.983642578125	-0.1613772740786773	-10.31551198528544	0.7125758026225755	48.51174655858743	0.336333116393421	3.897807909373681	0.2628336755646817	-0.6537678207739307	0.4958677685950413
8896.514892578125	0.2262434731999991	-9.866847943665334	0.4585508933333649	48.14275899142654	-6.338089368899005	4.564680567491635	0.2833675564681725	-0.6659877800407331	0.4834710743801653
8916.046142578125	0.395180439749188	-10.48889165781443	0.493985341693736	49.94328653139503	-3.359983623271294	5.671346860497132	0.2731006160164271	-0.6782077393075355	0.493801652892562
8935.577392578125	1.235576767628176	-10.24716351180022	0.4807744123941313	54.28682275558666	7.385829884998011	6.100333136987544	0.2628336755646817	-0.6965376782077393	0.475206611570248
8955.108642578125	0.2836588091394521	-10.13161698504491	0.878039695351596	54.61509446105387	19.71829943073338	9.505046648236942	0.2792607802874744	-0.7087576374745417	0.5020661157024794
8974.639892578125	-0.6172663186758157	-9.856249443038514	1.242210622527189	53.86952037160409	9.358706055123102	11.59868747727315	0.2813141683778234	-0.7393075356415478	0.487603305785124
8994.171142578125	-0.4590277443710417	-10.00841897067997	1.300924812368054	53.13925575015276	-8.094856377186378	12.16138150646383	0.2833675564681725	-0.7515274949083502	0.4979338842975207
9013.702392578125	0.2982442996716984	-10.17690100977282	1.391856677610056	54.57422334138287	-9.567579358504862	13.59215861533689	0.2895277207392197	-0.7718940936863543	0.5103305785123967
9033.233642578125	0.3607217747691124	-10.45003329282465	1.642607507696255	57.46151973144051	-3.625988262910779	14.71759207334116	0.3039014373716633	-0.7718940936863543	0.518595041322314
9052.764892578125	0.4261597219648261	-10.38220835656471	1.794675934505798	60.3484070764425	6.405644344100173	15.88393003691015	0.2854209445585216	-0.7841140529531567	0.5227272727272727
9072.296142578125	0.05593036818210138	-10.36191584762112	2.135654393929954	60.71743182951754	12.70824487380925	15.21333878737722	0.2854209445585216	-0.7922606924643584	0.5475206611570248
9091.827392578125	-0.4424194485824985	-10.06971562170834	2.413981619416617	60.71769213091658	10.10549118472578	15.1873086474724	0.2792607802874744	-0.7942973523421588	0.5351239669421488
9111.358642578125	-0.08315109684939209	-10.21688552131464	2.77170322831307	62.90300012292838	7.830364936363149	14.04781379411975	0.271047227926078	-0.8024439918533605	0.5826446280991736
9130.889892578125	-0.3014098124587454	-10.09745583936166	3.046993748624847	64.34143251849514	8.209413757807546	15.13211046932743	0.2731006160164271	-0.8065173116089612	0.5785123966942149
9150.421142578125	-0.5772904819323665	-10.0666572558248	3.243016064412218	65.05954847465074	1.152079022231324	15.78428296970938	0.271047227926078	-0.8167006109979633	0.609504132231405
9169.952392578125	-0.5759632377817437	-9.969561446882762	3.532107926058122	66.12899330305663	-5.143294641616706	17.53545230303502	0.2669404517453799	-0.8309572301425661	0.628099173553719
9189.483642578125	-0.3539388710617402	-10.00444023497663	3.79796236872467	66.84681177189901	-9.226053732526113	18.21737353473677	0.2505133470225873	-0.8187372708757636	0.6466942148760331
9209.014892578125	-0.4167877852530005	-9.974761383898469	3.892926175100016	67.57159703532888	-9.977091173493113	18.2026153076928	0.2648870636550308	-0.8187372708757636	0.6528925619834711
9228.546142578125	-0.4041604332982925	-10.11734520676645	4.13868110994308	69.39004357160704	-3.68927770338463	17.51738196973184	0.2628336755646817	-0.8411405295315681	0.6838842975206612
9248.077392578125	-0.2736338966957693	-9.678474959931632	4.121129889858977	72.29898406371005	4.81103923036964	16.47840522319944	0.2587268993839836	-0.8167006109979633	0.6921487603305785
9267.608642578125	-0.8896770688014032	-9.824328918912453	4.32256896004677	74.46890821589507	10.37352594987291	16.87729435252226	0.2402464065708419	-0.8146639511201629	0.7210743801652892
9287.139892578125	-1.193655410195727	-9.225948582629952	4.788513673190903	74.84273646621617	5.142307881344198	15.72635337838486	0.2464065708418891	-0.8126272912423624	0.7417355371900827
9306.671142578125	-1.223757749157953	-9.145681672227738	4.79192497193177	75.20550095707259	1.04856960502718	15.68178835071312	0.2197125256673511	-0.8024439918533605	0.7623966942148761
9326.202392578125	-1.001783853992103	-9.287243446124114	4.726128466403425	76.28157790683858	1.431315191371724	16.76974554802781	0.2402464065708419	-0.8065173116089612	0.7975206611570248
9345.733642578125	-1.13787093634985	-9.104578269419784	4.59569787832833	77.3462936098267	5.926116214594776	18.99382742312797	0.242299794661191	-0.7983706720977596	0.8326446280991736
9365.264892578125	-1.356534213010463	-8.715279395540049	4.88447376701542	77.33880621244114	7.799901942819294	19.74256716168334	0.2114989733059548	-0.7881873727087576	0.8450413223140496
9384.796142578125	-1.491100839799344	-8.985455938201788	5.036694659978134	76.23732286897994	5.981234360218494	21.19524933389049	0.2114989733059548	-0.7596741344195519	0.871900826446281
9404.327392578125	-1.583735857121339	-8.665407927135901	5.124528570711305	75.87191166389816	0.04311781093889216	21.50448578409814	0.2012320328542095	-0.7535641547861507	0.878099173553719
9423.858642578125	-1.905374510761088	-8.146071091812752	5.512483692036246	74.77802727556497	-4.764801366636479	22.19727244350499	0.1991786447638604	-0.7291242362525457	0.9111570247933884
9443.389892578125	-1.023485833659953	-8.284260419550053	5.449527788665088	74.06441732934219	-6.266709584631228	21.09449894983837	0.1868583162217659	-0.7169042769857433	0.9173553719008265
9462.921142578125	-1.123315413302882	-7.796538650301265	5.777180443429405	72.62199952664069	-3.292022830671579	20.40874298810571	0.1848049281314169	-0.7087576374745417	0.9400826446280992
9482.452392578125	-1.256919926090718	-7.866404109435998	5.897330869690596	71.17231744203852	-0.6744820819875246	20.44941521643857	0.1704312114989733	-0.6945010183299388	0.9648760330578513
9501.983642578125	-1.237832215204398	-7.686899082916089	5.927740506813265	69.7227469151788	0.8275927999464747	20.47893167052651	0.1786447638603696	-0.6680244399185336	1.004132231404959
9521.514892578125	-1.546143224075563	-7.496586309117765	6.204774135852074	69.7227469151788	0.8275927999464747	20.47893167052651	0.1498973305954825	-0.6598778004073319	1.020661157024793
9541.046142578125	-1.557489071725599	-7.43692146652461	6.249635724186626	68.27716179545382	-1.024067893523571	20.10990741113942	0.1560574948665298	-0.6395112016293278	1.035123966942149
9560.577392578125	-1.570887692117211	-7.341253687117898	6.696256403907023	66.47305789340624	-4.738479575164107	19.36087732604422	0.162217659137577	-0.6109979633401221	1.047520661157025
9580.108642578125	-1.268973952734967	-7.053634911384306	6.632465091165558	66.47290914974964	-3.2511917528307	19.37575169170412	0.162217659137577	-0.6028513238289205	1.06198347107438
9599.639892578125	-1.36680675151671	-6.845267516323736	6.893558383890321	65.75155150474228	-0.2765605535174688	19.04774807649769	0.1724845995893224	-0.5947046843177188	1.084710743801653
9619.171142578125	-1.238804581239881	-6.617213481267561	6.960152707996034	63.94703855763902	0.099069276258865	18.33962249696722	0.1540041067761807	-0.5784114052953157	1.076446280991736
9638.702392578125	-1.303862414543378	-6.798248847369026	7.128747151445944	63.94703855763902	0.099069276258865	18.33962249696722	0.1273100616016427	-0.5213849287169042	1.113636363636364
9658.233642578125	-1.752787173285407	-6.493401186028948	7.092905776180213	62.14297184150558	-3.987164360965022	17.58687382045705	0.1437371663244353	-0.5213849287169042	1.117768595041322
9677.764892578125	-1.428461698005033	-6.208535949021628	7.282056600167765	61.42589709094617	-7.340844381722651	16.8305807604558	0.1232032854209446	-0.4887983706720977	1.132231404958678
9697.296142578125	-1.556582160986908	-5.936628232052434	7.219405366230271	59.62496050592203	-6.228908615933492	15.76481897301502	0.1396303901437372	-0.4969450101832993	1.144628099173554
9716.827392578125	-1.544088085479886	-5.569255147638497	7.469602849329529	57.82048474473293	-6.22510074174051	15.05297480206957	0.1273100616016427	-0.4276985743380855	1.15495867768595
9736.358642578125	-1.531099546465769	-5.531722186690599	7.703318215525628	56.73714351306629	-6.964992333360649	14.6914457948204	0.1129363449691992	-0.4358452138492871	1.161157024793388
9755.889892578125	-1.250275819157267	-5.280922514860849	7.342527305242233	54.56677312991146	-8.065615585863695	14.33717976247729	0.1314168377823409	-0.4236252545824847	1.181818181818182
9775.421142578125	-1.521498910524187	-4.988617981069488	7.383297017472883	53.128415106173	-9.188308318474796	13.24544590443965	0.1560574948665298	-0.3930753564154786	1.18801652892562
9794.952392578125	-1.459385776958316	-4.948534734549856	7.312859231943867	50.96169545692558	-10.29626954613172	12.52610648135629	0.1314168377823409	-0.3747454175152749	1.192148760330578
9814.483642578125	-1.390592260029447	-4.662958164076188	7.686408667648233	50.96132359778408	-6.578049990298203	12.56329239550604	0.1601642710472279	-0.3564154786150712	1.214876033057851
9834.014892578125	-1.734794064229785	-4.460916747434297	7.826468807659478	49.52263090081826	-4.354345122659137	11.50502586020318	0.1334702258726899	-0.3197556008146639	1.216942148760331
9853.546142578125	-1.488831197098517	-4.604722087061853	7.961039903283884	47.00089445949901	-5.845107491307025	10.05548158633136	0.1314168377823409	-0.3116089613034623	1.214876033057851
9873.077392578125	-1.552659574887563	-4.062026595880313	7.755319162918759	46.28348503571225	-5.852389911814487	9.332655849064878	0.1232032854209446	-0.295315682281059	1.233471074380165
9892.608642578125	-1.58128404365474	-3.774615174115032	8.042801455157996	44.82668741286603	-5.079282990739434	10.08488190180336	0.1314168377823409	-0.2729124236252545	1.21900826446281
9912.139892578125	-1.579462335997022	-4.007359488639038	8.315411199900739	43.02236039533354	-6.562762938879859	9.358163365198012	0.1375770020533881	-0.2586558044806517	1.241735537190083
9931.671142578125	-1.705149123727072	-3.67466488333842	8.171637457569064	41.21792182005859	-6.930777020270228	8.642600602837588	0.1190965092402464	-0.2403258655804481	1.241735537190083
9951.202392578125	-1.656358903221584	-3.378889378708312	8.545296774052783	40.50423750200753	-7.689041327098273	7.547264292000913	0.1314168377823409	-0.2219959266802444	1.25
9970.733642578125	-1.649598869437187	-3.256703634451357	8.319962314572898	40.49656417505123	-3.956145820956997	8.314596987631159	0.1375770020533881	-0.2097759674134419	1.233471074380165
9990.264892578125	-1.626165084567455	-3.09912671067681	8.538836152248495	39.05440667374877	-3.584212756080811	7.602810885993675	0.1416837782340863	-0.2036659877800407	1.247933884297521
10009.79614257812	-1.707891148630052	-3.178884804723717	8.596371621001738	39.06148502607867	-1.367956972888458	6.89497565300303	0.1375770020533881	-0.1812627291242362	1.252066115702479
10029.32739257812	-1.652997813162193	-3.024469292922442	9.099927105406422	37.25332134506802	-0.9849891679582458	6.551923464212803	0.1334702258726899	-0.1771894093686354	1.256198347107438
10048.85864257812	-1.821701348773423	-2.90901676943674	8.72337829244743	36.87982776797428	0.8998313003202982	7.669397115615431	0.1314168377823409	-0.1446028513238289	1.278925619834711
10068.38989257812	-1.959621179441359	-2.766944181352706	8.654039314711959	35.42690399452036	-0.565331487258638	8.034238229123815	0.1416837782340863	-0.1486761710794297	1.256198347107438
10087.92114257812	-1.848237556987511	-2.540930143425962	8.941251899583689	35.43074065799851	-2.431779240329276	7.650571881308693	0.1334702258726899	-0.109979633401222	1.278925619834711
10107.45239257812	-1.831523586382459	-2.462192626263662	9.05078621274864	35.44146974423582	-0.2228614322908022	6.577663257577799	0.1273100616016427	-0.1059063136456212	1.293388429752066
10126.98364257812	-1.848236768369477	-2.330929888439464	8.9412256123159	36.51721202077446	3.506281754303909	7.699087777627265	0.1314168377823409	-0.09368635437881873	1.28099173553719
10146.51489257812	-1.723780224771912	-2.264022272676252	9.126007492397065	36.15109428332382	4.632782361107991	8.078977464719447	0.1232032854209446	-0.1018329938900204	1.28305785123967
10166.04614257812	-1.795346522707074	-2.24382870900862	9.178217423569111	37.22348331326826	5.394687878189767	9.535726644189362	0.135523613963039	-0.04887983706720977	1.274793388429752
10185.57739257812	-1.79865477535821	-1.861565044032488	8.955159178607	36.49530761733004	3.550309605227183	9.889528122068752	0.1252566735112936	-0.04073319755600814	1.276859504132231
10205.10864257812	-2.015952954202585	-1.961824788525503	9.198431806752831	35.75625409149792	0.9843013465595321	11.33111258933894	0.1149897330595483	-0.03054989816700611	1.289256198347108
10224.63989257812	-1.712968271530652	-1.827193074461578	9.432275717688412	36.11141962722634	-0.1201853347829134	12.0464430744675	0.1396303901437372	-0.01221995926680244	1.289256198347108
10244.17114257812	-1.734562210527893	-1.387508448070685	9.485407017596433	34.67313597531618	-1.986521978560717	10.94727203359992	0.1149897330595483	0.006109979633401222	1.291322314049587
10263.70239257812	-1.797822783332716	-1.644629366610911	9.260759444423853	35.39795842466019	-3.109381375111069	10.92879521514097	0.1190965092402464	0.0285132382892057	1.28305785123967
10283.23364257812	-1.665083384527787	-1.278376960997318	9.502779484259579	33.95218737536447	-3.101932290664356	10.57836391282876	0.1026694045174538	0.02443991853360489	1.295454545454545
10302.76489257812	-1.619054115758087	-1.526827497428448	9.30180385860289	33.58975755773539	-2.354591614597505	10.58946161776572	0.1211498973305955	0.05295315682281058	1.305785123966942
10322.29614257812	-1.932206450737792	-1.194746752405219	9.40688169125972	32.51759164327586	-5.34742886517939	9.110400889805959	0.1108829568788501	0.05906313645621181	1.28305785123967
10341.82739257812	-1.777952763357021	-1.144871393485437	9.265092111900692	32.15531056930337	-6.087376011445945	9.106624229083017	0.1273100616016427	0.07331975560081466	1.295454545454545
10361.35864257812	-1.659660058310418	-1.106623418853702	9.322001943680579	32.15523619747508	-5.343732100279242	9.114061411912967	0.1252566735112936	0.07535641547861506	1.293388429752066
10380.88989257812	-1.421687469096031	-0.9730122816743834	8.72291563653436	31.78170543446719	-3.087089676417347	10.23525365473057	0.1190965092402464	0.1120162932790224	1.301652892561983
10400.42114257812	-1.833199399703953	-0.7127344725709447	9.106646656798425	29.62202695163552	-1.606973165298567	8.811797590071535	0.1457905544147844	0.109979633401222	1.289256198347108
10419.95239257812	-1.699639838144035	-0.6128835476665713	8.987994604801159	29.61461392607826	-0.4768313482407543	9.553100145796956	0.135523613963039	0.1303462321792261	1.287190082644628
10439.48364257812	-1.647871007325473	-0.4794782923685696	8.59570024418243	28.89720450229151	-0.4841137687482163	8.830274408530478	0.1232032854209446	0.1466395112016293	1.301652892561983
10459.01489257812	-1.660463660086701	-0.4302165834280332	8.682122002890022	26.00197448387852	-0.09005566911755958	8.49820378606128	0.1108829568788501	0.1384928716904277	1.305785123966942
10478.54614257812	-1.521405853596216	-0.2085878926627767	8.380195119873884	23.11426904876523	-1.941605253294771	7.413674833621736	0.1314168377823409	0.164969450101833	1.301652892561983
10498.07739257812	-1.800806913972025	-0.2855942355176213	8.360230465734151	20.58143166206717	-1.923065874147615	7.074225097630553	0.1416837782340863	0.1955193482688391	1.28305785123967
10517.60864257812	-1.676199744330034	-0.1086379173333775	8.539991477667783	16.59958153722164	-5.979780946816735	6.708512944502682	0.1149897330595483	0.1995926680244399	1.28305785123967
10537.13989257812	-1.795949026884778	-0.01735685202607802	8.531634229492578	14.78463699119428	-10.78764456974569	7.043547257383301	0.135523613963039	0.1975560081466395	1.297520661157025
10556.67114257812	-1.531379505867713	-0.08181270689722704	8.712650195590415	11.53088819045867	-12.25633745828552	6.331470809205989	0.1314168377823409	0.2016293279022403	1.270661157024793
10576.20239257812	-1.446237148483369	0.3857166553237106	8.874571616112307	9.356681143825684	-11.49051295771793	6.360871124677995	0.1293634496919918	0.2057026476578411	1.287190082644628
10595.73364257812	-1.137566529788863	-0.04447984463173247	8.585550992962109	8.280567008145551	-11.50143658847912	5.276632518778279	0.1519507186858316	0.2118126272912423	1.272727272727273
10615.26489257812	-1.036087161219551	0.1216651512056787	8.869572040651683	7.562636981560699	-6.303211630819662	4.605867061321452	0.1581108829568789	0.2077393075356415	1.289256198347108
10634.79614257812	-1.659540188369304	0.1467486724272585	8.98467294564345	6.47139930745286	-1.079275982798414	5.033982298192378	0.1663244353182751	0.2260692464358452	1.28099173553719
10654.32739257812	-1.610560699535741	0.1759187071501105	9.018689984524684	4.304679658205432	-2.187237210455339	4.314642875109013	0.1540041067761807	0.2138492871690428	1.289256198347108
10673.85864257812	-1.677825086097374	0.4141698888285158	9.260836203245793	3.210534968473185	-4.392402698947247	5.033459674420686	0.1519507186858316	0.2219959266802444	1.28099173553719
10693.38989257812	-1.611652146894304	0.2022324725041751	9.388404896476796	1.769046813625414	-10.71326483457139	4.254738927313652	0.162217659137577	0.2342158859470468	1.28305785123967
10712.92114257812	-1.218139634286273	0.229468184914105	9.271321142875768	1.410490845388636	-12.20419386715853	3.878451693020514	0.1601642710472279	0.2362525458248472	1.278925619834711
10732.45239257812	-0.9218794975872232	0.3585922957801312	9.062649919574104	0.3341535942236037	-9.984185764419616	2.816524635610648	0.1519507186858316	0.2077393075356415	1.278925619834711
10751.98364257812	-1.238698906423373	0.1894873535897761	9.289963547445758	0.6886497834973327	-4.395877245261728	3.59878976620876	0.1601642710472279	0.2138492871690428	1.274793388429752
10771.51489257812	-1.355143090799115	0.3918370673082863	9.171436359970484	-0.3950633073108036	-1.417549281048348	3.27444667310934	0.1909650924024641	0.2219959266802444	1.262396694214876
10791.04614257812	-1.151274288449664	0.3977546467346088	9.375809614988789	-0.7500800993826292	-1.80035042203931	2.544241822320878	0.1786447638603696	0.2097759674134419	1.260330578512397
10810.57739257812	-0.9321236458442591	0.4552800211770229	9.404121528141966	-2.188512494949393	-2.179399243483707	1.459945147113197	0.1827515400410678	0.2179226069246436	1.28305785123967
10830.10864257812	-1.148751499360037	0.1885703485402549	9.291716645334548	-2.54736595049937	-0.6957526314040308	1.113406644139858	0.162217659137577	0.2260692464358452	1.291322314049587
10849.63989257812	-1.301263129504488	0.02925825479354899	9.375437650149587	-3.282954671994839	-1.409989087308801	2.208510677744671	0.1704312114989733	0.2321792260692464	1.274793388429752
10869.17114257812	-1.390157731492909	0.3805156668172927	9.338591049763638	-3.261013082636274	-1.825838893815427	0.01435174188820847	0.1745379876796715	0.1995926680244399	1.287190082644628
10888.70239257812	-1.143894400890823	0.2468074770453006	9.463146696360765	-3.619792166357951	-1.085836192902454	-0.3396239439150801	0.1683778234086242	0.2138492871690428	1.272727272727273
10908.23364257812	-1.352675504971843	0.1493015867257709	9.422516832394747	-3.612527884457296	-0.7286901876268607	-1.066052133980601	0.1868583162217659	0.2342158859470468	1.291322314049587
10927.76489257812	-0.8692699999447968	0.3522693666845157	9.642333331493225	-3.975106445742974	1.505938310773398	-1.040080063383741	0.1827515400410678	0.2158859470468432	1.291322314049587
10947.29614257812	-1.567990309461603	0.1996831332740818	9.599676982053419	-3.253971916220517	0.7622388449602776	-0.6897648996874621	0.1724845995893224	0.2057026476578411	1.276859504132231
10966.82739257812	-1.303576146197166	0.09851037939624981	9.452538206572184	-2.884017515291734	-2.230709514914443	-1.453320934594767	0.1704312114989733	0.2382892057026476	1.28305785123967
10986.35864257812	-1.177812073899819	0.3458407627723919	9.593735796660622	-2.521885184975852	-0.003474546314480013	-1.434669908211927	0.1663244353182751	0.2036659877800407	1.289256198347108
11005.88989257812	-1.345641032111738	0.01824273295053814	9.521367737057924	-1.800825027281694	-0.003530100960897006	-1.076917561685697	0.1868583162217659	0.2158859470468432	1.274793388429752
11025.42114257812	-1.308358325953183	-0.009702525391529155	9.278610865106096	-2.166942764732326	1.122970505843185	-0.697027874593515	0.1745379876796715	0.2077393075356415	1.266528925619835
11044.95239257812	-1.530402408124028	0.1085032213732311	9.680080270800918	-2.163143287168324	-0.3716552916441008	-1.076975630993663	0.1765913757700205	0.2281059063136456	1.276859504132231
11064.48364257812	-1.382187169026869	0.1864261486813124	9.739572300895633	-1.445808235209868	0.3792710400300648	-0.3467127108972357	0.1704312114989733	0.2240325865580448	1.28305785123967
11084.01489257812	-1.173066170573349	0.1273752715146172	9.435539019111632	-1.442269059044915	1.487398931626241	-0.7006303273925585	0.1848049281314169	0.2138492871690428	1.262396694214876
11103.54614257812	-1.370359475758276	0.4369171028381574	9.678649191942531	-2.522071114546601	1.855635231602279	-1.416076951137051	0.1806981519507187	0.2016293279022403	1.293388429752066
11123.07739257812	-1.56958252927153	0.2091683155355387	9.652750975717662	-1.79732303703089	1.476419746218631	-1.427116586766045	0.1724845995893224	0.2016293279022403	1.274793388429752
11142.60864257812	-1.365653791951522	0.1751052739356745	9.855126398384069	-1.793560745381039	0.3536159043146968	-1.803345751751218	0.1704312114989733	0.2057026476578411	1.287190082644628
11162.13989257812	-1.629623174644984	0.0497551735314552	9.654105821499462	-1.435041963058409	2.216366892485187	-1.423339926043104	0.1909650924024641	0.2016293279022403	1.291322314049587
11181.67114257812	-1.465901339152283	0.02935856700742851	9.53004463840943	-1.072760889085929	2.956314038751742	-1.419563265320164	0.1827515400410678	0.1995926680244399	1.268595041322314
11201.20239257812	-1.225951684527551	-0.03305771133057475	9.531722817585026	-0.362838862684727	4.837382187483722	0.05200221050168449	0.1642710472279261	0.2057026476578411	1.291322314049587
11220.73364257812	-1.606929902108844	0.3504259983181406	9.564330070294782	-0.3627273049422778	3.721916320733666	0.04084643625675944	0.1704312114989733	0.2036659877800407	1.291322314049587
11240.26489257812	-1.607966146205052	0.4100909460603666	9.598871540168391	-0.3661921092789315	1.870144517970786	0.3873268699221322	0.1519507186858316	0.2138492871690428	1.287190082644628
11259.79614257812	-1.633483459919671	0.09850701462597293	9.782781997322378	-0.3622067021441813	-1.483591057433259	-0.01121384355289078	0.1704312114989733	0.1914460285132383	1.295454545454545
11279.32739257812	-1.399470521852212	0.487504531267785	9.649017395073713	0.00402259304889998	-3.725557530987397	-0.402259304889998	0.1745379876796715	0.1975560081466395	1.278925619834711
11298.85864257812	-1.385722543671696	0.08861637754615191	9.524084789056504	0.7285847409938615	-2.245663238454286	-0.3947059834441165	0.1827515400410678	0.2158859470468432	1.278925619834711
11318.38989257812	-1.22871500211744	0.1260488159820279	9.623833403914647	-0.36239263171493	0.3755187204834998	0.007379113521984299	0.1642710472279261	0.2036659877800407	1.28099173553719
11337.92114257812	-1.504661126887853	0.06015956897292753	9.488704229595099	-0.7248596352581596	1.494681352133703	0.02219540987391863	0.1560574948665298	0.1934826883910387	1.295454545454545
11357.45239257812	-1.617209538177394	0.3304355826559762	9.573651272579777	0.7244505902025123	2.595360159283167	0.01870909569080654	0.1827515400410678	0.2097759674134419	1.274793388429752
11376.98364257812	-1.535318652945765	0.3002469688808695	9.510621764858811	0.3659318078798833	0.7326091711126765	-0.3612967300173071	0.1765913757700205	0.2097759674134419	1.276859504132231
11396.51489257812	-1.232124197876883	0.2949465093531413	9.73747326256275	0.724487776116662	2.223538203699815	0.01499050427583152	0.162217659137577	0.2036659877800407	1.276859504132231
11416.04614257812	-1.151621280384467	-0.002357547324311023	9.387376012815569	-1.079876427329985	1.111880211142741	-0.7080094409145429	0.1663244353182751	0.1955193482688391	1.28305785123967
11435.57739257812	-1.557936218150675	0.1596006227979484	9.59787393835583	-1.804550133017396	0.7474517853596856	-0.7044069881154993	0.1601642710472279	0.1995926680244399	1.28099173553719
11455.10864257812	-1.471975275247409	-0.05927200566332898	9.399175841580306	-1.086954779659892	-1.104375572049612	-0.000174207923897194	0.1560574948665298	0.2016293279022403	1.274793388429752
11474.63989257812	-1.186950579673686	0.196219312572175	9.565019322456187	-1.800676283625095	-1.490817923294304	-1.091791927345597	0.1683778234086242	0.2016293279022403	1.299586776859504
11494.17114257812	-1.5285546760712	0.1391006547369788	9.618489202373318	-1.079727683673386	-0.3754076111906658	-0.7228838065744428	0.1909650924024641	0.1955193482688391	1.28305785123967
11513.70239257812	-1.208876526863091	0.2257965896476008	9.629217562103012	-1.79344918763859	-0.7618499624353585	-1.814501525996143	0.1765913757700205	0.2118126272912423	1.285123966942149
11533.23364257812	-1.555698120171193	0.1403242744779808	9.523270672373107	-0.7210973436083078	0.3718775102297688	-0.3540337551112543	0.1704312114989733	0.2016293279022403	1.301652892561983
11552.76489257812	-1.372243484240652	0.07964127342885599	9.40811614135505	-1.076114135680133	-0.01092363076119298	-1.084238605899716	0.1683778234086242	0.2077393075356415	1.291322314049587
11572.29614257812	-1.452236165865299	0.2471103063702199	9.741205528843309	-0.7208742281234094	-1.859054223270342	-0.3763453036011044	0.162217659137577	0.1934826883910387	1.287190082644628
11591.82739257812	-1.436909374381428	0.2687326356166717	9.563645812714258	-2.159492553260922	-0.3789932667979798	-1.442049021733911	0.1848049281314169	0.2138492871690428	1.276859504132231
11611.35864257812	-1.541613402090311	0.07821166665746612	9.720446736343698	-1.442157501302466	0.3719330648761858	-0.7117861016374836	0.1663244353182751	0.2016293279022403	1.285123966942149
11630.88989257812	-1.349891683313079	0.1168683557287711	9.663056110435965	-1.072463401772731	-0.01826160591507197	-1.449311996639964	0.1601642710472279	0.1894093686354379	1.285123966942149
11650.42114257812	-1.549294541738004	0.009061431504712121	9.643151391266791	-1.076225693422583	1.104542235988862	-1.073082831654791	0.135523613963039	0.1975560081466395	1.291322314049587
11669.95239257812	-1.554431599609161	0.06740044945970462	9.814386653638696	-0.7137958757935028	0.3572015599220108	-1.08418053659175	0.1745379876796715	0.1894093686354379	1.293388429752066
11689.48364257812	-1.614627602735243	-0.1287295915510618	9.487586757841425	0.007264281900655208	0.3571460052755938	-0.7264281900655207	0.1601642710472279	0.2138492871690428	1.301652892561983
11709.01489257812	-1.65497961028074	-0.08844340732410598	9.499320342691338	0.728212881852364	1.472556317379232	-0.3575200692943664	0.1560574948665298	0.1975560081466395	1.291322314049587
11728.54614257812	-1.471819128876748	0.1874451483298516	9.727304295891589	0.3584815964084793	2.234572943753842	0.3837244171230887	0.1724845995893224	0.2057026476578411	1.28305785123967
11748.07739257812	-2.012395498252817	0.01599212223158925	9.413183275093891	0	0	0	0.1663244353182751	0.2179226069246436	1.28099173553719
11767.60864257812	-1.680049777570284	0.003450571918941628	9.334992585676121	-0.003539176164953228	-1.108127891596177	0.3539176164953228	0.1560574948665298	0.2016293279022403	1.274793388429752
11787.13989257812	-1.425654217805261	0.05903846957629916	9.521807260175342	0.7285475550797117	-1.873841282870934	-0.3909873920291415	0.1519507186858316	0.1894093686354379	1.285123966942149
11806.67114257812	-1.367446320741995	0.1778590229600883	9.581544024733164	0.003762291649851729	-1.122803841903934	-0.3762291649851729	0.1745379876796715	0.1995926680244399	1.297520661157025
11826.20239257812	-1.715900353379741	0.05852555240721709	9.863345112658029	0.003687919821552229	-0.3791599307372308	-0.3687919821552229	0.1560574948665298	0.2077393075356415	1.293388429752066
11845.73364257812	-1.261797528628806	-0.05131453425664734	9.393250954293539	1.079727683673386	0.3754076111906658	0.7228838065744428	0.162217659137577	0.219959266802444	1.262396694214876
11865.26489257812	-1.531468619705514	0.1881584796285503	9.715620656850474	0.7137586898793531	0.01462039566134097	1.087899128006725	0.1601642710472279	0.1955193482688391	1.285123966942149
11884.79614257812	-1.600576795229808	0.1124801695423623	9.352559840993575	7.437182829950031e-05	-0.7436439111667036	-0.007437182829950031	0.1581108829568789	0.1934826883910387	1.299586776859504
11904.32739257812	-1.467268014204588	0.0989166754071832	9.575600473486267	-0.3622067021441813	-1.483591057433259	-0.01121384355289078	0.1745379876796715	0.230142566191446	1.287190082644628
11923.85864257812	-1.486220082789121	0.0394555065648508	9.540669426304039	-0.003539176164953228	-1.108127891596177	0.3539176164953228	0.1724845995893224	0.2057026476578411	1.289256198347108
11943.38989257812	-1.634629321922556	0.3014698525783736	9.487644064085204	-0.3696197277014355	-0.3534492403754458	0.73008871217253	0.1724845995893224	0.2077393075356415	1.278925619834711
11962.92114257812	-1.428072120696413	0.1982566809748265	9.60240402321376	-0.3732332756946882	-0.7179332208049186	1.091443511497803	0.1848049281314169	0.2179226069246436	1.28305785123967
11982.45239257812	-1.444495879865084	0.06627966551028976	9.816529328836108	0.3477525101711704	0.02565513571536794	1.456633040853982	0.1581108829568789	0.2138492871690428	1.262396694214876
12001.98364257812	-1.620124270429742	0.1694931525610502	9.670809014324721	-0.3731960897805385	-1.08975517638827	1.087724920082828	0.162217659137577	0.1914460285132383	1.28305785123967
12021.51489257812	-1.589111077638657	-0.0271459151031657	9.303702587955225	-0.7391650835745714	-1.450542391917595	1.45274024151511	0.162217659137577	0.2240325865580448	1.293388429752066
12041.04614257812	-1.306389935341208	0.1509339209063429	9.212997844706914	-0.3695825417872857	-0.7252711959587976	0.726370120757555	0.162217659137577	0.2138492871690428	1.268595041322314
12060.57739257812	-1.387590779793398	-0.06865435213319865	9.253025993113262	-1.101594901203651	-0.7032017158507436	1.463837946452069	0.1745379876796715	0.2179226069246436	1.287190082644628
12080.10864257812	-1.697614667033637	0.001104590992457391	9.587155567787898	-1.105282821025203	-0.3240417851135129	1.832629928607292	0.1704312114989733	0.1995926680244399	1.28305785123967
12099.63989257812	-1.765589598443584	0.362459363169908	9.519653281452781	-1.467526709083534	-1.43581088696342	1.825134676469376	0.1704312114989733	0.219959266802444	1.293388429752066
12119.17114257812	-1.470967421400412	0.3210538670805335	9.36558071334707	-1.467489523169385	-1.807632842546772	1.821416085054401	0.1663244353182751	0.1995926680244399	1.287190082644628
12138.70239257812	-1.580648417519623	0.1522570116686553	9.354947250654092	-1.478478910805742	-1.413796961501783	2.92035484869012	0.1868583162217659	0.2179226069246436	1.264462809917355
12158.23364257812	-1.107508353436522	0.1152389657221914	9.583611781217378	-1.123387746905617	-1.774639731677525	3.643122516648631	0.1704312114989733	0.219959266802444	1.278925619834711
12177.76489257812	-1.277973661734912	0.4234551827057117	9.932455391163744	-1.112509917011709	-1.053009745972459	2.555339527257838	0.1745379876796715	0.1812627291242362	1.278925619834711
12197.29614257812	-1.375047021350256	0.1954014630967505	9.8349007116752	-1.463875975176132	-1.443148862117299	1.460061285729128	0.1663244353182751	0.1995926680244399	1.299586776859504
12216.82739257812	-1.314646766153461	0.1149308789437145	9.821558871782011	-1.815279219254705	-1.461466022678788	0.3685016356153942	0.1868583162217659	0.1914460285132383	1.289256198347108
12236.35864257812	-1.193410149987264	0.08413071817078469	9.780338332908794	-1.467824196396732	1.538764757703394	1.854883407789176	0.1663244353182751	0.2016293279022403	1.276859504132231
12255.88989257812	-1.539029889412093	0.03904700242342322	9.634329647069771	-0.7320123594163656	0.02206948010805394	0.7374678256945143	0.1950718685831622	0.2097759674134419	1.276859504132231
12275.42114257812	-1.607455910337284	0.2802559223242782	9.581863677909467	-0.3768096377737912	-1.454239156817743	1.449079719408101	0.1806981519507187	0.1832993890020367	1.293388429752066
12294.95239257812	-1.410232792157352	-0.05264193613087696	9.674426405245045	-0.735514349667169	-1.457880367071474	1.087666850774862	0.1601642710472279	0.1975560081466395	1.295454545454545
12314.48364257812	-1.028606330552403	0.1840839531213896	9.620211018413443	0.3405626000988147	-1.07513478072693	2.175624048089553	0.162217659137577	0.1792260692464358	1.285123966942149
12334.01489257812	-1.551307094959864	0.08841070596297752	9.710236498662109	0.7028808599854451	-0.7070095900437257	2.175682117397518	0.1724845995893224	0.1975560081466395	1.309917355371901
12353.54614257812	-1.26892269256278	-0.07028500392863218	9.297423085425997	0.3442877058345166	-1.826116667047512	1.803113474519355	0.1663244353182751	0.1975560081466395	1.289256198347108
12373.07739257812	-1.14043552219526	-0.02540748550980082	9.681184073175341	-0.01065471440900943	-2.952561719205177	1.065471440900943	0.1765913757700205	0.1894093686354379	1.28099173553719
12392.60864257812	-1.42693099040173	0.06862564643677398	9.564366346724331	0.3478268819994699	-0.7179887754513357	1.449195858024032	0.1868583162217659	0.1894093686354379	1.285123966942149
12412.13989257812	-1.556597933347581	0.5300333348842822	9.553264444919368	0.3514776159068723	-0.7253267506052147	1.084122467283784	0.188911704312115	0.1914460285132383	1.301652892561983
12431.67114257812	-1.101845287336924	0.1270700237610614	9.394842911230787	0.3514404299927226	-0.3535047950218628	1.087841058698759	0.1827515400410678	0.1914460285132383	1.293388429752066
12451.20239257812	-1.230923921229677	-0.08466540119759536	9.69746404098921	-0.369694099529735	0.3901946707912577	0.73752589500248	0.1765913757700205	0.1894093686354379	1.278925619834711
12470.73364257812	-1.477872560902999	0.2254878719746969	9.929085363433305	-0.3623554458007803	0.003696764900147988	0.003660522107009284	0.1827515400410678	0.2016293279022403	1.293388429752066
12490.26489257812	-1.357272359489954	0.05781527043158171	9.57574531633178	-0.7283244395948133	-0.3570904506291769	0.3686758435392914	0.1560574948665298	0.1975560081466395	1.276859504132231
12509.79614257812	-1.180116415794127	0.05842902555989907	9.337213859804217	-0.72478526342986	0.7510374409669995	0.0147582270439686	0.1601642710472279	0.1955193482688391	1.295454545454545
12529.32739257812	-1.347038463267355	-0.1022091031231114	9.567948775578497	-0.3623554458007803	0.003696764900147988	0.003660522107009284	0.1663244353182751	0.2138492871690428	1.293388429752066
12548.85864257812	-1.534988221989668	0.2903538082233408	9.499607399655584	-0.01441700605886117	-1.829757877301243	1.441700605886116	0.1806981519507187	0.1975560081466395	1.287190082644628
12568.38989257812	-1.389492926490548	0.07739728710138974	9.649764216351574	-0.7209857858658586	-0.7435883565202867	-0.3651895293561793	0.1704312114989733	0.1873727087576375	1.287190082644628
12587.92114257812	-1.391925813124339	0.2266106537564637	9.730860437477967	-0.3586303400650783	-0.7472851214204346	-0.3688500514631886	0.1827515400410678	0.185336048879837	1.276859504132231
12607.45239257812	-1.364638051924189	-0.01123297012215431	9.487935064139618	-1.445696677467419	-0.7361948267199907	-0.3578684851421607	0.1704312114989733	0.1934826883910387	1.291322314049587
12626.98364257812	-1.271997514275958	-0.1946125296158931	9.733250475865265	0.007301467814804958	-0.01467595030775797	-0.7301467814804957	0.1683778234086242	0.1934826883910387	1.28099173553719
12646.51489257812	-1.483141317985775	-0.1195490261487339	9.438043932859163	0.7210601576941581	-5.555464641699391e-05	0.3577523465262293	0.188911704312115	0.1934826883910387	1.268595041322314
