Time Stamp	Accelerometer X	Accelerometer Y	Accelerometer Z	Gyroscope X	Gyroscope Y	Gyroscope Z	Magnetometer X	Magnetometer Y	Magnetometer Z
920.928955078125	1.758046466951779	-10.34823164235226	0.06511776827405426	45.18692326156027	16.11087171261147	10.29318109034993	0.2053388090349076	-0.3706720977596741	0.7148760330578513
940.460205078125	0.3286447362506418	-9.543738201945626	-1.954824541688058	5.79422232847583	-1.910920041165248	0.2879120799532242	0.1991786447638604	-0.360488798370672	0.7272727272727273
959.991455078125	0.3829355675407972	-9.829517499828476	-2.431185584693239	-3.250395554141414	1.498544780973102	-1.04740110759776	0.1950718685831622	-0.3645621181262729	0.7210743801652892
979.522705078125	0.5658697155691338	-9.823702125299313	-2.195657185637793	-0.3550911639001251	0.3608427701757418	-0.7227676679585114	0.1806981519507187	-0.3665987780040733	0.7045454545454546
999.053955078125	0.2162296014087873	-9.783419095544492	-1.874320046959575	-0.7209485999517089	-1.115410312103638	-0.3689081207711543	0.188911704312115	-0.3564154786150712	0.7272727272727273
1018.585205078125	0.4550775566405188	-9.882858256686232	-2.169251888017291	-0.3656343205666853	-3.707184815779491	0.331547998697507	0.2053388090349076	-0.3747454175152749	0.71900826446281
1038.116455078125	0.4626088588618192	-9.713756468968011	-2.086961962060638	-0.3621695162300315	-1.855413013016611	-0.0149324349678658	0.1868583162217659	-0.3686354378818737	0.7231404958677686
1057.647705078125	0.4181410537987337	-9.664801059271742	-1.938035126624454	0.7209114140375591	1.48723226768699	0.3726267121861294	0.1971252566735113	-0.3788187372708757	0.7169421487603306
1077.178955078125	0.4373336508835283	-9.55526211954766	-1.911121696117607	-7.437182829950031e-05	0.7436439111667036	0.007437182829950031	0.1930184804928131	-0.3625254582484725	0.7148760330578513
1096.710205078125	0.4407877978708891	-9.754145278688412	-2.026259929029634	-0.003650733907402479	0.007337975153878983	0.3650733907402479	0.1827515400410678	-0.3543788187372708	0.7148760330578513
1116.241455078125	0.4067194988174673	-9.765160695382352	-1.890649960582242	-0.003613547993252729	-0.3644839804294728	0.3613547993252729	0.1909650924024641	-0.3686354378818737	0.7148760330578513
1135.772705078125	0.5461116793542166	-9.83675722367547	-1.870389311807215	-0.3552027216425743	1.476308636925797	-0.7116118937135864	0.1971252566735113	-0.3686354378818737	0.7272727272727273
1155.303955078125	0.3196111166752495	-9.763325738941671	-1.987037222508315	-0.3623554458007803	0.003696764900147988	0.003660522107009284	0.1909650924024641	-0.3808553971486761	0.7210743801652892
1174.835205078125	0.6895455273133914	-9.65704694616867	-1.984850910446376	0.3588534555499768	-1.483646612079676	0.3465385029733385	0.188911704312115	-0.3564154786150712	0.7024793388429752
1194.366455078125	0.513230250441429	-9.797388885690605	-1.774341681380965	-0.3622067021441813	-1.483591057433259	-0.01121384355289078	0.2135523613963039	-0.360488798370672	0.7045454545454546
1213.897705078125	0.336114526265318	-9.754656303174214	-1.870484208843931	0.3551283498142748	-0.7326647257590937	0.7190490765435364	0.1971252566735113	-0.3686354378818737	0.7066115702479339
1233.428955078125	0.5618493408336166	-9.738335379797132	-1.728311361120553	-0.003539176164953228	-1.108127891596177	0.3539176164953228	0.188911704312115	-0.3747454175152749	0.7128099173553719
1252.960205078125	0.3249287680761112	-9.731606364988725	-2.164292269203703	-0.365968993794033	-0.3607872155293249	0.3650153214322821	0.1827515400410678	-0.3625254582484725	0.7169421487603306
1272.491455078125	0.4195668752035621	-9.984340043684181	-1.985562506785401	-7.437182829950031e-05	0.7436439111667036	0.007437182829950031	0.2073921971252567	-0.3645621181262729	0.731404958677686
1292.022705078125	0.2252427169153048	-9.690504854864052	-2.174757230510159	0.003501990250803478	1.479949847179528	-0.3501990250803478	0.1827515400410678	-0.3645621181262729	0.731404958677686
1311.553955078125	0.123949462201932	-9.629923007221375	-2.131648740064398	0.3514776159068723	-0.7253267506052147	1.084122467283784	0.2012320328542095	-0.3584521384928717	0.71900826446281
1331.085205078125	0.5603872429992406	-9.745474791430247	-2.012908099974685	0.3551655357284246	-1.104486681342445	0.7153304851285613	0.1991786447638604	-0.3747454175152749	0.7045454545454546
1350.616455078125	0.7538407669783549	-9.879591485343665	-1.794692232611827	-0.3660061797081828	0.01103474005402697	0.3687339128472572	0.1930184804928131	-0.3625254582484725	0.7086776859504132
1370.147705078125	0.3861752104230069	-9.815136681963228	-1.872507014100228	-1.07257495951518	1.097204260834983	-1.438156222395039	0.2073921971252567	-0.3686354378818737	0.6983471074380165
1389.678955078125	0.2581146824116886	-9.583209586020221	-1.937156080389619	-0.3552027216425743	1.476308636925797	-0.7116118937135864	0.2197125256673511	-0.3665987780040733	0.7128099173553719
1409.210205078125	0.2725542786077106	-9.811874116583507	-2.085142620257021	-0.365968993794033	-0.3607872155293249	0.3650153214322821	0.1868583162217659	-0.3625254582484725	0.71900826446281
1428.741455078125	0.4738947715412988	-9.73344069053498	-2.129825718043291	-0.3622810739724808	-0.7399471462665556	-0.003776660722940747	0.1971252566735113	-0.3645621181262729	0.7107438016528926
1448.272705078125	0.2577534953522796	-9.763326369836097	-1.925116511742654	3.718591414975016e-05	-0.3718219555833518	-0.003718591414975016	0.1909650924024641	-0.3686354378818737	0.7148760330578513
1467.803955078125	0.3209336291176705	-9.592898126585288	-2.031120970589016	-0.007152724158205957	-1.472611872025649	0.7152724158205956	0.1909650924024641	-0.3665987780040733	0.7231404958677686
1487.335205078125	0.660764123557519	-9.826352933383069	-2.025470785250635	0.3515148018210221	-1.097148706188567	1.080403875868809	0.1806981519507187	-0.360488798370672	0.7045454545454546
1506.866455078125	0.6287541175719082	-9.736702835318418	-1.958470585730272	-0.7212460872649068	1.859165332563176	-0.3391593894513542	0.1786447638603696	-0.3686354378818737	0.7128099173553719
1526.397705078125	0.2786431984454762	-9.733238699169297	-1.954773281515871	0.003353246594204478	2.967237669512935	-0.3353246594204478	0.1827515400410678	-0.35030549898167	0.7024793388429752
1545.928955078125	0.3653115317249206	-9.581882604742274	-2.177051057497352	-0.007264281900655208	-0.3571460052755938	0.7264281900655207	0.188911704312115	-0.3564154786150712	0.737603305785124
1565.460205078125	0.3705739798634272	-9.583514413177491	-2.019132662114238	-0.7387560385189242	-5.540583903334466	1.411835735950385	0.1601642710472279	-0.3686354378818737	0.7128099173553719
1584.991455078125	0.8374760753004045	-9.389216068986203	-1.915869176680144	-1.090493955824845	-2.212503463645788	0.3537434085714256	0.1950718685831622	-0.3727087576374745	0.7231404958677686
1604.522705078125	0.3852288687826341	-9.815442665760282	-1.840962292754467	-0.3624298176290798	0.7473406760668516	0.01109770493695932	0.1950718685831622	-0.3767820773930753	0.7169421487603306
1624.053955078125	0.3119607331308689	-9.642466029621019	-2.06535777102896	-0.0001487436565990006	1.487287822333407	0.01487436565990006	0.1745379876796715	-0.3686354378818737	0.7086776859504132
1643.585205078125	0.1307583903044145	-9.821054787134907	-2.025279676813815	-0.3623554458007803	0.003696764900147988	0.003660522107009284	0.1827515400410678	-0.3625254582484725	0.7148760330578513
1663.116455078125	0.1388598633640395	-9.82176864417896	-1.961995445467983	-0.7134240166520054	-3.361017995911507	-1.1213664507415	0.1909650924024641	-0.3665987780040733	0.7004132231404959
1682.647705078125	0.3761952492072418	-10.03503020275632	-1.873174973574724	-0.3657830642232843	-2.219896993446084	0.346422364357407	0.1786447638603696	-0.3727087576374745	0.7066115702479339
1702.178955078125	0.5198396581813995	-9.785251843854679	-1.994655272713316	-1.449087109975773	-3.331610540649574	-0.018825234306738	0.1868583162217659	-0.3686354378818737	0.71900826446281
1721.710205078125	0.6994939438078107	-9.837163624835474	-1.983131460260354	-0.7283244395948133	-0.3570904506291769	0.3686758435392914	0.2053388090349076	-0.3686354378818737	0.6900826446280992
1741.241455078125	0.3479713984011558	-9.734155914516961	-1.932379946705193	-0.362541375371529	1.862806542816907	0.02225347918188436	0.1991786447638604	-0.3788187372708757	0.737603305785124
1760.772705078125	0.5715682694802456	-9.695192926201388	-2.052275649341517	-0.007450211471403958	1.501963772641165	0.7450211471403958	0.1724845995893224	-0.360488798370672	0.7024793388429752
1780.303955078125	0.4871238390556773	-9.645829958705329	-1.904127968522574	-0.3660805515364823	0.7546786512207306	0.3761710956772072	0.188911704312115	-0.3788187372708757	0.7024793388429752
1799.835205078125	0.2104009255221243	-9.895303700747846	-1.680030850737476	-0.717483795615055	0.7363614906592416	-0.7153885544365272	0.188911704312115	-0.3727087576374745	0.7334710743801653
1819.366455078125	0.2400229961018611	-9.865725897927065	-1.667433203395368	-1.083452789409088	0.3755742751299168	-0.350373233004245	0.188911704312115	-0.3523421588594705	0.731404958677686
1838.897705078125	0.2993980478549196	-9.613194631193576	-1.979934928497317	0.3587418978075275	-0.3681807453296208	0.3576942772182636	0.1909650924024641	-0.3747454175152749	0.7272727272727273
1858.428955078125	0.5701661066164264	-9.74231295886069	-2.338870220547548	-0.3621695162300315	-1.855413013016611	-0.0149324349678658	0.1991786447638604	-0.3584521384928717	0.7045454545454546
1877.960205078125	0.5458072727932299	-9.563522315130191	-2.193575759774329	-0.7209114140375591	-1.48723226768699	-0.3726267121861294	0.1848049281314169	-0.3788187372708757	0.7169421487603306
1897.491455078125	0.1173999894325184	-9.682040670083484	-1.913332981083945	-0.3623554458007803	0.003696764900147988	0.003660522107009284	0.1950718685831622	-0.3686354378818737	0.6983471074380165
1917.022705078125	0.4017874816350576	-9.773422047604665	-2.059582721168585	0.3625041894573793	-1.490984587233555	-0.01853488776690934	0.1930184804928131	-0.3910386965376782	0.7086776859504132
1936.553955078125	0.4830182935725265	-9.573824085078215	-2.100609785750881	-0.01102657355050694	0.7656578366283405	1.102657355050694	0.1827515400410678	-0.3564154786150712	0.7128099173553719
1956.085205078125	0.5125047218504765	-9.664290139935014	-2.083490728349215	-0.358816269635827	1.111824656496325	-0.3502570943883135	0.1848049281314169	-0.3706720977596741	0.7148760330578513
1975.616455078125	0.2280123434494626	-9.502942675618007	-1.933744781648753	-0.3550539779859753	-0.01097918540760998	-0.7264862593734864	0.2094455852156057	-0.3665987780040733	0.7210743801652892
1995.147705078125	0.2940362338441738	-9.404928284390383	-1.801207794805794	-0.369396612216537	-2.584380973875557	0.7077771636826798	0.1806981519507187	-0.3706720977596741	0.71900826446281
2014.678955078125	0.4729334461582868	-9.723751519075488	-2.097781538609556	-0.7281756959382143	-1.844378272962584	0.3538014778793914	0.1868583162217659	-0.3441955193482688	0.7107438016528926
2034.210205078125	0.4891513760201761	-9.735174388420143	-1.971712534005867	-0.7211717154366073	1.115521421396473	-0.3465965722813042	0.2032854209445585	-0.3686354378818737	0.7107438016528926
2053.741455078125	0.4579221018878728	-9.745271853722922	-1.930736729595757	-0.362541375371529	1.862806542816907	0.02225347918188436	0.215605749486653	-0.3686354378818737	0.6942148760330579
2073.272705078125	0.365354905716771	-10.03186858048491	-2.178496857225699	-0.0001115577424492505	1.115465866750055	0.01115577424492505	0.2238193018480493	-0.360488798370672	0.7004132231404959
2092.803955078125	0.3131326195288638	-9.582087119685667	-2.104420650962127	0.3549052343293763	1.498267007741017	0.7413606250333865	0.2053388090349076	-0.3564154786150712	0.7045454545454546
2112.335205078125	0.2133101374482371	-9.871029722225071	-2.110337914941236	0.01091501580805769	0.3498080301217149	-1.091501580805769	0.1930184804928131	-0.3482688391038696	0.7004132231404959
2131.866455078125	0.1596746477440398	-9.741705197229429	-1.989154924801327	-0.3584072245801798	-2.978216854920546	-0.3911615999530387	0.1950718685831622	-0.3564154786150712	0.7148760330578513
2151.397705078125	0.5896489151376021	-9.686013517438841	-1.988297171253401	0.3590393851207255	-3.342756389996435	0.3279455458984634	0.1827515400410678	-0.3747454175152749	0.7066115702479339
2170.928955078125	0.939009069896005	-9.609720400733627	-1.966968996533498	-0.3586303400650783	-0.7472851214204346	-0.3688500514631886	0.2012320328542095	-0.3686354378818737	0.7210743801652892
2190.460205078125	0.3568993431600399	-9.654602545711587	-1.896644772001326	-0.3518494750483698	4.443546306438733	-1.046936553134034	0.1848049281314169	-0.3625254582484725	0.6942148760330579
2209.991455078125	0.1016173767252005	-9.750477048192185	-2.053912557506684	0.3619835866592828	3.71452279093337	0.03352539204274087	0.1786447638603696	-0.3665987780040733	0.6859504132231405
2229.522705078125	0.5281469605478057	-9.642565816089542	-2.271565351593521	-1.101632087117801	-0.3313797602673919	1.467556537867044	0.2012320328542095	-0.3625254582484725	0.7086776859504132
2249.053955078125	0.4166332161184064	-9.851955260121715	-2.221107203946875	-3.718591414975016e-05	0.3718219555833518	0.003718591414975016	0.1971252566735113	-0.3564154786150712	0.7086776859504132
2268.585205078125	0.1051472310437912	-9.789335728629174	-2.171574368126372	0.00387384939230098	-2.23826970865399	-0.387384939230098	0.2012320328542095	-0.3686354378818737	0.731404958677686
2288.116455078125	0.6104479271569296	-9.80595517021926	-2.014930905230982	-0.003316060680054727	-3.339059625096287	0.3316060680054727	0.2217659137577002	-0.3564154786150712	0.71900826446281
2307.647705078125	1.091039643039933	-9.550563848750421	-2.034654767997775	-0.01080345806560844	-1.46527389687177	1.080345806560844	0.1765913757700205	-0.3584521384928717	0.7148760330578513
2327.178955078125	0.5330482216269034	-9.824314408340635	-2.101607387563441	-0.3552399075567241	1.848130592509149	-0.7078933022986114	0.188911704312115	-0.3828920570264766	0.7045454545454546
2346.710205078125	0.05768977501516118	-9.851346972745096	-1.922992500505373	-0.7212089013507571	1.487343376979824	-0.3428779808663293	0.1971252566735113	-0.3523421588594705	0.7086776859504132
2366.241455078125	0.3236669792222807	-9.732014343384797	-2.122232640742689	-0.7244134042883625	-2.967182114866518	-0.02242768710578156	0.188911704312115	-0.3686354378818737	0.7148760330578513
2385.772705078125	0.4555893697443538	-9.592692770449325	-2.186312324811789	0.3734563911795867	-1.512998512695192	-1.113755059987653	0.1909650924024641	-0.3788187372708757	0.6900826446280992
2405.303955078125	0.7004410740662171	-9.626857386051922	-2.014702468873903	-0.72478526342986	0.7510374409669995	0.0147582270439686	0.1930184804928131	-0.3767820773930753	0.7128099173553719
2424.835205078125	0.3043292764192956	-9.814933533957761	-1.810975880643186	-0.7210601576941581	5.555464641699391e-05	-0.3577523465262293	0.2012320328542095	-0.35030549898167	0.7004132231404959
2444.366455078125	0.5445754514246779	-9.583920604039355	-2.152515047489263	-0.3622067021441813	-1.483591057433259	-0.01121384355289078	0.1909650924024641	-0.3543788187372708	0.7128099173553719
2463.897705078125	0.4411340011876588	-9.564033339615991	-2.037800039588625	0.3551283498142748	-0.7326647257590937	0.7190490765435364	0.1950718685831622	-0.3747454175152749	0.7086776859504132
2483.428955078125	0.5820584665637784	-9.605134429144378	-2.068615552125943	-0.7209857858658586	-0.7435883565202867	-0.3651895293561793	0.1971252566735113	-0.3665987780040733	0.71900826446281
2502.960205078125	0.3249035322990346	-9.784947857889978	-1.83011774330115	-0.3623554458007803	0.003696764900147988	0.003660522107009284	0.2032854209445585	-0.3727087576374745	0.7148760330578513
2522.491455078125	0.3197459703590027	-9.85328213625059	-1.991532345300086	-0.003539176164953228	-1.108127891596177	0.3539176164953228	0.1765913757700205	-0.3645621181262729	0.7107438016528926
2542.022705078125	0.7507675225012442	-9.58391850105793	-2.358917416708135	-0.007227095986505457	-0.7289679608589457	0.7227095986505457	0.2094455852156057	-0.3767820773930753	0.7004132231404959
2561.553955078125	0.4640662249879934	-9.633285253920549	-2.135540832933109	0.003613547993252729	0.3644839804294728	-0.3613547993252729	0.1765913757700205	-0.3767820773930753	0.7128099173553719
2581.085205078125	0.03053055855449469	-10.05012845273405	-2.017685285149823	-0.0001487436565990006	1.487287822333407	0.01487436565990006	0.2032854209445585	-0.3747454175152749	0.7024793388429752
2600.616455078125	0.2399733131657415	-9.762408628743076	-1.999110438858049	-0.3622067021441813	-1.483591057433259	-0.01121384355289078	0.2032854209445585	-0.3828920570264766	0.7024793388429752
2620.147705078125	0.5118880225481669	-9.884489539376094	-2.062934084938894	-0.735514349667169	-1.457880367071474	1.087666850774862	0.1909650924024641	-0.3584521384928717	0.731404958677686
2639.678955078125	0.5907450942043673	-9.785659086207254	-2.024836473478907	-0.3660061797081828	0.01103474005402697	0.3687339128472572	0.1909650924024641	-0.360488798370672	0.7148760330578513
2659.210205078125	0.4379937241776883	-9.785048695849214	-1.933124139256275	-1.083564347151537	1.491040141879972	-0.33921745875932	0.1868583162217659	-0.3686354378818737	0.7107438016528926
2678.741455078125	0.4313346335015982	-9.693868468501149	-2.044487783386604	-0.7249340070864591	2.238325263300407	0.02963259270386866	0.1848049281314169	-0.360488798370672	0.7128099173553719
2698.272705078125	0.1634450305628919	-9.730486106784666	-2.114834352096397	0.3584444104943295	2.606394899337194	0.3874430085380637	0.1909650924024641	-0.3523421588594705	0.7004132231404959
2717.803955078125	0.04279356897765924	-9.879496746030558	-2.093118965921974	-0.01437982014471141	-2.201579832884595	1.437982014471141	0.1848049281314169	-0.3747454175152749	0.7210743801652892
2737.335205078125	0.9391147447125133	-9.469686232542955	-1.970491490417108	-7.437182829950031e-05	0.7436439111667036	0.007437182829950031	0.1745379876796715	-0.3747454175152749	0.7293388429752067
2756.866455078125	0.6103438295764886	-9.525988828436935	-2.011460985882949	-0.362541375371529	1.862806542816907	0.02225347918188436	0.2073921971252567	-0.3747454175152749	0.7107438016528926
2776.397705078125	0.5185029506143729	-9.73568404596802	-1.950098353812429	-0.0002231154848985009	2.230931733500111	0.02231154848985009	0.2053388090349076	-0.360488798370672	0.7148760330578513
2795.928955078125	0.4735343730999235	-9.70355721936436	-2.117812436664114	-0.003650733907402479	0.007337975153878983	0.3650733907402479	0.1971252566735113	-0.3645621181262729	0.7107438016528926
2815.460205078125	0.5728600258193545	-9.71477525831841	-2.095334193978481	-1.449384597288971	-0.3570348959827598	0.01092349701306212	0.1909650924024641	-0.360488798370672	0.7086776859504132
2834.991455078125	0.3569734732552023	-9.914578576980817	-1.89911577517341	-0.7210229717800084	-0.3717664009369348	-0.3614709379412043	0.2053388090349076	-0.3543788187372708	0.7210743801652892
2854.522705078125	0.2973705108904208	-9.523850201478764	-1.912350363014024	-0.3660433656223325	0.3828566956373787	0.3724525042622321	0.188911704312115	-0.3686354378818737	0.7004132231404959
2874.053955078125	0.3340964527172229	-9.811975480288098	-2.136548423907429	-0.003613547993252729	-0.3644839804294728	0.3613547993252729	0.188911704312115	-0.360488798370672	0.6983471074380165
2893.585205078125	0.4011715709507817	-9.783621192059247	-2.039052365026052	-0.36239263171493	0.3755187204834998	0.007379113521984299	0.188911704312115	-0.3788187372708757	0.7086776859504132
2913.116455078125	0.5571570635334346	-9.90651921612419	-1.905235451114488	-0.724636519773261	-0.7362503813664076	-0.0001161386159314638	0.1991786447638604	-0.3645621181262729	0.7024793388429752
2932.647705078125	0.5914264601854358	-9.67877211120671	-1.714215339514521	0	0	0	0.1930184804928131	-0.3747454175152749	0.7066115702479339
2952.178955078125	0.3171277584873045	-9.720795358089106	-2.237591949576814	-0.36239263171493	0.3755187204834998	0.007379113521984299	0.2114989733059548	-0.3767820773930753	0.7272727272727273
2971.710205078125	0.5897632647524804	-9.902643211063364	-2.325442158416013	-0.003725105735701979	0.7509818863205826	0.3725105735701979	0.1909650924024641	-0.3808553971486761	0.6859504132231405
2991.241455078125	0.3521416105630654	-9.919474212584609	-2.40472035210218	-0.01091501580805769	-0.3498080301217149	1.091501580805769	0.215605749486653	-0.3645621181262729	0.7045454545454546
3010.772705078125	0.5241518215893651	-9.503857577686105	-2.138394052978834	-0.3623182598866305	-0.3681251906832038	-5.806930796573191e-05	0.1950718685831622	-0.3665987780040733	0.6942148760330579
3030.303955078125	0.546979159191225	-9.503143405194837	-2.232638639707496	-0.003613547993252729	-0.3644839804294728	0.3613547993252729	0.1868583162217659	-0.3747454175152749	0.7148760330578513
3049.835205078125	0.4011274083408976	-9.543635471303109	-2.037580278029917	-0.00379947756400148	1.494625797487286	0.3799477564001479	0.1848049281314169	-0.3686354378818737	0.7086776859504132
3069.366455078125	0.2807306703805319	-9.862563749910295	-2.024355679351062	-0.358667525979228	-0.3754631658370828	-0.3651314600482136	0.2073921971252567	-0.3727087576374745	0.7128099173553719
3088.897705078125	0.1980590532955954	-9.732627572767758	-1.935301776519844	-0.003576362079102979	-0.7363059360128246	0.3576362079102978	0.2012320328542095	-0.3747454175152749	0.731404958677686
3108.428955078125	0.5000469227730019	-9.704984828303397	-2.001564092433394	0.003762291649851729	-1.122803841903934	-0.3762291649851729	0.1991786447638604	-0.3767820773930753	0.6942148760330579
3127.960205078125	0.5063456150077167	-9.76628158448084	-1.878187166923887	0.003650733907402479	-0.007337975153878983	-0.3650733907402479	0.1950718685831622	-0.3767820773930753	0.7128099173553719
3147.491455078125	0.4790673172239699	-9.675101567430916	-1.968910574132329	-0.3623554458007803	0.003696764900147988	0.003660522107009284	0.1868583162217659	-0.3482688391038696	0.7004132231404959
3167.022705078125	0.2326983118053754	-9.681427545849596	-2.089943726845846	-0.7284731832514122	1.13019737170423	0.3835502091991915	0.1848049281314169	-0.3727087576374745	0.7128099173553719
3186.553955078125	0.2643179518643325	-9.721203862230533	-2.143931728811082	-0.3624670035432295	1.119162631650203	0.01481629635193433	0.1971252566735113	-0.3767820773930753	0.6962809917355373
3206.085205078125	0.3207987754339174	-9.502941729276367	-2.026625847797245	-0.003650733907402479	0.007337975153878983	0.3650733907402479	0.1724845995893224	-0.3625254582484725	0.7252066115702479
3225.616455078125	0.4796524718049338	-9.854912367449737	-1.988415726831125	-0.7209114140375591	-1.48723226768699	-0.3726267121861294	0.1991786447638604	-0.3584521384928717	0.7252066115702479
3245.147705078125	0.4904037014576028	-9.588102803195376	-1.68012338192009	-0.3698056572721842	1.505660537541313	0.7486816692474051	0.2135523613963039	-0.3462321792260692	0.7086776859504132
3264.678955078125	0.3724966306294513	-9.602892756096479	-2.083221020981708	-3.718591414975016e-05	0.3718219555833518	0.003718591414975016	0.2114989733059548	-0.3747454175152749	0.6962809917355373
3284.210205078125	0.523655780846203	-9.594017964193061	-2.121859361540097	0.0001115577424492505	-1.115465866750055	-0.01115577424492505	0.1950718685831622	-0.3584521384928717	0.7045454545454546
3303.741455078125	0.5564615024277606	-9.79341078088169	-2.215383414258687	-0.3585931541509285	-1.119107077003786	-0.3725686428781636	0.1806981519507187	-0.3625254582484725	0.6921487603305785
3323.272705078125	0.2748436367593793	-9.514467224114467	-1.828121225312641	0.3623554458007803	-0.003696764900147988	-0.003660522107009284	0.1909650924024641	-0.3645621181262729	0.71900826446281
3342.803955078125	0.3302961024130924	-9.803204260219767	-2.009870080436411	-1.083266859838339	-1.483535502786842	-0.3689661900791201	0.2032854209445585	-0.3523421588594705	0.7045454545454546
3362.335205078125	0.3685756217661733	-9.724160548962271	-1.952520725539106	-0.369545355873136	-1.097093151542149	0.7226515293425799	0.1971252566735113	-0.3564154786150712	0.7252066115702479
3381.866455078125	0.5444847603508088	-9.733949927486574	-2.149492011693628	-0.003539176164953228	-1.108127891596177	0.3539176164953228	0.1909650924024641	-0.3645621181262729	0.6983471074380165
3401.397705078125	0.3877374627476557	-9.804631553711591	-1.924582091588521	-0.0001859295707487508	1.859109777916759	0.01859295707487508	0.1909650924024641	-0.3686354378818737	0.6983471074380165
3420.928955078125	0.1662391042560927	-9.699582689623865	-2.207970141869755	-0.003762291649851729	1.122803841903934	0.3762291649851729	0.2073921971252567	-0.3767820773930753	0.7086776859504132
3440.460205078125	0.2677034890827663	-9.523442538529906	-1.923449636092208	0.0001115577424492505	-1.115465866750055	-0.01115577424492505	0.1909650924024641	-0.3808553971486761	0.731404958677686
3459.991455078125	0.3976117491469126	-9.724772201109165	-1.920391638230415	-0.003613547993252729	-0.3644839804294728	0.3613547993252729	0.188911704312115	-0.3543788187372708	0.7128099173553719
3479.522705078125	0.3606389698755798	-9.833393399740229	-2.021298995852657	-0.3585931541509285	-1.119107077003786	-0.3725686428781636	0.2012320328542095	-0.3543788187372708	0.6962809917355373
3499.053955078125	0.3388029251420105	-9.863787054204083	-1.96009750473368	-0.3513288722502733	-0.7619610717281925	-1.098996832943684	0.1848049281314169	-0.3482688391038696	0.7086776859504132
3518.585205078125	0.5652396097602523	-9.613905859510851	-2.174653658675074	0.3587790837216773	-0.7400027009129726	0.3539756858032885	0.1909650924024641	-0.3665987780040733	0.7024793388429752
3538.116455078125	0.5106262336943365	-9.884897517772167	-2.020874456477879	0.7211345295224576	-0.7436994658131205	0.3503151636962792	0.2012320328542095	-0.360488798370672	0.7024793388429752
3557.647705078125	0.3327147939222786	-9.732422216631797	-2.090493130742618	-0.717335051958456	-0.7509263316741656	-0.7302629200964272	0.2012320328542095	-0.3747454175152749	0.7128099173553719
3577.178955078125	0.260457666589645	-9.672452021136017	-2.015255552988166	-0.3622067021441813	-1.483591057433259	-0.01121384355289078	0.1745379876796715	-0.3747454175152749	0.7107438016528926
3596.710205078125	0.5660802765841169	-9.753634043904469	-2.202675886137225	-0.003576362079102979	-0.7363059360128246	0.3576362079102978	0.2176591375770021	-0.3564154786150712	0.7128099173553719
3616.241455078125	0.765632972435434	-9.745778672245876	-2.187765747847795	-0.365968993794033	-0.3607872155293249	0.3650153214322821	0.1930184804928131	-0.3665987780040733	0.7107438016528926
3635.772705078125	0.358551497940524	-9.704068348999231	-1.951716598017467	-0.003650733907402479	0.007337975153878983	0.3650733907402479	0.1909650924024641	-0.3890020366598778	0.7086776859504132
3655.303955078125	0.5224831058301743	-9.864397129114909	-2.082770194339142	0.3511801285936743	2.2492488940616	1.113871198603584	0.188911704312115	-0.3645621181262729	0.7045454545454546
3674.835205078125	0.5318029937517794	-9.414717032020258	-2.060099791725977	-0.728510369165562	1.502019327287582	0.3872688006141665	0.1745379876796715	-0.3788187372708757	0.71900826446281
3694.366455078125	0.4931473035966503	-9.663882371837083	-2.104910119888342	-0.72478526342986	0.7510374409669995	0.0147582270439686	0.188911704312115	-0.3747454175152749	0.7128099173553719
3713.897705078125	-0.01844735304300099	-9.659297977483904	-2.051754898566634	0	0	0	0.1868583162217659	-0.3686354378818737	0.7024793388429752
3733.428955078125	0.4319947067957582	-9.923655044802704	-2.066490226525273	-0.003427618422503978	-2.223593758346232	0.3427618422503977	0.1950718685831622	-0.3808553971486761	0.7086776859504132
3752.960205078125	0.6073691623535833	-9.646950637505673	-1.912305411786107	-0.3658946219657335	-1.104431126696028	0.3575781386023321	0.1868583162217659	-0.3727087576374745	0.7024793388429752
3772.491455078125	0.3398991042087757	-9.963432622972496	-1.996636806959186	0.3623554458007803	-0.003696764900147988	-0.003660522107009284	0.1991786447638604	-0.3828920570264766	0.7066115702479339
3792.022705078125	0.5167601047600197	-9.836247566127593	-1.892003492000653	-0.365968993794033	-0.3607872155293249	0.3650153214322821	0.1950718685831622	-0.3665987780040733	0.7148760330578513
3811.553955078125	0.616922481213147	-9.703861731074417	-2.230749373771563	0.3584815964084793	2.234572943753842	0.3837244171230887	0.188911704312115	-0.3869653767820774	0.7024793388429752
3831.085205078125	0.4076965965611523	-9.574844767111895	-1.92321988537174	0.7242274747176138	4.826291892783278	0.04102064418065664	0.1930184804928131	-0.3727087576374745	0.7024793388429752
3850.616455078125	0.1155372736370512	-9.702642948190688	-1.851242454568372	-0.7213576450073561	2.974631199313231	-0.3280036152064292	0.1991786447638604	-0.3645621181262729	0.7107438016528926
3870.147705078125	0.561498405808645	-9.855115515455203	-2.049946860288166	1.438581139223363	-1.10823900088901	1.069422309547781	0.1991786447638604	-0.3564154786150712	0.7086776859504132
3889.678955078125	0.4850308467943861	-9.653173359536481	-2.1676948931462	-0.003539176164953228	-1.108127891596177	0.3539176164953228	0.1868583162217659	-0.3665987780040733	0.7128099173553719
3909.210205078125	0.4869432455259728	-9.735888350613269	-1.898108184199091	-0.0002603013990482511	2.602753689083463	0.02603013990482511	0.1868583162217659	-0.3665987780040733	0.7148760330578513
3928.741455078125	0.08744196757044922	-9.838393763818889	-2.24806558568164	-0.003725105735701979	0.7509818863205826	0.3725105735701979	0.1950718685831622	-0.3482688391038696	0.7231404958677686
3948.272705078125	0.2178667724466323	-9.822889743575589	-1.928892414887742	-0.7354027919247198	-2.57334623382153	1.076511076529937	0.188911704312115	-0.3706720977596741	0.7148760330578513
3967.803955078125	0.594365639596827	-9.674488443197028	-2.14552131989423	-0.3693594263023872	-2.956202929458909	0.7040585722677049	0.1991786447638604	-0.3645621181262729	0.7024793388429752
3987.335205078125	0.4169841511433779	-9.735175124463641	-1.899471704779262	-0.3623182598866305	-0.3681251906832038	-5.806930796573191e-05	0.1868583162217659	-0.3645621181262729	0.7169421487603306
4006.866455078125	0.2767355314220913	-9.723855511506857	-1.891184380736375	-0.3624670035432295	1.119162631650203	0.01481629635193433	0.1868583162217659	-0.3564154786150712	0.7066115702479339
4026.397705078125	0.3128613349252903	-9.822174835040823	-2.095377830843009	-0.3659318078798833	-0.7326091711126765	0.3612967300173071	0.1827515400410678	-0.3808553971486761	0.7210743801652892
4045.928955078125	0.4436425951526805	-9.5532222275673	-2.12141983842268	-0.003725105735701979	0.7509818863205826	0.3725105735701979	0.1868583162217659	-0.3584521384928717	0.71900826446281
4065.460205078125	0.379531103489556	-9.733951609871712	-1.984370116318531	0.3621695162300315	1.855413013016611	0.0149324349678658	0.1930184804928131	-0.3788187372708757	0.7169421487603306
4084.991455078125	0.1165135827627025	-9.722327274906727	-1.883786092090082	0.3623554458007803	-0.003696764900147988	-0.003660522107009284	0.188911704312115	-0.3727087576374745	0.7272727272727273
4104.522705078125	0.3256251177998188	-9.634714545244725	-1.854170593327293	-0.003464804336653728	-1.85177180276288	0.3464804336653728	0.2094455852156057	-0.3625254582484725	0.7252066115702479
4124.053955078125	0.4826263504098054	-9.943950813367495	-2.087545013660179	0.3476781383428709	0.7692990468820715	1.464070223683932	0.188911704312115	-0.3645621181262729	0.71900826446281
4143.585205078125	0.5591554216306887	-9.765873080339411	-1.97184738768962	0.3549052343293763	1.498267007741017	0.7413606250333865	0.1663244353182751	-0.3523421588594705	0.7148760330578513
4163.116455078125	0.2773664258490065	-9.72365152230882	-1.912214194966882	-0.7210973436083078	0.3718775102297688	-0.3540337551112543	0.1868583162217659	-0.3686354378818737	0.7086776859504132
4182.647705078125	0.1225969822742325	-9.780360309064664	-2.086566075807748	0.3549796061576758	0.7546230965743135	0.7339234422034364	0.2114989733059548	-0.3543788187372708	0.7148760330578513
4202.178955078125	0.3809695427829227	-9.360153181166854	-2.365651426097421	0.3587790837216773	-0.7400027009129726	0.3539756858032885	0.1909650924024641	-0.3564154786150712	0.6942148760330579
4221.710205078125	0.2723602785714342	-9.471936843261902	-2.07867595238114	-0.007227095986505457	-0.7289679608589457	0.7227095986505457	0.188911704312115	-0.3910386965376782	0.7045454545454546
4241.241455078125	0.3759066150069281	-9.561790194481095	-2.1968871668976	-0.003390432508354228	-2.595415713929583	0.3390432508354227	0.188911704312115	-0.3747454175152749	0.6921487603305785
4260.772705078125	0.3528379602867731	-9.82258239284061	-2.094598676225769	-0.7245249620308118	-1.851716248116463	-0.01127191286085651	0.188911704312115	-0.3727087576374745	0.7148760330578513
4280.303955078125	0.4163982079443804	-9.765364579431317	-1.879940264812678	-0.01806773996626364	-1.822419902147364	1.806773996626364	0.188911704312115	-0.3625254582484725	0.7024793388429752
4299.835205078125	0.5299844405661963	-9.675305030883598	-1.99948135220654	-0.007301467814804958	0.01467595030775797	0.7301467814804957	0.1868583162217659	-0.3706720977596741	0.7128099173553719
4319.366455078125	0.5147128523446798	-9.663576177741888	-2.15709507815599	-0.00379947756400148	1.494625797487286	0.3799477564001479	0.2012320328542095	-0.3645621181262729	0.7210743801652892
4338.897705078125	0.4012464896639779	-9.833596968341981	-2.041549655465924	-1.087066337402341	0.01109029470044396	0.01098156632102785	0.1971252566735113	-0.3828920570264766	0.7004132231404959
4358.428955078125	0.4690132259130423	-9.635019056954784	-1.967107530434741	-0.007450211471403958	1.501963772641165	0.7450211471403958	0.1950718685831622	-0.3828920570264766	0.7128099173553719
4377.960205078125	0.09267444822367731	-9.82003526174101	-2.089148274122577	0.3588534555499768	-1.483646612079676	0.3465385029733385	0.2094455852156057	-0.3625254582484725	0.7045454545454546
4397.491455078125	0.2497269410058508	-9.812588289074776	-1.990898033528359	1.079802055501686	-0.3682362999760378	0.7154466237444929	0.1848049281314169	-0.3727087576374745	0.7024793388429752
4417.022705078125	0.3839166083746504	-9.922533629958863	-2.130553612488345	0.3626157471998285	-2.60645045398361	-0.02969066201183439	0.1991786447638604	-0.3767820773930753	0.7045454545454546
4436.553955078125	0.3982276598311885	-9.714573056654581	-1.940921994372947	1.438655511051662	-1.851882912055714	1.061985126717831	0.1848049281314169	-0.3727087576374745	0.7252066115702479
4456.085205078125	0.8198599256648642	-9.708245290701695	-1.995330855495472	0.7211717154366073	-1.115521421396473	0.3465965722813042	0.1827515400410678	-0.3767820773930753	0.7128099173553719
4475.616455078125	0.6653964658871441	-9.618188476029822	-1.846548862904801	-0.0002603013990482511	2.602753689083463	0.02603013990482511	0.1930184804928131	-0.360488798370672	0.7210743801652892
4495.147705078125	0.7498558800543517	-9.677546598782428	-1.995196001811718	0.3549424202435261	1.126445052157665	0.7376420336184115	0.1806981519507187	-0.3706720977596741	0.6942148760330579
4514.678955078125	0.2573781131682651	-9.723447743408927	-1.912603772275502	0.003501990250803478	1.479949847179528	-0.3501990250803478	0.1991786447638604	-0.3564154786150712	0.71900826446281
4534.210205078125	0.2409196548061143	-9.762102644946022	-2.030655160203811	0.3550167920718256	0.3828011409909618	0.7302048507884614	0.1806981519507187	-0.3727087576374745	0.6900826446280992
4553.741455078125	0.1846698963203871	-9.783623400189741	-1.822329877346237	-0.3621695162300315	-1.855413013016611	-0.0149324349678658	0.2114989733059548	-0.3747454175152749	0.71900826446281
4573.272705078125	0.2809861826234326	-9.82248113428509	-2.032872754114417	-0.7244505902025123	-2.595360159283167	-0.01870909569080654	0.1971252566735113	-0.3706720977596741	0.7252066115702479
4592.803955078125	0.4576965571302506	-9.805344779861219	-1.923218571008351	-0.01076627215145869	-1.837095852455122	1.076627215145868	0.2073921971252567	-0.3686354378818737	0.6942148760330579
4612.335205078125	0.5275200092110587	-9.926101863688423	-1.917333640368621	-0.7319379875880661	-0.7215744310586497	0.7300306428645642	0.2053388090349076	-0.3727087576374745	0.7272727272727273
4631.866455078125	0.5504380378867877	-9.77535836774994	-2.014601262892919	-0.7210973436083078	0.3718775102297688	-0.3540337551112543	0.1765913757700205	-0.3645621181262729	0.7024793388429752
4651.397705078125	0.3878880887920817	-9.69458285129056	-1.929602959736055	-0.7212089013507571	1.487343376979824	-0.3428779808663293	0.1991786447638604	-0.3564154786150712	0.71900826446281
4670.928955078125	0.1239344784592927	-9.619927851964828	-2.131149281976424	-1.079802055501686	0.3682362999760378	-0.7154466237444929	0.188911704312115	-0.3747454175152749	0.6983471074380165
4690.460205078125	0.1135034277282832	-9.959967225034521	-2.116780924276108	-0.007152724158205957	-1.472611872025649	0.7152724158205956	0.1909650924024641	-0.3808553971486761	0.7148760330578513
4709.991455078125	0.4437175138658767	-9.603198003850034	-2.123917128862552	-0.3622067021441813	-1.483591057433259	-0.01121384355289078	0.188911704312115	-0.360488798370672	0.7107438016528926
4729.522705078125	0.5590355516895748	-9.685911838287037	-1.967851722985823	-3.718591414975016e-05	0.3718219555833518	0.003718591414975016	0.1971252566735113	-0.3706720977596741	0.6962809917355373
4749.053955078125	0.46952346178081	-9.764854080690872	-1.984115392693664	-0.7137958757935028	0.3572015599220108	-1.08418053659175	0.1909650924024641	-0.3686354378818737	0.6900826446280992
4768.585205078125	0.2587905280665215	-9.612991062591826	-1.95968426888405	1.083341231666639	0.7398915916201386	0.36152900724917	0.1971252566735113	-0.3543788187372708	0.7272727272727273
4788.116455078125	0.3457782516495918	-9.744865031966633	-1.859275054986392	0.003501990250803478	1.479949847179528	-0.3501990250803478	0.188911704312115	-0.3645621181262729	0.6983471074380165
4807.647705078125	0.2550595761493517	-9.790864070378376	-2.168652538311721	-0.717483795615055	0.7363614906592416	-0.7153885544365272	0.1827515400410678	-0.3767820773930753	0.7004132231404959
4827.178955078125	0.3062172279918394	-9.740989762949306	-2.207240933061313	7.437182829950031e-05	-0.7436439111667036	-0.007437182829950031	0.1909650924024641	-0.3727087576374745	0.7169421487603306
4846.710205078125	0.5212970243075737	-9.704780628807217	-2.043234143585788	-0.3658574360515838	-1.47625308227938	0.3538595471873571	0.2012320328542095	-0.3482688391038696	0.6983471074380165
4866.241455078125	0.2863401104538418	-9.464083364286592	-1.878003681794726	-0.3625041894573793	1.490984587233555	0.01853488776690934	0.1950718685831622	-0.3828920570264766	0.7169421487603306
4885.772705078125	0.1276583328141598	-9.998723805723422	-2.255277760471993	0.003539176164953228	1.108127891596177	-0.3539176164953228	0.188911704312115	-0.3706720977596741	0.7024793388429752
4905.303955078125	0.005310553838558845	-9.858282920925532	-2.177018461285295	-0.01080345806560844	-1.46527389687177	1.080345806560844	0.1930184804928131	-0.3665987780040733	0.7107438016528926
4924.835205078125	0.3407405596506738	-9.893160552379616	-2.024685321689125	-0.003464804336653728	-1.85177180276288	0.3464804336653728	0.1806981519507187	-0.3686354378818737	0.6983471074380165
4944.366455078125	0.5311862944494697	-9.634916431461338	-2.039543148315656	-0.3586303400650783	-0.7472851214204346	-0.3688500514631886	0.1827515400410678	-0.3747454175152749	0.7293388429752067
4963.897705078125	0.1935828573366319	-9.694074876127821	-1.786095244554395	-0.7210229717800084	-0.3717664009369348	-0.3614709379412043	0.1971252566735113	-0.3706720977596741	0.7045454545454546
4983.428955078125	0.2099758604019901	-9.752107805136689	-1.999195346733005	-1.090679885395594	-0.3533936857290289	0.3723363656463007	0.1950718685831622	-0.360488798370672	0.6962809917355373
5002.960205078125	0.4510674339394389	-9.734154863026248	-2.035581131314629	-0.003687919821552229	0.3791599307372308	0.3687919821552229	0.2094455852156057	-0.3788187372708757	0.7210743801652892
5022.491455078125	0.423503656427513	-9.663067151088438	-2.116788547583766	0.003464804336653728	1.85177180276288	-0.3464804336653728	0.2053388090349076	-0.3665987780040733	0.7066115702479339
5042.022705078125	0.1048018163450551	-9.769447412715101	-2.16006054483517	-0.7136471321369039	-1.130086262411396	-1.09905490225165	0.188911704312115	-0.3625254582484725	0.7231404958677686
5061.553955078125	0.3633928240490647	-9.845836320224137	-1.779760801635489	-0.007152724158205957	-1.472611872025649	0.7152724158205956	0.2094455852156057	-0.3645621181262729	0.6942148760330579
5081.085205078125	0.3197018077491186	-9.613296415494451	-1.990060258303951	-0.007115538244056207	-1.844433827609001	0.7115538244056206	0.1950718685831622	-0.3869653767820774	0.7169421487603306
5100.616455078125	0.6847333800720956	-9.745269540443356	-2.157779335736515	-0.3587790837216773	0.7400027009129726	-0.3539756858032885	0.188911704312115	-0.3686354378818737	0.7066115702479339
5120.147705078125	0.3367154532069547	-9.734462003463085	-1.890515106898489	-1.79736022294504	1.848241701801983	-1.42339799535107	0.1971252566735113	-0.3665987780040733	0.7148760330578513
5139.678955078125	0.009266261895317254	-9.830337241987182	-1.975542063177242	-0.3587790837216773	0.7400027009129726	-0.3539756858032885	0.1745379876796715	-0.3890020366598778	0.7045454545454546
5159.210205078125	0.1606517454877248	-9.551389268958969	-2.021724849590826	-0.365968993794033	-0.3607872155293249	0.3650153214322821	0.2114989733059548	-0.3849287169042769	0.7210743801652892
5178.741455078125	0.5939295338242219	-9.804629450730168	-2.130984460807392	-0.3658946219657335	-1.104431126696028	0.3575781386023321	0.2032854209445585	-0.3686354378818737	0.6983471074380165
5198.272705078125	0.434939406533385	-9.782702925220871	-2.164646884446165	-0.3550539779859753	-0.01097918540760998	-0.7264862593734864	0.1909650924024641	-0.3706720977596741	0.6983471074380165
5217.803955078125	0.1531354270090636	-9.730486211933737	-2.104514233635453	-0.36239263171493	0.3755187204834998	0.007379113521984299	0.188911704312115	-0.3584521384928717	0.7024793388429752
5237.335205078125	0.4215959894041281	-9.653683963425998	-2.05319964680427	-0.7392766413170208	-0.3350765251675399	1.463896015760035	0.1950718685831622	-0.3441955193482688	0.7024793388429752
5256.866455078125	0.5567012423099884	-9.953333264986437	-2.22337474366628	0.003464804336653728	1.85177180276288	-0.3464804336653728	0.1848049281314169	-0.3869653767820774	0.7086776859504132
5276.397705078125	0.3293197932874411	-9.783519933503726	-1.977326442914701	-0.0001859295707487508	1.859109777916759	0.01859295707487508	0.1991786447638604	-0.3706720977596741	0.7086776859504132
5295.928955078125	0.01676680801330556	-9.851245398742364	-1.892226933776852	0.003576362079102979	0.7363059360128246	-0.3576362079102978	0.1971252566735113	-0.3645621181262729	0.7169421487603306
5315.460205078125	0.2440946310095652	-9.634409402640241	-1.803154366985505	0.3477896960853201	-0.3461668198679838	1.452914449439007	0.1930184804928131	-0.3706720977596741	0.7128099173553719
5334.991455078125	0.5794134416789364	-9.945989653857144	-1.980448055964541	-0.3768096377737912	-1.454239156817743	1.449079719408101	0.1909650924024641	-0.3706720977596741	0.7148760330578513
5354.522705078125	0.5180826172024406	-9.66581995377121	-1.936087240081354	-0.01076627215145869	-1.837095852455122	1.076627215145868	0.1909650924024641	-0.3788187372708757	0.71900826446281
5374.053955078125	0.5081286803817858	-9.622371726676556	-2.270956012726192	0.01076627215145869	1.837095852455122	-1.076627215145868	0.2094455852156057	-0.3706720977596741	0.7148760330578513
5393.585205078125	0.1550036631307663	-9.573215482254385	-1.833455437692209	-0.7175209815292047	1.108183446242593	-0.7116699630215522	0.1971252566735113	-0.3910386965376782	0.6983471074380165
5413.116455078125	0.2610325691361715	-9.915599469312639	-1.701085637872382	-0.728212881852364	-1.472556317379232	0.3575200692943664	0.1868583162217659	-0.3625254582484725	0.7107438016528926
5432.647705078125	0.5732503917460082	-9.764649040002125	-2.108346391533607	-0.007189910072355707	-1.100789916442297	0.7189910072355706	0.1909650924024641	-0.3625254582484725	0.7066115702479339
5452.178955078125	0.7052926522091952	-9.705288709119026	-2.176421740306504	-0.3515891736493216	1.84079261735527	-1.072966693038859	0.1971252566735113	-0.3584521384928717	0.7004132231404959
5471.710205078125	0.2742222057488678	-9.661334820141199	-2.140740191628925	-0.3625785612856788	2.234628498400259	0.02597207059685937	0.188911704312115	-0.3767820773930753	0.7231404958677686
5491.241455078125	0.3195007101505393	-9.830028103717993	-2.31669033835131	-0.007041166415756707	-2.588077738775705	0.7041166415756707	0.1930184804928131	-0.3625254582484725	0.7024793388429752
5510.772705078125	0.1625136726651583	-9.740787245838266	-2.08378908883861	-0.3620579584875823	-2.970878879766667	-0.02608820921279084	0.2094455852156057	-0.3727087576374745	0.6962809917355373
5530.303955078125	0.423353030383087	-9.773115853509468	-2.111767679436233	-0.007264281900655208	-0.3571460052755938	0.7264281900655207	0.1950718685831622	-0.3808553971486761	0.6880165289256198
5549.835205078125	0.3981227736327139	-9.644606969858755	-1.937425787757125	-0.373270461608838	-0.3461112652215669	1.095162102912778	0.2094455852156057	-0.360488798370672	0.7004132231404959
5569.366455078125	0.4085979869736074	-9.544553317545201	-1.953266232453577	-0.01095220172220744	0.02201392546163695	1.095220172220744	0.1950718685831622	-0.3828920570264766	0.7045454545454546
5588.897705078125	0.3982276598311885	-9.714573056654581	-1.940921994372947	-0.003576362079102979	-0.7363059360128246	0.3576362079102978	0.1868583162217659	-0.3727087576374745	0.7210743801652892
5608.428955078125	0.441674204540705	-9.713858673865172	-2.055806818023497	0.007003980501606956	2.959899694359057	-0.7003980501606956	0.2073921971252567	-0.3645621181262729	0.71900826446281
5627.960205078125	-0.239806126142609	-9.717537314119443	-2.006462461913035	0.3621695162300315	1.855413013016611	0.0149324349678658	0.1827515400410678	-0.3686354378818737	0.7231404958677686
5647.491455078125	0.2710977010995702	-9.682345076644472	-2.036590036652338	0.3515891736493216	-1.84079261735527	1.072966693038859	0.2012320328542095	-0.3625254582484725	0.7086776859504132
5667.022705078125	1.017520726853469	-9.491001631650711	-1.917357561782308	7.437182829950031e-05	-0.7436439111667036	-0.007437182829950031	0.188911704312115	-0.3890020366598778	0.7231404958677686
5686.553955078125	0.6165762778963773	-9.893973670146837	-2.219209263212572	-0.3553514652991733	2.963596459259204	-0.6967375280536863	0.1909650924024641	-0.3788187372708757	0.7169421487603306
5706.085205078125	0.4040705308424571	-9.822683861694271	-2.135684361415233	-0.3623554458007803	0.003696764900147988	0.003660522107009284	0.1950718685831622	-0.3686354378818737	0.7148760330578513
5725.616455078125	0.3613558236681622	-9.609828283680628	-2.378527455605405	-0.3694709840448365	-1.840737062708853	0.7152143465126299	0.1909650924024641	-0.3971486761710794	0.7045454545454546
5745.147705078125	0.5435691748137482	-9.544245966810221	-2.118972493791604	-1.079504568188488	-2.606339344690777	-0.745195355064293	0.2094455852156057	-0.3808553971486761	0.7148760330578513
5764.678955078125	0.1559941673810232	-9.81289521921347	-1.866472246034105	-0.3551655357284246	1.104486681342445	-0.7153304851285613	0.2094455852156057	-0.3564154786150712	0.6859504132231405
5784.210205078125	0.117715436645976	-9.681938675484467	-1.923847888199198	-0.003650733907402479	0.007337975153878983	0.3650733907402479	0.2012320328542095	-0.3645621181262729	0.6859504132231405
5803.741455078125	0.4217016642206364	-9.513649795235327	-2.05672214068788	-0.01087782989390794	-0.7216299857050666	1.087782989390794	0.2032854209445585	-0.3645621181262729	0.6983471074380165
5823.272705078125	0.3865458608988196	-9.781683504976048	-2.218195363293984	-0.358816269635827	1.111824656496325	-0.3502570943883135	0.1848049281314169	-0.3645621181262729	0.7086776859504132
5842.803955078125	0.4731731860405146	-9.883674003180236	-2.105772868017149	0.362243888058331	1.111769101849907	0.007495252137915762	0.2094455852156057	-0.3747454175152749	0.71900826446281
5862.335205078125	0.3226212717096688	-9.525685788813874	-1.75404239032229	-0.3622810739724808	-0.7399471462665556	-0.003776660722940747	0.1971252566735113	-0.3727087576374745	0.6921487603305785
5881.866455078125	0.5144888848231248	-9.303648593907191	-2.14962949410416	-0.003501990250803478	-1.479949847179528	0.3501990250803478	0.1971252566735113	-0.3828920570264766	0.71900826446281
5901.397705078125	0.5112129655113676	-9.644707807817991	-2.040432183712251	-0.362541375371529	1.862806542816907	0.02225347918188436	0.2032854209445585	-0.3665987780040733	0.6983471074380165
5920.928955078125	0.8819281080028172	-9.638176578412423	-2.064270266760565	-0.0003346732273477514	3.346397600250166	0.03346732273477514	0.1827515400410678	-0.3665987780040733	0.7231404958677686
5940.460205078125	0.1028491980937525	-9.730078759283021	-2.094973269791749	-0.003687919821552229	0.3791599307372308	0.3687919821552229	0.2053388090349076	-0.3625254582484725	0.71900826446281
5959.991455078125	0.4835237977320923	-9.630327305399957	-2.450793257736409	-0.7247108916015605	0.007393529800295976	0.007321044214018567	0.1724845995893224	-0.3727087576374745	0.7024793388429752
5979.522705078125	0.2936395589732509	-9.701723209265317	-2.121318632441695	-0.3621323303158818	-2.227234968599963	-0.01865102638284081	0.2073921971252567	-0.3665987780040733	0.7128099173553719
5999.053955078125	0.3625773930022768	-9.652766642929263	-2.085913100075891	0.3551283498142748	-0.7326647257590937	0.7190490765435364	0.1745379876796715	-0.3645621181262729	0.7210743801652892
6018.585205078125	0.6170336763558908	-9.427159111311596	-1.901122545196357	-0.003539176164953228	-1.108127891596177	0.3539176164953228	0.2012320328542095	-0.3808553971486761	0.7128099173553719
6038.116455078125	0.4700644537518898	-9.704679159953557	-2.002148458396324	-0.3625041894573793	1.490984587233555	0.01853488776690934	0.2012320328542095	-0.3686354378818737	0.7128099173553719
6057.647705078125	0.5054245091444205	-9.713246075376636	-2.18081697148068	-0.358816269635827	1.111824656496325	-0.3502570943883135	0.2053388090349076	-0.3706720977596741	0.71900826446281
6077.178955078125	0.3210684828014237	-9.682854523894207	-2.035616093380787	-0.3660061797081828	0.01103474005402697	0.3687339128472572	0.2012320328542095	-0.360488798370672	0.7169421487603306
6096.710205078125	0.3446008449253613	-9.941912393474134	-2.153361497512041	0.3588534555499768	-1.483646612079676	0.3465385029733385	0.2135523613963039	-0.3584521384928717	0.7066115702479339
6116.241455078125	0.496652710756198	-9.54608229018883	-1.888423691873265	-0.3585559682367788	-1.490929032587138	-0.3762872342931387	0.1950718685831622	-0.3767820773930753	0.6962809917355373
6135.772705078125	0.5154383809356323	-9.796674923497479	-1.84794603118774	-0.3622067021441813	-1.483591057433259	-0.01121384355289078	0.2073921971252567	-0.3788187372708757	0.7045454545454546
6155.303955078125	0.5646828454284996	-9.87408587997812	-2.156094847616651	-0.007598955128002959	2.989251594974572	0.7598955128002959	0.1909650924024641	-0.3706720977596741	0.7024793388429752
6174.835205078125	-0.01404686441526734	-9.857875152827603	-2.198437852824422	0.3586303400650783	0.7472851214204346	0.3688500514631886	0.1848049281314169	-0.360488798370672	0.7086776859504132
6194.366455078125	0.3089860659079636	-9.763427838689759	-1.966202196932118	-0.3585931541509285	-1.119107077003786	-0.3725686428781636	0.2012320328542095	-0.3706720977596741	0.7107438016528926
6213.897705078125	0.5321673352833229	-9.727932561591727	-1.738911176110762	0.358816269635827	-1.111824656496325	0.3502570943883135	0.1991786447638604	-0.360488798370672	0.7148760330578513
6233.428955078125	0.6077453331556315	-9.476829008946345	-1.924844438521047	-0.7247480775157102	0.3792154853836477	0.01103963562899358	0.1971252566735113	-0.3665987780040733	0.7024793388429752
6252.960205078125	0.5215675202931136	-9.67469316843856	-2.052250676437118	0.7245249620308118	1.851716248116463	0.01127191286085651	0.2176591375770021	-0.3828920570264766	0.6880165289256198
6272.491455078125	0.3553922940977461	-9.631756491575063	-2.179743136591535	-0.3515148018210221	1.097148706188567	-1.080403875868809	0.2012320328542095	-0.3645621181262729	0.7045454545454546
6292.022705078125	0.123067787240318	-9.743541415458965	-1.768926241343931	-0.007264281900655208	-0.3571460052755938	0.7264281900655207	0.1971252566735113	-0.3686354378818737	0.7107438016528926
6311.553955078125	0.4764688208031129	-9.625941747940326	-1.882294026770428	-0.358667525979228	-0.3754631658370828	-0.3651314600482136	0.1991786447638604	-0.3523421588594705	0.7086776859504132
6331.085205078125	0.3668887677922086	-9.581372631747186	-2.22962559307362	-0.72478526342986	0.7510374409669995	0.0147582270439686	0.188911704312115	-0.3727087576374745	0.7086776859504132
6350.616455078125	0.3097226351513871	-9.623189681301051	-1.990754505046235	-0.3550167920718256	-0.3828011409909618	-0.7302048507884614	0.2032854209445585	-0.3482688391038696	0.7128099173553719
6370.147705078125	0.3607596284347273	-9.703354386806105	-2.025320947824242	-0.3696197277014355	-0.3534492403754458	0.73008871217253	0.2032854209445585	-0.3645621181262729	0.7086776859504132
6389.678955078125	0.4224366562279927	-9.793412147819614	-2.081221874266421	-0.3695825417872857	-0.7252711959587976	0.726370120757555	0.1991786447638604	-0.3828920570264766	0.7128099173553719
6409.210205078125	0.4332714793922279	-9.93324222166318	-2.109049313074262	-0.3625041894573793	1.490984587233555	0.01853488776690934	0.2032854209445585	-0.3767820773930753	0.6900826446280992
6428.741455078125	0.1435071894363037	-9.623599342082262	-1.783572981210124	-0.7248224493440097	1.122859396550351	0.01847681845894361	0.188911704312115	-0.3645621181262729	0.7128099173553719
6448.272705078125	0.1981339720087915	-9.78260334905049	-1.937799066959717	-0.3659318078798833	-0.7326091711126765	0.3612967300173071	0.1971252566735113	-0.3767820773930753	0.6962809917355373
6467.803955078125	0.4941385964649408	-9.693561853809669	-2.137953215498027	-0.007189910072355707	-1.100789916442297	0.7189910072355706	0.1971252566735113	-0.3584521384928717	0.7128099173553719
6487.335205078125	0.6224104741092757	-9.645420613371334	-2.080349136975855	-0.3587790837216773	0.7400027009129726	-0.3539756858032885	0.1868583162217659	-0.3971486761710794	0.7107438016528926
6506.866455078125	0.5092146074141136	-9.78535394360277	-1.973820247137119	-0.3587790837216773	0.7400027009129726	-0.3539756858032885	0.188911704312115	-0.3564154786150712	0.7148760330578513
6526.397705078125	0.4456740752073475	-9.925898715682957	-1.85580250691158	-0.365968993794033	-0.3607872155293249	0.3650153214322821	0.1930184804928131	-0.3706720977596741	0.7107438016528926
6545.928955078125	0.3648501901752388	-9.765365105176674	-1.82833967250796	0.3514032440785728	0.01831716056148896	1.091559650113734	0.2032854209445585	-0.3727087576374745	0.6900826446280992
6565.460205078125	0.5584945597184949	-9.746086759024355	-1.949818657283164	0.003390432508354228	2.595415713929583	-0.3390432508354227	0.1971252566735113	-0.3665987780040733	0.6962809917355373
6584.991455078125	0.0819295275152775	-9.740176119436727	-2.064317583842583	-0.00379947756400148	1.494625797487286	0.3799477564001479	0.2073921971252567	-0.3645621181262729	0.7107438016528926
6604.522705078125	0.363673572069042	-9.752412211697676	-2.122452402301398	-0.3622810739724808	-0.7399471462665556	-0.003776660722940747	0.2053388090349076	-0.3706720977596741	0.7066115702479339
6624.053955078125	0.2873708342238146	-9.660416763600967	-2.245694474127151	0.3442877058345166	-1.826116667047512	1.803113474519355	0.188911704312115	-0.3645621181262729	0.6983471074380165
6643.585205078125	0.2709328799305386	-9.572398368822459	-2.031095997684617	-0.003501990250803478	-1.479949847179528	0.3501990250803478	0.2032854209445585	-0.3584521384928717	0.7045454545454546
6663.116455078125	0.3493081059681825	-9.783723712403621	-1.97693686560608	0.0001115577424492505	-1.115465866750055	-0.01115577424492505	0.188911704312115	-0.3727087576374745	0.7107438016528926
6682.647705078125	0.3287646061917557	-9.623699443997999	-1.958820206391854	-0.36239263171493	0.3755187204834998	0.007379113521984299	0.1909650924024641	-0.3584521384928717	0.6942148760330579
6702.178955078125	0.02948011933368085	-9.770468094748777	-1.982670644456028	0.3551655357284246	-1.104486681342445	0.7153304851285613	0.1991786447638604	-0.3441955193482688	0.7169421487603306
6721.710205078125	0.3219399057286003	-9.632572763814421	-2.064663524286675	-3.718591414975016e-05	0.3718219555833518	0.003718591414975016	0.1971252566735113	-0.3747454175152749	0.7024793388429752
6741.241455078125	0.7455697410414964	-9.695599117063249	-2.185658034716543	-0.369694099529735	0.3901946707912577	0.73752589500248	0.2114989733059548	-0.3645621181262729	0.7045454545454546
6760.772705078125	0.3699572805611175	-9.803713812618572	-1.998576018703917	-0.7212832731790566	2.230987288146528	-0.3354407980363792	0.2012320328542095	-0.3747454175152749	0.6818181818181819
6780.303955078125	0.06472030478509765	-9.699073768119487	-2.157343492836588	0.3475665806004216	1.884764913632127	1.475225997928857	0.2032854209445585	-0.3727087576374745	0.7045454545454546
6799.835205078125	0.4368478621748035	-9.582085857896814	-2.22826207249345	0.3517007313917708	-2.956258484105325	1.061810918793934	0.1971252566735113	-0.3686354378818737	0.7066115702479339
6819.366455078125	0.2850475654966993	-9.654501287156068	-1.834918849889975	-0.3622810739724808	-0.7399471462665556	-0.003776660722940747	0.2114989733059548	-0.3564154786150712	0.7086776859504132
6838.897705078125	0.1501465646615527	-9.631452610759432	-2.004885488718425	-0.3550167920718256	-0.3828011409909618	-0.7302048507884614	0.2012320328542095	-0.3645621181262729	0.6983471074380165
6858.428955078125	0.4914841081636951	-9.88775347169374	-1.716136938789834	-0.7356259074096183	-0.3424145003214189	1.098822625019787	0.2053388090349076	-0.3828920570264766	0.7128099173553719
6877.960205078125	0.4414936110110005	-9.80391706577311	-2.049787033700014	-0.003725105735701979	0.7509818863205826	0.3725105735701979	0.1930184804928131	-0.3523421588594705	0.7148760330578513
6897.491455078125	0.3437901455867753	-9.822174519593609	-2.12633818622584	-0.3587047118933778	-0.003641210253730994	-0.3614128686332386	0.1848049281314169	-0.3706720977596741	0.6942148760330579
6917.022705078125	0.3028230159750355	-9.582087224834739	-2.094100532501184	-0.358667525979228	-0.3754631658370828	-0.3651314600482136	0.1786447638603696	-0.3665987780040733	0.6942148760330579
6936.553955078125	0.3012449912897139	-9.792597452816326	-2.041499709657127	-0.3768096377737912	-1.454239156817743	1.449079719408101	0.2114989733059548	-0.3625254582484725	0.7107438016528926
6956.085205078125	0.7060789043887383	-9.668367820914309	-1.869296812957941	-0.3697312854438847	0.7620166263746095	0.741244486417455	0.188911704312115	-0.3625254582484725	0.7066115702479339
6975.616455078125	0.5001368252288373	-9.764955759842676	-2.004560840961241	-0.7215435745781048	4.83374097722999	-0.3094106581315541	0.2012320328542095	-0.3584521384928717	0.7107438016528926
6995.147705078125	0.3237277028108713	-9.561994709424486	-2.124256760362375	0.3620579584875823	2.970878879766667	0.02608820921279084	0.1786447638603696	-0.3665987780040733	0.6921487603305785
7014.678955078125	-0.02298979291679056	-9.927433366376428	-2.233673569440315	-0.01091501580805769	-0.3498080301217149	1.091501580805769	0.1868583162217659	-0.3625254582484725	0.6838842975206612
7034.210205078125	0.6786200130752871	-9.667246195772325	-1.9540004358429	0.3550911639001251	-0.3608427701757418	0.7227676679585114	0.1991786447638604	-0.3828920570264766	0.7231404958677686
7053.741455078125	0.2800406296010934	-9.612786863095646	-2.001354320036445	0.735811836980367	-1.51669527759534	-1.117415582094662	0.1930184804928131	-0.3727087576374745	0.7272727272727273
7073.272705078125	0.3908225364952712	-9.616967379866528	-1.694084549842368	-0.35837003866603	-3.350038810503897	-0.3948801913680137	0.1806981519507187	-0.3706720977596741	0.7210743801652892
7092.803955078125	0.6571845863028088	-9.684176983762091	-2.239486210093627	0.7213204590932063	-2.60280924372988	0.3317222066214042	0.1991786447638604	-0.3767820773930753	0.7169421487603306
7112.335205078125	0.6148649767633697	-9.594526990846511	-2.162165892112321	-0.3660805515364823	0.7546786512207306	0.3761710956772072	0.1909650924024641	-0.3665987780040733	0.7107438016528926
7131.866455078125	0.4377681794200661	-9.845121621987513	-1.925605980668869	-0.7213576450073561	2.974631199313231	-0.3280036152064292	0.1930184804928131	-0.3808553971486761	0.7231404958677686
7151.397705078125	0.1260874056911409	-9.652565072159865	-1.869580189704697	-0.366266481107231	2.61378842913749	0.3947640527520823	0.1950718685831622	-0.3645621181262729	0.7086776859504132
7170.928955078125	0.4057282059491768	-9.735481213409766	-1.857606864972557	0.7211345295224576	-0.7436994658131205	0.3503151636962792	0.1971252566735113	-0.3767820773930753	0.7004132231404959
7190.460205078125	0.3338914120284755	-9.745375110110794	-1.796380400949181	1.083527161237388	-1.11921818629662	0.342936050174295	0.2094455852156057	-0.3747454175152749	0.7024793388429752
7209.991455078125	0.6202622785856294	-9.686115196590647	-2.008742619520977	0.0001487436565990006	-1.487287822333407	-0.01487436565990006	0.1930184804928131	-0.3747454175152749	0.6983471074380165
7229.522705078125	0.4911197666321516	-9.574537942122269	-2.037325554405049	-0.72478526342986	0.7510374409669995	0.0147582270439686	0.1950718685831622	-0.3686354378818737	0.6921487603305785
7249.053955078125	0.4450250425656584	-9.422775236237104	-2.167501418855279	-0.7356259074096183	-0.3424145003214189	1.098822625019787	0.2135523613963039	-0.3788187372708757	0.7045454545454546
7268.585205078125	0.5639920160310274	-9.834309248149967	-2.133067201034246	-0.3624298176290798	0.7473406760668516	0.01109770493695932	0.2073921971252567	-0.3564154786150712	0.7107438016528926
7288.116455078125	0.2626957645691267	-9.691728369455983	-2.08985881897089	-0.7283988114231127	0.3865534605375267	0.3761130263692414	0.1827515400410678	-0.3747454175152749	0.7107438016528926
7307.647705078125	0.4744404952205805	-9.746597573212012	-1.814683174019347	-0.3622067021441813	-1.483591057433259	-0.01121384355289078	0.2053388090349076	-0.3869653767820774	0.7210743801652892
7327.178955078125	0.2491118189396084	-9.61278717854286	-1.970393964653614	0.0001487436565990006	-1.487287822333407	-0.01487436565990006	0.1971252566735113	-0.3727087576374745	0.6859504132231405
7346.710205078125	0.45305001967602	-9.79351382697142	-2.101667322533998	-0.007227095986505457	-0.7289679608589457	0.7227095986505457	0.1868583162217659	-0.3625254582484725	0.6983471074380165
7366.241455078125	0.6826861276567556	-9.572598152057648	-2.422870921891852	-0.3660061797081828	0.01103474005402697	0.3687339128472572	0.1848049281314169	-0.3706720977596741	0.7128099173553719
7385.772705078125	0.5762148069344761	-9.707023879091187	-1.87382689781587	-0.72478526342986	0.7510374409669995	0.0147582270439686	0.1930184804928131	-0.3686354378818737	0.7252066115702479
7405.303955078125	0.4321311377155787	-9.593610932138629	-2.07103792385262	1.079541754102638	2.234517389107425	0.7414767636493179	0.1930184804928131	-0.3706720977596741	0.6942148760330579
7424.835205078125	0.215820308649326	-9.440218100203385	-2.194010288310867	-0.0001859295707487508	1.859109777916759	0.01859295707487508	0.188911704312115	-0.3665987780040733	0.7107438016528926
7444.366455078125	0.2227341229502832	-9.701315966912743	-2.091137431676105	-0.003762291649851729	1.122803841903934	0.3762291649851729	0.2094455852156057	-0.3727087576374745	0.7107438016528926
7463.897705078125	0.5724988387599456	-9.894892042134284	-2.083294625331515	-1.083378417580789	-0.3680696360367868	-0.357810415834195	0.2053388090349076	-0.3665987780040733	0.6942148760330579
7483.428955078125	0.7810252192160979	-9.627468512453461	-2.03417397386993	-0.7283988114231127	0.3865534605375267	0.3761130263692414	0.1971252566735113	-0.3788187372708757	0.7004132231404959
7502.960205078125	0.371894915069781	-9.833087310794104	-2.063163835659362	0.3585559682367788	1.490929032587138	0.3762872342931387	0.2032854209445585	-0.3706720977596741	0.6962809917355373
7522.491455078125	0.6603090909521065	-9.663166727258819	-2.343636365070215	0.3587047118933778	0.003641210253730994	0.3614128686332386	0.2012320328542095	-0.3788187372708757	0.6983471074380165
7542.022705078125	0.3824150796385922	-9.763019124250189	-2.080502654619738	0.3549424202435261	1.126445052157665	0.7376420336184115	0.1950718685831622	-0.3564154786150712	0.6838842975206612
7561.553955078125	0.281062678572696	-9.452456400594828	-2.035422619089866	-0.01084064397975819	-1.093451941288418	1.084064397975818	0.1971252566735113	-0.3727087576374745	0.7272727272727273
7581.085205078125	0.3884890157337185	-9.674388551579431	-1.949633857790613	-0.3623554458007803	0.003696764900147988	0.003660522107009284	0.188911704312115	-0.360488798370672	0.7169421487603306
7600.616455078125	0.3651806211313357	-9.775258265834202	-1.839354037711189	-0.007301467814804958	0.01467595030775797	0.7301467814804957	0.1868583162217659	-0.3727087576374745	0.7148760330578513
7620.147705078125	0.4904738884625971	-9.56474677606376	-2.015796282086567	-0.007264281900655208	-0.3571460052755938	0.7264281900655207	0.1930184804928131	-0.3767820773930753	0.7045454545454546
7639.678955078125	0.5831995968584612	-9.734765463682431	-2.106653228615373	7.437182829950031e-05	-0.7436439111667036	-0.007437182829950031	0.1930184804928131	-0.3849287169042769	0.7066115702479339
7659.210205078125	0.3539499117142112	-9.722222861879072	-2.131663723807038	-0.007301467814804958	0.01467595030775797	0.7301467814804957	0.1991786447638604	-0.35030549898167	0.7066115702479339
7678.741455078125	0.1957760040881959	-9.683365758678148	-1.859200136273196	-0.7282872536806635	-0.7289124062125286	0.3649572521243164	0.1950718685831622	-0.3869653767820774	0.7148760330578513
7698.272705078125	0.4601302323820761	-9.744557891529796	-2.004341079402532	-0.728361625508963	0.01473150495417496	0.3723944349542664	0.1765913757700205	-0.3706720977596741	0.6942148760330579
7717.803955078125	0.7918900098656116	-9.78728889681012	-2.06300032885372	-1.445956978866467	1.866558862363472	-0.3318383452373356	0.1991786447638604	-0.3584521384928717	0.6962809917355373
7737.335205078125	0.3066422931119736	-9.884185658560463	-1.888076437065783	0.003353246594204478	2.967237669512935	-0.3353246594204478	0.2012320328542095	-0.3706720977596741	0.6962809917355373
7756.866455078125	0.04347020325052581	-9.699277967615664	-2.115673441684194	-0.3549796061576758	-0.7546230965743135	-0.7339234422034364	0.1930184804928131	-0.3584521384928717	0.7024793388429752
7776.397705078125	0.2120641209550795	-9.671432600891192	-2.068804031835984	-0.007003980501606956	-2.959899694359057	0.7003980501606956	0.2012320328542095	-0.3584521384928717	0.7045454545454546
7795.928955078125	0.4578613782992822	-9.915291487683232	-1.928712609976071	-0.7281013241099148	-2.588022184129287	0.3463642950494413	0.2012320328542095	-0.3706720977596741	0.7045454545454546
7815.460205078125	0.6223197830354067	-9.795449936818551	-2.07732610118022	-3.718591414975016e-05	0.3718219555833518	0.003718591414975016	0.1868583162217659	-0.3828920570264766	0.7066115702479339
7834.991455078125	0.4341026827996887	-9.926306799228101	-1.803422759989622	0.003501990250803478	1.479949847179528	-0.3501990250803478	0.1991786447638604	-0.3645621181262729	0.7004132231404959
7854.522705078125	0.2474438917984513	-9.763326474985167	-1.91479639328171	0.3586303400650783	0.7472851214204346	0.3688500514631886	0.2012320328542095	-0.3625254582484725	0.6900826446280992
7874.053955078125	0.5396883854701859	-9.622167422031307	-2.32294618233953	0.7209114140375591	1.48723226768699	0.3726267121861294	0.1806981519507187	-0.3686354378818737	0.6880165289256198
7893.585205078125	0.2279610832772758	-9.819625916407015	-2.265369442575858	0.003539176164953228	1.108127891596177	-0.3539176164953228	0.1991786447638604	-0.3686354378818737	0.7231404958677686
7913.116455078125	-0.1167367616662237	-9.70774488627208	-2.108774611125876	0.3660433656223325	-0.3828566956373787	-0.3724525042622321	0.1868583162217659	-0.3890020366598778	0.7086776859504132
7932.647705078125	0.348407504173761	-9.604014906983819	-1.946916805792031	0.358816269635827	-1.111824656496325	0.3502570943883135	0.1971252566735113	-0.3686354378818737	0.7086776859504132
7952.178955078125	0.4117713859409909	-9.836860585212412	-1.725712864699696	-0.3622810739724808	-0.7399471462665556	-0.003776660722940747	0.1806981519507187	-0.3930753564154786	0.7252066115702479
7971.710205078125	0.5498071434598725	-9.775562356947974	-1.993571448662412	-0.007227095986505457	-0.7289679608589457	0.7227095986505457	0.1950718685831622	-0.3584521384928717	0.7045454545454546
7991.241455078125	0.5690139356692726	-9.886018827466938	-1.967131188975751	0.3587047118933778	0.003641210253730994	0.3614128686332386	0.2094455852156057	-0.3747454175152749	0.6983471074380165
8010.772705078125	0.483048261057805	-9.593814395591309	-2.101608701926831	-0.3622067021441813	-1.483591057433259	-0.01121384355289078	0.1930184804928131	-0.3686354378818737	0.71900826446281
8030.303955078125	0.3758916312642888	-9.551795039224547	-2.196387708809626	-0.00387384939230098	2.23826970865399	0.387384939230098	0.1909650924024641	-0.3686354378818737	0.6900826446280992
8049.835205078125	0.1175955667048621	-9.601977433432095	-1.919852223495402	-1.079876427329985	1.111880211142741	-0.7080094409145429	0.1950718685831622	-0.3625254582484725	0.7148760330578513
8069.366455078125	0.2621248051127685	-9.731912979680207	-2.070826837092281	-0.003762291649851729	1.122803841903934	0.3762291649851729	0.2012320328542095	-0.3828920570264766	0.6962809917355373
8088.897705078125	0.3045209106014711	-9.451538238905524	-2.150697020049036	-0.003539176164953228	-1.108127891596177	0.3539176164953228	0.2053388090349076	-0.3686354378818737	0.7128099173553719
8108.428955078125	0.4667995750926036	-9.772401470720059	-2.226652503086782	0.0001487436565990006	-1.487287822333407	-0.01487436565990006	0.2032854209445585	-0.360488798370672	0.7148760330578513
8127.960205078125	0.5847318816978316	-9.704270024917701	-2.157729389927718	0.7210601576941581	-5.555464641699391e-05	0.3577523465262293	0.1827515400410678	-0.3665987780040733	0.7107438016528926
8147.491455078125	0.4035003600041325	-9.652868216931997	-2.116678666804412	0.7210601576941581	-5.555464641699391e-05	0.3577523465262293	0.2217659137577002	-0.3808553971486761	0.71900826446281
8167.022705078125	0.3522283585467663	-9.486112830736545	-1.740945284892208	-7.437182829950031e-05	0.7436439111667036	0.007437182829950031	0.1991786447638604	-0.3869653767820774	0.7148760330578513
8186.553955078125	0.2769303200764013	-9.853792529841963	-1.897677335880044	-1.079653311845087	-1.11905152235737	-0.7303209894043929	0.1827515400410678	-0.3564154786150712	0.6962809917355373
8206.085205078125	0.5387018243100973	-9.665819743473071	-1.956727477003241	-0.7248224493440097	1.122859396550351	0.01847681845894361	0.1909650924024641	-0.3727087576374745	0.71900826446281
8225.616455078125	0.3819797624840207	-9.683159876796834	-2.065992082800688	0.007152724158205957	1.472611872025649	-0.7152724158205956	0.1827515400410678	-0.3625254582484725	0.7128099173553719
8245.147705078125	0.3018167393641058	-9.542412587605606	-2.060557978803524	-1.811888786746351	1.133949691250795	0.02945838477997146	0.1950718685831622	-0.35030549898167	0.7231404958677686
8264.678955078125	0.3667531254904219	-9.701416489424764	-2.225104183014061	-0.01080345806560844	-1.46527389687177	1.080345806560844	0.1991786447638604	-0.3747454175152749	0.6983471074380165
8284.210205078125	0.5602965519253715	-9.895504114877463	-2.00988506417905	-0.36239263171493	0.3755187204834998	0.007379113521984299	0.188911704312115	-0.3788187372708757	0.7066115702479339
8303.741455078125	0.3629220190829792	-9.882655213829837	-2.097400636099306	-0.0001115577424492505	1.115465866750055	0.01115577424492505	0.1909650924024641	-0.3665987780040733	0.6983471074380165
8323.272705078125	0.2390277601434023	-9.552714357553633	-1.967592004780077	-0.7246737056874109	-0.3644284257830558	0.003602452799043552	0.2053388090349076	-0.3706720977596741	0.6921487603305785
8342.803955078125	0.376281208572909	-9.811669075894761	-2.209373619096964	-0.01084064397975819	-1.093451941288418	1.084064397975818	0.1827515400410678	-0.3665987780040733	0.7128099173553719
8362.335205078125	0.4816350575415149	-9.914271331394909	-2.054501918050494	0.3586303400650783	0.7472851214204346	0.3688500514631886	0.1991786447638604	-0.3788187372708757	0.7045454545454546
8381.866455078125	0.2210512120664868	-9.841860108098503	-2.035040402216227	-0.0001859295707487508	1.859109777916759	0.01859295707487508	0.1971252566735113	-0.3849287169042769	0.6983471074380165
8401.397705078125	-0.03570231561913222	-9.798210415383519	-2.143256146028927	-7.437182829950031e-05	0.7436439111667036	0.007437182829950031	0.2073921971252567	-0.3869653767820774	0.7107438016528926
8420.928955078125	0.3191458320353995	-9.663476180975222	-1.971527734513316	1.076262879336732	-1.476364191572214	1.069364240239816	0.1827515400410678	-0.3849287169042769	0.7004132231404959
8440.460205078125	0.4222111114703705	-9.853485073957913	-2.073703715679014	1.431316857322708	-1.465385006164604	1.795850499613302	0.188911704312115	-0.3665987780040733	0.7004132231404959
8459.991455078125	0.6278677109020925	-9.776989440141659	-1.928923696736409	0.003725105735701979	-0.7509818863205826	-0.3725105735701979	0.2073921971252567	-0.3543788187372708	0.71900826446281
8479.522705078125	0.4058780433755692	-9.835432765975233	-1.862601445852303	-0.717483795615055	0.7363614906592416	-0.7153885544365272	0.188911704312115	-0.3869653767820774	0.6962809917355373
8499.053955078125	0.3080846754955085	-9.793719288256453	-1.936155849850281	-0.3660805515364823	0.7546786512207306	0.3761710956772072	0.1930184804928131	-0.3767820773930753	0.7293388429752067
8518.585205078125	0.5856033046250082	-9.653988264837913	-2.186776820833606	-0.3624298176290798	0.7473406760668516	0.01109770493695932	0.1909650924024641	-0.3808553971486761	0.7210743801652892
8538.116455078125	0.2863992568063651	-9.714064240299276	-1.879975226878836	-0.3552770934708738	2.219952548092501	-0.7041747108836364	0.1909650924024641	-0.3747454175152749	0.7086776859504132
8557.647705078125	0.1643614047179863	-9.710189812474518	-2.145380157266208	-0.3587418978075275	0.3681807453296208	-0.3576942772182636	0.2176591375770021	-0.3584521384928717	0.7066115702479339
8577.178955078125	0.433512796510523	-9.673164195794932	-2.117093217017431	-1.086768850089143	-2.96348534996637	-0.01876716499877227	0.1827515400410678	-0.360488798370672	0.71900826446281
8596.710205078125	0.6983685858738007	-9.507527490567471	-1.945619529126687	0.3479384397419191	-1.833454642201391	1.438040083779107	0.2053388090349076	-0.3706720977596741	0.6859504132231405
8616.241455078125	0.6549961712594466	-9.768217904626113	-1.833205708648222	-0.3550167920718256	-0.3828011409909618	-0.7302048507884614	0.2053388090349076	-0.3645621181262729	0.7231404958677686
8635.772705078125	0.3211434015146198	-9.732830300176941	-2.03811338382066	-0.7175581674433545	1.480005401825945	-0.7079513716065771	0.1909650924024641	-0.3645621181262729	0.7272727272727273
8655.303955078125	0.2877059968881133	-9.743641727672845	-1.923533229603775	-0.3550911639001251	0.3608427701757418	-0.7227676679585114	0.188911704312115	-0.3686354378818737	0.7128099173553719
8674.835205078125	0.3506400818270072	-9.759959706875934	-2.354669394233572	-0.7247108916015605	0.007393529800295976	0.007321044214018567	0.2135523613963039	-0.3808553971486761	0.7252066115702479
8694.366455078125	0.308665886986304	-9.690198029874429	-2.288862899543469	-0.3587047118933778	-0.003641210253730994	-0.3614128686332386	0.1909650924024641	-0.3686354378818737	0.7004132231404959
8713.897705078125	0.1693628202873566	-9.888572688107088	-2.312094009578554	-0.3657830642232843	-2.219896993446084	0.346422364357407	0.1745379876796715	-0.3788187372708757	0.7128099173553719
8733.428955078125	0.5116790387692512	-9.534557110797945	-2.055967958975038	-0.007003980501606956	-2.959899694359057	0.7003980501606956	0.1930184804928131	-0.3747454175152749	0.6983471074380165
8752.960205078125	0.6017912670016191	-9.645420823669477	-2.059708900053967	-0.003687919821552229	0.3791599307372308	0.3687919821552229	0.1827515400410678	-0.360488798370672	0.7086776859504132
8772.491455078125	0.2452917531846368	-9.520688999803633	-2.176391772821226	0.724487776116662	2.223538203699815	0.01499050427583152	0.1991786447638604	-0.3686354378818737	0.6838842975206612
8792.022705078125	0.2999832024358834	-9.793005431212396	-1.999440081196113	-0.7175209815292047	1.108183446242593	-0.7116699630215522	0.1971252566735113	-0.3543788187372708	0.6983471074380165
8811.553955078125	-0.0276607775300641	-9.758943651401388	-2.077974082331197	-0.7209857858658586	-0.7435883565202867	-0.3651895293561793	0.2073921971252567	-0.3645621181262729	0.7107438016528926
8831.085205078125	0.4165038827608887	-9.625330411240645	-1.883462758696288	7.437182829950031e-05	-0.7436439111667036	-0.007437182829950031	0.1848049281314169	-0.3706720977596741	0.7024793388429752
8850.616455078125	0.4230533555303023	-9.573212748378534	-2.101778517676742	-0.003353246594204478	-2.967237669512935	0.3353246594204478	0.1827515400410678	-0.3706720977596741	0.7272727272727273
8870.147705078125	0.2975045759561403	-9.82380685377418	-1.916819198538007	-0.3585931541509285	-1.119107077003786	-0.3725686428781636	0.1848049281314169	-0.3686354378818737	0.7086776859504132
8889.678955078125	0.4236235263686269	-9.743028393140811	-2.120784212287563	-0.3625041894573793	1.490984587233555	0.01853488776690934	0.1971252566735113	-0.3665987780040733	0.6962809917355373
8909.210205078125	0.3315878587522013	-9.822786592336787	-2.052928625073374	-3.718591414975016e-05	0.3718219555833518	0.003718591414975016	0.2094455852156057	-0.3584521384928717	0.6962809917355373
8928.741455078125	0.3743735415495241	-9.802285888232321	-2.145784718317468	0.3551655357284246	-1.104486681342445	0.7153304851285613	0.1868583162217659	-0.3564154786150712	0.7024793388429752
8948.272705078125	0.3836469010071442	-9.742620835341025	-2.121563366904803	-0.3622810739724808	-0.7399471462665556	-0.003776660722940747	0.188911704312115	-0.3727087576374745	0.6983471074380165
8967.803955078125	0.4024633272898905	-9.803203524176269	-2.082110909663016	-1.083304045752489	-1.11171354720349	-0.3652475986641451	0.2032854209445585	-0.3727087576374745	0.7004132231404959
8987.335205078125	0.4390457406345695	-9.644708543861489	-1.968191354485646	-0.3657830642232843	-2.219896993446084	0.346422364357407	0.1765913757700205	-0.3747454175152749	0.7128099173553719
9006.866455078125	0.6791152652004155	-9.787086064251865	-1.970508840013848	-0.003576362079102979	-0.7363059360128246	0.3576362079102978	0.2032854209445585	-0.360488798370672	0.7066115702479339
9026.397705078125	0.7218512650616188	-9.66326809096341	-2.395042168720622	-0.7175581674433545	1.480005401825945	-0.7079513716065771	0.1909650924024641	-0.3971486761710794	0.6983471074380165
9045.928955078125	0.3355380464827242	-9.931509364970585	-2.184601549424138	-0.003762291649851729	1.122803841903934	0.3762291649851729	0.1909650924024641	-0.3625254582484725	0.7004132231404959
9065.460205078125	0.4204406639848396	-9.304057518644901	-2.014688799494654	-0.007413025557254208	1.130141817057813	0.7413025557254208	0.2012320328542095	-0.3584521384928717	0.7086776859504132
9084.991455078125	0.3168170429820488	-9.794229156102471	-1.893901432734956	-0.0002603013990482511	2.602753689083463	0.02603013990482511	0.1827515400410678	-0.3849287169042769	0.7024793388429752
9104.522705078125	0.1214550633615159	-9.86072952951311	-2.04850211205053	0.007227095986505457	0.7289679608589457	-0.7227095986505457	0.2238193018480493	-0.3706720977596741	0.7066115702479339
9124.053955078125	0.3466796420620469	-9.714573582399938	-1.88932140206823	-0.007041166415756707	-2.588077738775705	0.7041166415756707	0.1765913757700205	-0.3788187372708757	0.7148760330578513
9143.585205078125	0.3634338321868142	-9.59248972759293	-2.114461072893805	-0.007115538244056207	-1.844433827609001	0.7115538244056206	0.1848049281314169	-0.3584521384928717	0.7128099173553719
9163.116455078125	0.4316492920970222	-9.903766728888629	-2.05497640323407	-0.00394822122060048	2.981913619820693	0.394822122060048	0.1971252566735113	-0.3706720977596741	0.7086776859504132
9182.647705078125	0.1994115332232949	-9.582190270924468	-1.980384440776494	-0.3552027216425743	1.476308636925797	-0.7116118937135864	0.2012320328542095	-0.3686354378818737	0.6900826446280992
9202.178955078125	0.2259784975406947	-9.760266952461842	-2.199283251356488	-0.7245993338591113	-1.108072336949759	-0.003834730030906479	0.1868583162217659	-0.3828920570264766	0.7169421487603306
9221.710205078125	0.3577707660872165	-9.604320785631801	-1.925692202907214	0.3513660581644231	0.3901391161448408	1.095278241528709	0.1930184804928131	-0.360488798370672	0.7045454545454546
9241.241455078125	0.3170725552249494	-9.754146540477267	-1.902418507498312	0.3623182598866305	0.3681251906832038	5.806930796573191e-05	0.2176591375770021	-0.3727087576374745	0.7045454545454546
9260.772705078125	0.3301155088833879	-9.893262652127703	-2.003850296112928	-0.3660061797081828	0.01103474005402697	0.3687339128472572	0.1991786447638604	-0.360488798370672	0.7024793388429752
9280.303955078125	0.5310664245083558	-9.554955189408965	-2.03554748361186	-0.003576362079102979	-0.7363059360128246	0.3576362079102978	0.1848049281314169	-0.3645621181262729	0.7004132231404959
9299.835205078125	0.6022163321217533	-9.788616719280633	-1.740544404058439	-0.3624298176290798	0.7473406760668516	0.01109770493695932	0.1971252566735113	-0.3706720977596741	0.7066115702479339
9319.366455078125	0.1221608765016273	-9.910501316597808	-2.07202921672091	-0.3587790837216773	0.7400027009129726	-0.3539756858032885	0.2176591375770021	-0.3686354378818737	0.7107438016528926
9338.897705078125	0.3643998892780281	-9.675510702466772	-1.813329642600936	-0.003539176164953228	-1.108127891596177	0.3539176164953228	0.2012320328542095	-0.3767820773930753	0.7004132231404959
9358.428955078125	0.4103991905624504	-9.903970928384808	-2.013306352081675	-0.007189910072355707	-1.100789916442297	0.7189910072355706	0.1991786447638604	-0.3788187372708757	0.7148760330578513
9377.960205078125	0.5366884824702041	-9.796470724001301	-1.889616082340134	-1.076076949765984	-0.3827455863445448	-1.087957197314691	0.2073921971252567	-0.3584521384928717	0.7169421487603306
9397.491455078125	0.1244494460352623	-9.823094679115265	-1.814981534508742	1.087066337402341	-0.01109029470044396	-0.01098156632102785	0.2012320328542095	-0.3665987780040733	0.7086776859504132
9417.022705078125	0.465137168277682	-9.786272315590216	-1.837905609256062	-0.3695081699589862	-1.468915107125501	0.7189329379276049	0.1909650924024641	-0.3564154786150712	0.7004132231404959
9436.553955078125	0.9835076310624027	-9.46866586595649	-2.116921035413418	-0.7210973436083078	0.3718775102297688	-0.3540337551112543	0.1827515400410678	-0.3686354378818737	0.7045454545454546
9456.085205078125	0.1939535078124446	-9.660621699140643	-2.131783593748152	0.003278874765904977	3.710881580679639	-0.3278874765904977	0.1909650924024641	-0.3706720977596741	0.6983471074380165
9475.616455078125	0.2252127494300263	-9.67051454435096	-2.173758314334211	-0.003725105735701979	0.7509818863205826	0.3725105735701979	0.1765913757700205	-0.3523421588594705	0.6983471074380165
9495.147705078125	0.3652366130117244	-9.531906828459542	-2.174553767057479	-0.01069190032315919	-2.580739763621826	1.069190032315918	0.1971252566735113	-0.3665987780040733	0.7107438016528926
9514.678955078125	0.4517582633369111	-9.773931494854398	-2.058608777897034	-0.3622810739724808	-0.7399471462665556	-0.003776660722940747	0.2012320328542095	-0.3706720977596741	0.7066115702479339
9534.210205078125	0.2842313458318777	-9.671431864847694	-2.141044861062589	-3.718591414975016e-05	0.3718219555833518	0.003718591414975016	0.1848049281314169	-0.360488798370672	0.7045454545454546
9553.741455078125	0.2403187278644776	-9.782296944657151	-2.010624262149252	-0.3658946219657335	-1.104431126696028	0.3575781386023321	0.1848049281314169	-0.3665987780040733	0.6921487603305785
9573.272705078125	0.403470392518854	-9.632877906418905	-2.115679750628463	-0.3693594263023872	-2.956202929458909	0.7040585722677049	0.1991786447638604	-0.3706720977596741	0.7231404958677686
9592.803955078125	0.5959925586002347	-9.777295739385925	-1.866418620007818	0.3585931541509285	1.119107077003786	0.3725686428781636	0.2032854209445585	-0.3665987780040733	0.7107438016528926
9612.335205078125	0.217712203312038	-9.649606387595774	-2.257073443734601	-0.358965013292426	2.599112478829731	-0.3353827287284135	0.2032854209445585	-0.3706720977596741	0.7045454545454546
9631.866455078125	0.1512577274709572	-9.741093334784392	-2.041924249031906	-0.3624670035432295	1.119162631650203	0.01481629635193433	0.2032854209445585	-0.3767820773930753	0.71900826446281
9651.397705078125	0.1083529633505541	-9.471632541849987	-1.945098778351804	-0.7245249620308118	-1.851716248116463	-0.01127191286085651	0.1971252566735113	-0.3747454175152749	0.7128099173553719
9670.928955078125	0.5509932249824729	-9.935178857255666	-2.033107499415765	-0.3694709840448365	-1.840737062708853	0.7152143465126299	0.2053388090349076	-0.3421588594704684	0.6983471074380165
9690.460205078125	0.7540174174178912	-9.506201035034882	-2.133913913929702	-0.3588534555499768	1.483646612079676	-0.3465385029733385	0.1971252566735113	-0.3727087576374745	0.7066115702479339
9709.991455078125	0.1225220635610363	-9.730384532781931	-2.084068785367876	-0.362541375371529	1.862806542816907	0.02225347918188436	0.1971252566735113	-0.3625254582484725	0.6921487603305785
9729.522705078125	0.358206083241788	-9.684180033085154	-1.940202774726264	0.007338653728954708	-0.3864979058911098	-0.7338653728954707	0.215605749486653	-0.3523421588594705	0.6983471074380165
9749.053955078125	0.2559057632994517	-9.793923803199844	-1.863525443315056	0.3550911639001251	-0.3608427701757418	0.7227676679585114	0.2073921971252567	-0.3706720977596741	0.6983471074380165
9768.585205078125	0.7202188257319757	-9.697129246346663	-2.007294191065851	-0.007301467814804958	0.01467595030775797	0.7301467814804957	0.1991786447638604	-0.3665987780040733	0.7024793388429752
9788.116455078125	0.5627759670231484	-9.654702437329183	-2.092532234104943	0.3621695162300315	1.855413013016611	0.0149324349678658	0.1950718685831622	-0.3788187372708757	0.6962809917355373
9807.647705078125	0.2954565349227667	-9.861135720374973	-2.181884497425556	0.3586303400650783	0.7472851214204346	0.3688500514631886	0.1909650924024641	-0.3625254582484725	0.7107438016528926
9827.178955078125	0.4538260198211257	-9.819929586924502	-2.460867327370855	-0.3658574360515838	-1.47625308227938	0.3538595471873571	0.1950718685831622	-0.360488798370672	0.6983471074380165
9846.710205078125	0.7413940085533514	-9.646949270567749	-2.046466951778373	0.3514032440785728	0.01831716056148896	1.091559650113734	0.2094455852156057	-0.3706720977596741	0.7210743801652892
9866.241455078125	0.496606182292213	-9.936097334392185	-1.886872743073765	-0.3587790837216773	0.7400027009129726	-0.3539756858032885	0.2053388090349076	-0.3686354378818737	0.7024793388429752
9885.772705078125	0.2915804772874064	-10.01238897901041	-2.052682576246877	-0.3551655357284246	1.104486681342445	-0.7153304851285613	0.1930184804928131	-0.3665987780040733	0.6962809917355373
9905.303955078125	0.3524026431322016	-9.742723145387256	-2.080088104406719	-0.7208370422092596	-2.230876178853694	-0.3800638950160794	0.1868583162217659	-0.3645621181262729	0.7169421487603306
9924.835205078125	0.2723295224681221	-9.661946787735307	-2.077650748937403	-0.003464804336653728	-1.85177180276288	0.3464804336653728	0.1786447638603696	-0.3625254582484725	0.7128099173553719
9944.366455078125	0.5813218973203548	-9.745372586533085	-2.044063244011826	-0.36239263171493	0.3755187204834998	0.007379113521984299	0.2053388090349076	-0.360488798370672	0.6962809917355373
9963.897705078125	0.1803845459255655	-9.591675663484068	-2.01281819751885	0.0001487436565990006	-1.487287822333407	-0.01487436565990006	0.1971252566735113	-0.3869653767820774	0.7024793388429752
9983.428955078125	0.4051730188534914	-9.575660723904038	-1.839100628449711	-0.36239263171493	0.3755187204834998	0.007379113521984299	0.1971252566735113	-0.35030549898167	0.7004132231404959
10002.96020507812	0.5460769801607361	-9.743435109748031	-2.202566005357871	-0.7210973436083078	0.3718775102297688	-0.3540337551112543	0.2032854209445585	-0.3808553971486761	0.7148760330578513
10022.49145507812	0.3792842660450254	-10.13069808731211	-2.309475534834179	-1.090865814966342	1.50571609218773	0.3909293227211758	0.1971252566735113	-0.3727087576374745	0.7066115702479339
10042.02270507812	0.2349963447554141	-9.740684515195751	-2.166544825180468	-0.7209485999517089	-1.115410312103638	-0.3689081207711543	0.1868583162217659	-0.3686354378818737	0.7107438016528926
10061.55395507812	-0.08321891800028552	-9.610240783486759	-1.892702733323817	-0.007115538244056207	-1.844433827609001	0.7115538244056206	0.215605749486653	-0.3584521384928717	0.7128099173553719
10081.08520507812	0.3827305268520498	-9.762917129651171	-2.091017561734991	-0.003650733907402479	0.007337975153878983	0.3650733907402479	0.2012320328542095	-0.3727087576374745	0.6900826446280992
10100.61645507812	0.2833898903899795	-9.741703935440574	-2.11299634633265	-0.36239263171493	0.3755187204834998	0.007379113521984299	0.188911704312115	-0.3706720977596741	0.6942148760330579
10120.14770507812	0.3981219850146802	-9.854607224845253	-1.937399500489337	0.7139446194501018	-1.844489382255418	1.06930617093185	0.1950718685831622	-0.3564154786150712	0.7004132231404959
10139.67895507812	0.9400003627642957	-9.639399882706213	-2.000012092143182	-0.003353246594204478	-2.967237669512935	0.3353246594204478	0.2012320328542095	-0.3767820773930753	0.7024793388429752
10159.21020507812	0.6073242111256656	-9.616965171736034	-1.910807037522183	-0.3733820193512872	0.7693546015284886	1.106317877157703	0.1930184804928131	-0.3747454175152749	0.7107438016528926
10178.74145507812	0.507496997336837	-9.83257597086109	-2.249899911227897	-0.7250083789147586	2.98196917446711	0.03706977553381869	0.1950718685831622	-0.3706720977596741	0.6880165289256198
10198.27270507812	0.284246329574517	-9.681427020104239	-2.141544319150563	-1.087103523316491	0.3829122502837958	0.01470015773600287	0.188911704312115	-0.3543788187372708	0.7024793388429752
10217.80395507812	0.1218911691341211	-9.730588521979968	-2.063038971137368	-0.7210229717800084	-0.3717664009369348	-0.3614709379412043	0.2073921971252567	-0.3665987780040733	0.6983471074380165
10237.33520507812	0.1114419801883378	-9.567300426405771	-2.381399339611258	-0.006966794587457206	-3.331721649942408	0.6966794587457206	0.1950718685831622	-0.3706720977596741	0.7107438016528926
10256.86645507812	0.2912161357558628	-9.699173449438938	-2.373871191862093	0.3516263595634713	-2.212614572938622	1.069248101623884	0.2094455852156057	-0.3645621181262729	0.7128099173553719
10276.39770507812	0.8397883033750487	-9.668468448575402	-1.992943445834953	-1.090493955824845	-2.212503463645788	0.3537434085714256	0.188911704312115	-0.3849287169042769	0.6962809917355373
10295.92895507812	0.5349314414912452	-9.677038833917832	-1.831048049708172	-1.086843221917442	-2.219841438799667	-0.01132998216882224	0.188911704312115	-0.3706720977596741	0.6962809917355373
10315.46020507812	0.6245279135296099	-9.794735974625427	-2.150930450986995	0.3587790837216773	-0.7400027009129726	0.3539756858032885	0.2053388090349076	-0.3645621181262729	0.7045454545454546
10334.99145507812	0.3629220190829792	-9.882655213829837	-2.097400636099306	-0.369545355873136	-1.097093151542149	0.7226515293425799	0.2012320328542095	-0.3645621181262729	0.7004132231404959
10354.52270507812	0.2448106961841139	-9.620844541567136	-2.160356539470464	7.437182829950031e-05	-0.7436439111667036	-0.007437182829950031	0.1786447638603696	-0.3930753564154786	0.7045454545454546
10374.05395507812	-0.09028020387353408	-9.952523932585779	-1.657326537548865	0.3551655357284246	-1.104486681342445	0.7153304851285613	0.2012320328542095	-0.3808553971486761	0.7004132231404959
10393.58520507812	0.4370678866061902	-9.658681383330665	-1.568929553539673	1.446440395750414	-6.700244284947045	0.2834966568426605	0.1848049281314169	-0.3706720977596741	0.7086776859504132
10413.11645507812	0.3804230304856074	-9.556996553476321	-1.680767682853577	2.15982722648827	-2.967404333452186	1.408581698999136	0.188911704312115	-0.3890020366598778	0.7004132231404959
10432.64770507812	0.6045198853980275	-9.711205237054639	-1.483996179934245	1.804773248502294	-2.978383518859796	0.6820954396256492	0.2032854209445585	-0.3727087576374745	0.7066115702479339
10452.17895507812	0.03590972216198057	-9.638389189834294	-1.196990738732685	6.504255912619482	-1.145317759183324	1.748321781530147	0.1991786447638604	-0.3910386965376782	0.6818181818181819
10471.71020507812	0.2762994256494861	-9.853996519040001	-0.8766475216495365	8.306159331411518	-11.92462437013963	2.717400192181569	0.1950718685831622	-0.3788187372708757	0.6962809917355373
10491.24145507812	0.5195131703154708	-10.058690741598	-0.6504390105156956	10.13503746661379	-0.4533174473258585	0.9890069618095086	0.2073921971252567	-0.3869653767820774	0.6570247933884298
10510.77270507812	0.06730697193545004	-10.23157074574087	-0.9102323978483345	13.40327764523657	2.101489407348514	0.2519456212707545	0.2114989733059548	-0.3910386965376782	0.6673553719008265
10530.30395507812	0.1762513988112372	-10.2030120477177	-0.8750466270412393	14.84923462410304	0.2349305449850422	0.5837839665080902	0.2114989733059548	-0.4012219959266802	0.6425619834710744
10549.83520507812	0.3697222723870917	-9.717123131928174	-0.6574090795697195	18.0995929923303	-0.8917922804047081	1.634903665520825	0.2217659137577002	-0.4215885947046843	0.628099173553719
10569.36645507812	0.3684147436873099	-9.897545899541104	-0.6138247895769932	21.36447992435887	-1.304223095243271	1.233166984402519	0.2258726899383984	-0.4419551934826884	0.6177685950413223
10588.89770507812	0.6294102477759002	-9.683157353219126	-0.3136749258633331	24.28869269854619	0.4739467373951515	-1.333037970560416	0.2176591375770021	-0.4399185336048879	0.5909090909090909
10608.42895507812	0.7415399028895755	-9.463568764732372	-0.3846634296525112	27.58237645677833	4.092853632742427	-4.614457272035979	0.2279260780287475	-0.4643584521384928	0.5723140495867769
10627.96020507812	0.2885166962266993	-9.863379601553369	0.0494434591100235	29.40164108316779	2.20058408001717	-5.381499621126397	0.2525667351129364	-0.4704684317718941	0.5475206611570248
10647.49145507812	0.174074024420346	-10.01371606543742	0.1975325193217989	32.30830672018693	-3.049173367658697	-6.192990859272617	0.2505133470225873	-0.5112016293279021	0.5433884297520661
10667.02270507812	0.3690890121060755	-10.3473278860857	0.3636995964641521	37.01889032968293	-2.725409355777269	-6.236859055248763	0.2525667351129364	-0.4989816700610997	0.5309917355371901
10686.55395507812	0.6662095310798312	-10.44125891828419	0.4596822973389662	43.17450127019165	5.027344683324481	-5.855924120613198	0.2751540041067762	-0.5112016293279021	0.5123966942148761
10706.08520507812	0.4571121911673204	-10.74886705818923	0.42959362775599	51.10471275417554	19.52778984996461	-1.77562324364065	0.2751540041067762	-0.5560081466395111	0.4896694214876033
10725.61645507812	-0.0827623081588056	-10.68675981297135	0.7587436052935197	56.14032638028699	28.10131987131843	1.909390956808124	0.2936344969199179	-0.5641547861507128	0.4772727272727273
10745.14770507812	-0.4269940798444215	-10.46472808581636	0.8998026614807143	58.6590442482394	23.27844697020321	3.660792567365624	0.2895277207392197	-0.6089613034623217	0.4917355371900827
10764.67895507812	-0.8043746219562302	-10.72674779443251	1.479154065207671	60.43177898168636	12.18602220489458	7.546739512524053	0.2915811088295688	-0.615071283095723	0.4669421487603306
10784.21020507812	-0.04071240598687266	-10.59649701126909	1.690413532895755	66.19340500639463	7.738390251030785	11.09428196923468	0.2936344969199179	-0.6598778004073319	0.4607438016528926
10803.74145507812	-0.4281706979506184	-10.45177519233737	1.605689931687277	70.87508023194459	5.14628241947643	13.94125216786072	0.2956878850102669	-0.6659877800407331	0.4566115702479339
10823.27270507812	-0.4749381131998098	-10.76356332326794	1.831270439993659	76.28157790683858	1.431315191371724	16.76974554802781	0.3203285420944559	-0.7107942973523421	0.4669421487603306
10842.80395507812	-0.03596177095220107	-10.88829430594121	1.865392365073369	82.41230305645016	2.542639856050296	19.63925957237556	0.2956878850102669	-0.7311608961303462	0.4690082644628099
10862.33520507812	-0.6076215201243493	-10.88646429150687	2.254050670811643	85.28127140514249	9.264564738580477	22.59749716691102	0.2874743326488706	-0.755600814663951	0.4710743801652892
10881.86645507812	-1.136992415860371	-11.16429421446152	2.566413862012348	84.91652954651542	-3.366347011199458	22.83979897164913	0.3018480492813142	-0.7759674134419551	0.4793388429752066
10901.39770507812	-0.6141252530478116	-10.75856716515213	2.470841768260385	85.6456720762215	-11.18933958340402	22.38931411698039	0.3018480492813142	-0.7963340122199591	0.5041322314049587
10920.92895507812	-0.02989808689151218	-10.86300038142826	2.329936229717072	88.55211459775575	-14.20816529757978	21.60013442732402	0.2956878850102669	-0.8146639511201629	0.5227272727272727
10940.46020507812	-0.01734486503196662	-10.745608173027	2.578162167732221	92.16002491453776	-3.80476628963189	23.12794332883422	0.2854209445585216	-0.8268839103869653	0.5433884297520661
10959.99145507812	-0.127580259628829	-10.54458428394666	2.586008654294301	92.89136792749942	2.865959430760388	22.45741014860925	0.2669404517453799	-0.8228105906313645	0.5702479338842975
10979.52270507812	-0.3177042382698982	-10.45605770370727	2.923474608996607	93.61201904013795	6.95594538753084	22.85606700070021	0.271047227926078	-0.8391038696537677	0.6012396694214877
10999.05395507812	-0.3189053035351381	-10.28644604814303	2.963510117837935	94.68791006033317	9.197800751792144	23.96261715508977	0.2792607802874744	-0.8411405295315681	0.597107438016529
11018.58520507812	-0.468187542831817	-10.49471397218229	2.939584761060565	93.59369099877263	7.73627917446694	24.68887113723139	0.2546201232032854	-0.8533604887983706	0.6611570247933884
11038.11645507812	-0.2451553222648164	-10.14926688753229	3.171844075493878	93.59004026486522	7.743617149620818	25.05394452797164	0.2402464065708419	-0.8635437881873727	0.6776859504132231
11057.64770507812	-0.5412348654341619	-10.18833260649038	3.374495514472061	92.15116163832866	11.82643179517664	24.01427094974366	0.2689938398357289	-0.8431771894093686	0.6942148760330579
11077.17895507812	-0.9432636641875146	-10.0083219180873	3.775455472917148	90.33968189663796	8.870339975010568	24.00282482895891	0.242299794661191	-0.8452138492871689	0.7438016528925619
11096.71020507812	-1.192029279810353	-9.538756133805348	4.067642660345104	88.53241067756689	0.3295808459403383	23.57052644620928	0.2361396303901437	-0.8146639511201629	0.7438016528925619
11116.24145507812	-0.7389832032245014	-9.71560456904259	4.29944010748338	88.17795167420732	-5.6305496288009	22.7845427241962	0.2279260780287475	-0.8289205702647657	0.7975206611570248
11135.77270507812	-0.5763827825756423	-9.689697099699458	4.546092752521409	88.17731951366679	0.6904236161160802	22.84775877825077	0.2176591375770021	-0.7942973523421588	0.7933884297520661
11155.30395507812	-0.7898033265485895	-9.218703075584044	4.660110884952983	87.80732792682385	4.055193931574153	23.61503340457305	0.215605749486653	-0.7983706720977596	0.8450413223140496
11174.83520507812	-1.481988358420588	-9.099176235889322	5.399611947352911	85.98102213401863	3.359385745523705	25.08619239523914	0.2012320328542095	-0.7922606924643584	0.8450413223140496
11194.36645507812	-1.523316675091736	-9.039205724946328	5.443889169724533	86.69574765766588	-6.293364703982101	26.07740814645651	0.2032854209445585	-0.7657841140529531	0.9049586776859504
11213.89770507812	-1.164302258365463	-8.806457730204833	5.810075278848765	88.15660505947515	-11.1638511116279	24.91920419741306	0.1827515400410678	-0.755600814663951	0.9152892561983471
11233.42895507812	-0.9458471768657324	-8.63582392051992	5.528239228857742	88.51836553064953	-5.218396587194423	24.97504113794565	0.1724845995893224	-0.7311608961303462	0.9504132231404959
11252.96020507812	-1.37853429029503	-8.425726087195395	5.951143009834329	87.79320840807819	-0.7491395903939052	25.02698527913937	0.1745379876796715	-0.7107942973523421	0.9524793388429752
11272.49145507812	-1.492419409151597	-8.105882275625683	6.080646971719895	86.34017307688183	-1.098836511222786	25.40298216689268	0.1827515400410678	-0.6863543788187372	0.9917355371900827
11292.02270507812	-1.653687065323598	-7.89802548445463	6.456235510786586	85.25731526209911	-6.672413525426498	24.99311147124883	0.1724845995893224	-0.6680244399185336	1.026859504132231
11311.55395507812	-1.801550580777751	-7.649168021118141	6.718352692591695	85.26159815654707	-13.00072474549736	24.56482202645401	0.1581108829568789	-0.6293279022403258	1.024793388429752
11331.08520507812	-1.349768658899831	-7.123091866377613	6.658955296661017	84.9138456463759	-13.02637988121272	23.10818898560003	0.1560574948665298	-0.6232179226069245	1.06404958677686
11350.61645507812	-1.259685609534708	-7.003965013749555	6.656186984490248	84.92431443121416	-8.214708384090788	22.06131050177396	0.1396303901437372	-0.5763747454175152	1.09297520661157
11370.14770507812	-1.296712014832328	-6.725936884795786	6.890400494410932	83.12326628844755	-5.987306751551575	21.00670448857811	0.1375770020533881	-0.5621181262729124	1.103305785123967
11389.67895507812	-1.421598355258229	-6.576316801533495	7.053278508607634	82.05467673606714	-8.243838066120638	19.17000755270805	0.1416837782340863	-0.5274949083503054	1.117768595041322
11409.21020507812	-1.357435603422918	-6.078904178440077	7.24785344743059	80.61274235024956	-10.10283673474456	18.43590990258071	0.1478439425051335	-0.4928716904276985	1.132231404958678
11428.74145507812	-1.588548004362635	-6.086963854743918	7.284933478754498	78.46058845071759	-10.86832790743365	16.25999550795133	0.1560574948665298	-0.4928716904276985	1.128099173553719
11448.27270507812	-1.538155312012782	-5.737336884217466	7.271843733759397	78.10173499516762	-9.384681295353976	15.913457004978	0.1437371663244353	-0.4521384928716904	1.165289256198347
11467.80395507812	-1.493021124711267	-5.669410163656643	7.434037490375574	75.938517336171	-9.012692675831374	14.84391855681428	0.1396303901437372	-0.4358452138492871	1.171487603305785
11487.33520507812	-1.492854726306168	-5.359356361505662	7.428490876872277	74.47449261733827	-8.968553715615265	16.31885420820331	0.1293634496919918	-0.3910386965376782	1.179752066115703
11506.86645507812	-1.55873587683679	-4.780657933510563	7.624529227892999	72.67731832396397	-8.979421791730042	14.87686325577737	0.1314168377823409	-0.3849287169042769	1.194214876033058
11526.39770507812	-1.538401360839279	-4.590749773338033	7.613378694642628	70.14816885708747	-9.340042343320114	14.16862153763096	0.1498973305954825	-0.3421588594704684	1.216942148760331
11545.92895507812	-1.665170132511488	-4.378405009512048	7.505671083716273	67.61916813386757	-11.1879507172436	13.44550545382466	0.1519507186858316	-0.3034623217922607	1.227272727272727
11565.46020507812	-1.403579221807497	-4.280490615051091	7.452640726916559	65.80355424138551	-9.303019139672218	13.84747441217482	0.1540041067761807	-0.2892057026476578	1.237603305785124
11584.99145507812	-1.465495200864956	-3.820510114946336	7.516506695498541	63.27056811103085	-7.797191938191652	13.52289904184354	0.1478439425051335	-0.2708757637474541	1.252066115702479
11604.52270507812	-1.604616096798132	-3.508825871298062	7.487203226604397	60.37530090670371	-7.031311882977644	13.19454701078932	0.1478439425051335	-0.2281059063136456	1.237603305785124
11624.05395507812	-1.507286436321854	-3.0306892810774	7.576214544061798	56.76642375615381	-7.767340045758385	11.76342148606847	0.1457905544147844	-0.2036659877800407	1.233471074380165
11643.58520507812	-1.52881649725837	-2.91431733411354	7.960549908612313	55.70096433488269	-4.825701957314401	9.61371143926781	0.162217659137577	-0.1710794297352342	1.270661157024793
11663.11645507812	-1.4222000708179	-2.806511356231121	8.07333569392998	53.14596224334117	-2.160381038160507	11.49073218762294	0.1478439425051335	-0.1690427698574338	1.260330578512397
11682.64770507812	-1.188288075858746	-2.630879811194328	8.27626919529153	51.33779856233052	-1.777413233230294	11.14767999883271	0.1540041067761807	-0.1568228105906314	1.256198347107438
11702.17895507812	-1.681816281965646	-2.397120597835559	8.393876065521541	49.16746536508984	-3.249858441316692	10.78969537507462	0.1396303901437372	-0.1181262729124236	1.272727272727273
11721.71020507812	-1.448856148973101	-2.35846348816797	8.295204965770035	46.61659742433967	-5.425560919900252	12.25330104429483	0.1375770020533881	-0.09572301425661914	1.305785123966942
11741.24145507812	-1.517447779685357	-2.217308115431599	8.248259322845239	44.09426600839402	-0.9671719992145097	10.8632542330626	0.1437371663244353	-0.0875763747454175	1.276859504132231
11760.77270507812	-1.594976818572901	-2.009042504671905	8.499227285763368	41.55770351596026	-0.1976507337467702	10.89631507064162	0.1560574948665298	-0.0570264765784114	1.278925619834711
11780.30395507812	-1.562801202800225	-1.998639055572073	8.426706760007496	40.46702363056466	-0.5510444194757991	11.26865143628792	0.1560574948665298	-0.03258655804480651	1.268595041322314
11799.83520507812	-1.314508757997573	-1.801691165085882	8.483625266585754	38.66623578919712	-0.9263964760200478	10.18801528318724	0.135523613963039	-0.02036659877800407	1.299586776859504
11819.36645507812	-1.301629048272099	-1.410860058941312	8.387634942403281	35.76355555931272	0.9696253962517741	10.60096580785844	0.1375770020533881	0.006109979633401222	1.293388429752066
11838.89770507812	-1.504822004966716	-1.446559114939238	8.160733498890545	32.87592449602774	-1.625568099092142	9.508999672588947	0.1498973305954825	0	1.291322314049587
11858.42895507812	-1.368773564892618	-1.25257011931528	8.625785496420594	30.34684940097953	-2.729832561848919	8.793320771612592	0.1416837782340863	0.01832993890020367	1.285123966942149
11877.96020507812	-1.464615103139409	-1.460225550015076	8.487170104646983	27.81393764245317	-1.967649271535059	8.461308218451359	0.1457905544147844	0.0285132382892057	1.291322314049587
11897.49145507812	-1.066474979909956	-1.151493576837552	8.215832663665186	24.56018884171755	-3.436342160074891	7.749231770274046	0.1540041067761807	0.04276985743380855	1.28099173553719
11917.02270507812	-0.9653260422967396	-0.9754554203426125	8.510868076557987	21.30934705660634	2.524066087898432	6.746453759655987	0.1437371663244353	0.05091649694501018	1.28099173553719
11936.55395507812	-1.594401916026375	-0.9188566195151945	8.480063867545818	20.22268976425965	-1.554885128817994	6.71653082041229	0.1560574948665298	0.0570264765784114	1.293388429752066
11956.08520507812	-1.568274211953715	-0.7337419951983677	8.94247373179048	18.06755447727497	-9.005833526853538	4.838755171053606	0.1416837782340863	0.07535641547861506	1.266528925619835
11975.61645507812	-1.163941859924088	-0.8363412013754551	8.798061997469587	16.98771523585914	-8.265775271294148	4.127027138724087	0.1457905544147844	0.06924643584521384	1.28099173553719
11995.14770507812	-1.467747493969044	-0.9145716897166574	8.924916465634785	14.46195620149098	-6.030980108954637	3.079742169742259	0.1560574948665298	0.0875763747454175	1.278925619834711
12014.67895507812	-1.418136322090532	-0.675197410809272	8.937877403017726	11.92204046246302	-8.228696512999834	3.448127666741722	0.1560574948665298	0.09775967413441955	1.274793388429752
12034.21020507812	-1.496947653900781	-0.5940130747612524	8.898255130026026	9.744145496008485	-7.083712081695011	3.84631996436895	0.1478439425051335	0.08553971486761711	1.270661157024793
12053.74145507812	-1.572930212824349	-0.5752474354798728	9.097673760811624	7.215479446015925	-12.27801805586866	3.089736557827869	0.1540041067761807	0.1120162932790224	1.287190082644628
12073.27270507812	-1.315455888255979	-0.6786640705360999	9.181862941865969	6.502129801192219	-16.38267996294687	1.960932924256419	0.1704312114989733	0.08961303462321792	1.287190082644628
12092.80395507812	-1.010463384070389	-0.5500498275160924	9.01544613567963	6.501757942050721	-12.66446040711335	1.998118838406169	0.1848049281314169	0.1059063136456212	1.28305785123967
12112.33520507812	-1.341512616705612	-0.6304224127348144	9.383753890187041	6.512263912803132	-8.224610865574766	0.9475217631651262	0.2012320328542095	0.1221995926680244	1.291322314049587
12131.86645507812	-1.164071193281605	-0.6097163524943857	9.135706442720174	7.595010169843374	-1.535567984620999	1.368548233053897	0.1786447638603696	0.1283095723014256	1.291322314049587
12151.39770507812	-1.333430859096828	-0.5478093111079742	9.114361969894244	7.587188099230473	3.684615343853684	2.150755294344042	0.1848049281314169	0.1262729124236252	1.289256198347108
12170.92895507812	-1.567427236185581	-0.5268014730333378	9.247574539519357	5.779173161876424	2.58029532645049	1.792828739893916	0.1540041067761807	0.1120162932790224	1.291322314049587
12190.46020507812	-1.556231225961937	-0.4865147630610261	9.207707532064552	4.326398132079098	-0.3721552834618538	2.142795487742401	0.1971252566735113	0.1344195519348269	1.272727272727273
12209.99145507812	-1.395828683772844	-0.3979846077532194	9.194289459094776	2.884798419488879	-5.577551552335946	1.375230514880292	0.1765913757700205	0.1160896130346232	1.28099173553719
12229.52270507812	-1.17918663513246	-0.3512703453594955	9.306221171082008	2.888449153396281	-5.584889527489824	1.010157124140044	0.1745379876796715	0.1425661914460285	1.278925619834711
12249.05395507812	-1.045582122344625	-0.281404886224762	9.186070744820816	2.174616091688629	-4.855866011984461	-0.07030482103673091	0.1786447638603696	0.1323828920570265	1.276859504132231
12268.58520507812	-1.262564853975542	-0.3815626361187585	9.418828465851393	1.793821046780087	-2.95636959339816	1.777315611846393	0.1909650924024641	0.1323828920570265	1.299586776859504
12288.11645507812	-1.393809821606715	-0.1306651756528378	9.460327386890487	-0.01035722709581143	-5.927137363871991	1.035722709581143	0.1868583162217659	0.1303462321792261	1.297520661157025
12307.64770507812	-1.245369826369968	-0.2026695771929562	9.512327545665585	0.7180787702414511	-6.68551277999287	0.6558910917969268	0.1991786447638604	0.1242362525458248	1.274793388429752
12327.17895507812	-0.9438827293439251	-0.1918554158212024	9.129424311464167	0.3630619781696255	-7.068313920983832	-0.07431375899153458	0.1786447638603696	0.1262729124236252	1.293388429752066
12346.71020507812	-0.8566946967803093	-0.3169979519589666	9.556489892676971	0.359113756949025	-4.086400301163139	0.3205083630685134	0.2094455852156057	0.1405295315682281	1.276859504132231
12366.24145507812	-0.8080306551602039	-0.2879299118351326	9.601021838673461	0.3661921092789315	-1.870144517970786	-0.3873268699221322	0.1909650924024641	0.1364562118126273	1.272727272727273
12385.77270507812	-1.247277493393353	-0.1932863895305173	9.575916446445079	1.464061904746881	-0.4159609157994597	-1.478654242804004	0.2094455852156057	0.1486761710794297	1.274793388429752
12405.30395507812	-1.358610644293047	-0.312617441654752	9.620354809768243	1.101594901203651	0.7032017158507436	-1.463837946452069	0.215605749486653	0.1283095723014256	1.272727272727273
12424.83520507812	-1.459820305494854	-0.6586752321100028	9.327343516495128	1.090642699481444	0.7252156413123806	-0.3686177742313257	0.1848049281314169	0.1384928716904277	1.28099173553719
12444.36645507812	-1.265163350396399	-0.332402816628169	9.505445013213295	1.083638718979837	-2.234684053046676	0.3317802759293699	0.2073921971252567	0.1344195519348269	1.266528925619835
12463.89770507812	-1.465466021997712	-0.0505006804459267	9.51553406659038	0.7144652222481983	-7.049996760422342	1.0172458911222	0.2073921971252567	0.1323828920570265	1.274793388429752
12483.42895507812	-1.267927456604321	-0.3832965443020638	9.597581886810705	0.7218410618913028	-7.808316621896804	0.2796619268117539	0.1909650924024641	0.1384928716904277	1.276859504132231
12502.96020507812	-1.155793069782444	-0.2370397592296569	9.859768992748132	0.7254174239704058	-7.07201068588398	-0.07797428109854386	0.2012320328542095	0.1405295315682281	1.28099173553719
12522.49145507812	-1.348526585496841	-0.3726902626439787	9.617552849894706	1.453258446681272	-1.88123481267123	-0.3983084362431601	0.2279260780287475	0.1527494908350305	1.260330578512397
12542.02270507812	-1.24854085948325	-0.6136948778995843	9.618028649441671	2.536711236090361	-2.256809087801147	-0.04793520323891508	0.2238193018480493	0.1303462321792261	1.278925619834711
12561.55395507812	-1.150025117484372	-0.2951747879866135	9.667503916145717	2.888040108340634	-1.494848016072954	1.051061629704769	0.2073921971252567	0.1446028513238289	1.285123966942149
12581.08520507812	-1.311193407784133	-0.2939525351835364	9.706446926137772	2.170742242296328	-2.617596303330471	0.3170801181933671	0.2094455852156057	0.1466395112016293	1.297520661157025
12600.61645507812	-1.313235928491271	-0.1946129502121777	9.774530949709039	3.254232217619565	-3.36499253404374	0.6637347597826371	0.2176591375770021	0.1344195519348269	1.266528925619835
12620.14770507812	-1.159718810353924	-0.2849757486811021	9.657293678464129	2.170853800038777	-3.733062170080526	0.305924343948442	0.2176591375770021	0.1547861507128309	1.276859504132231
12639.67895507812	-1.29658268147481	-0.2858950670101887	9.886089382493678	3.620349955070197	-4.491493140847822	0.2838450726904548	0.2094455852156057	0.1446028513238289	1.270661157024793
12659.21020507812	-1.143491417075631	-0.443062224854454	9.449713902521028	3.975552676712772	-5.967801777773619	0.9954569664040412	0.2197125256673511	0.1486761710794297	1.295454545454545
12678.74145507812	-0.9103916986911308	-0.5676933159101323	9.679723289704354	5.055243174472008	-5.220572210999602	1.722059364393459	0.2238193018480493	0.1344195519348269	1.291322314049587
12698.27270507812	-0.9773516786917774	-0.602677042777008	9.245055956392576	5.772280739117265	-1.495070234658622	2.482071015809686	0.2135523613963039	0.1486761710794297	1.285123966942149
12717.80395507812	-1.029108680239835	-0.2527451399442132	9.303622674661151	5.406163001666634	-0.3685696278545398	2.861960702901869	0.2217659137577002	0.1568228105906314	1.278925619834711
12737.33520507812	-1.243672720361566	-0.2821208462502396	9.455757345385519	4.688753577879878	-0.3758520483620018	2.139134965635392	0.2381930184804928	0.1364562118126273	1.295454545454545
12756.86645507812	-0.9228676359833792	-0.1050605356346259	9.42892119944597	4.319059478350144	0.01434262242925601	2.876660860637871	0.2176591375770021	0.1629327902240326	1.276859504132231
12776.39770507812	-1.392336683119868	0.1498111391245761	9.411222770662253	3.598222436140884	-2.216533556424438	2.496596965621792	0.2238193018480493	0.1710794297352342	1.278925619834711
12795.92895507812	-1.071382549933322	0.01691964218822577	9.379418331110744	2.514955576302544	-3.70006905921128	2.127630775542672	0.2073921971252567	0.1547861507128309	1.297520661157025
12815.46020507812	-0.9277696856805104	-0.1333121983700317	9.258989522683677	2.873623102281773	-3.324605893374197	2.492762235590885	0.1950718685831622	0.164969450101833	1.278925619834711
12834.99145507812	-0.8255545364858078	-0.03692930013041114	9.518484549526921	2.152488572759315	-2.580906427561076	2.142447071894606	0.2299794661190965	0.1771894093686354	1.276859504132231
12854.52270507812	-1.131872707585954	0.1573611578805417	9.395756919531781	2.155990563010118	-1.100956580381548	1.792248046814259	0.2176591375770021	0.1670061099796334	1.276859504132231
12874.05395507812	-0.9146912442105579	-0.1557501689614137	9.489708140351928	1.435041963058409	-2.216366892485187	1.423339926043104	0.2340862422997947	0.1629327902240326	1.285123966942149
12893.58520507812	-0.8936509150729355	-0.01561379587358244	9.455030502431178	0.7213948309215058	-3.346453154896583	0.3242850237914542	0.2279260780287475	0.1568228105906314	1.289256198347108
12913.11645507812	-1.095532399977603	-0.154222142659425	9.517746665920107	0.717632539271654	-2.223649312992649	0.7005141887766271	0.2299794661190965	0.1710794297352342	1.28099173553719
12932.64770507812	-1.024111207760632	-0.1477959571759378	9.803706925354412	1.068961411521927	-1.461688241264456	1.799511021720311	0.2669404517453799	0.1812627291242362	1.278925619834711
12952.17895507812	-0.786133886838044	-0.08751662341096753	9.537796227934795	-0.01087782989390794	-0.7216299857050666	1.087782989390794	0.2279260780287475	0.1507128309572301	1.28305785123967
12971.71020507812	-0.9874586074109593	0.03405505027045654	9.581953580365303	1.438358023738464	1.1226927326111	1.091733858037631	0.2381930184804928	0.1812627291242362	1.274793388429752
12991.24145507812	-0.9771040526292132	0.004069689649887768	9.570135087640436	0.3550167920718256	0.3828011409909618	0.7302048507884614	0.242299794661191	0.1547861507128309	1.272727272727273
13010.77270507812	-1.12990037388381	0.03466554577756817	9.663345796126992	0.7101079559719506	0.02195837081521995	1.452972518746973	0.2525667351129364	0.1812627291242362	1.28305785123967
13030.30395507812	-0.9405232165206016	-0.2574358400083278	9.684107217353382	0.3625785612856788	-2.234628498400259	-0.02597207059685937	0.2279260780287475	0.1629327902240326	1.291322314049587
13049.83520507812	-0.7949112055525019	-0.05702128979530894	9.497040185083394	0.3588906414641265	-1.855468567663028	0.3428199115583635	0.2402464065708419	0.1690427698574338	1.270661157024793
13069.36645507812	-1.146795726636599	-0.3441306182791671	9.559857554553309	0.7175209815292047	-1.108183446242593	0.7116699630215522	0.2402464065708419	0.1629327902240326	1.278925619834711
13088.89770507812	-1.137356757391914	-0.1844120182233855	9.578558579730466	0.3514032440785728	0.01831716056148896	1.091559650113734	0.2238193018480493	0.1629327902240326	1.276859504132231
13108.42895507812	-0.9681619127457236	-0.136372351787784	9.605397091524116	-0.728212881852364	-1.472556317379232	0.3575200692943664	0.2258726899383984	0.1792260692464358	1.274793388429752
13127.96020507812	-1.022938532744604	0.1225832077459115	9.764617758153456	-1.086657292346694	-4.078951216716426	-0.02992293924369732	0.242299794661191	0.1690427698574338	1.276859504132231
13147.49145507812	-0.9869483715431916	-0.0957799734656319	9.56494571810638	-1.448678064920126	-7.421652052066444	-0.05972973987146318	0.2669404517453799	0.1731160896130346	1.262396694214876
13167.02270507812	-0.8197668687368943	-0.1783912875582624	9.658895624563138	-1.086173875462747	-8.912636639299999	-0.07826462763837251	0.2197125256673511	0.1608961303462322	1.270661157024793
13186.55395507812	-0.4175677284882744	-0.3316802322112087	9.585590949609147	0.7325701481286118	-5.599398813858331	-0.7932466969191395	0.2546201232032854	0.1690427698574338	1.256198347107438
13206.08520507812	-0.543595987826892	-0.2624293693973618	9.786532927563067	1.452775029797326	2.952450609912343	-0.3499667478484849	0.2361396303901437	0.1568228105906314	1.276859504132231
