Time Stamp	Accelerometer X	Accelerometer Y	Accelerometer Z	Gyroscope X	Gyroscope Y	Gyroscope Z	Magnetometer X	Magnetometer Y	Magnetometer Z
583.038330078125	0.1564231755913255	-8.90608983989214	4.452560813622482	70.17309183389874	-3.070434924480287	11.6763238565038	0	-0.4480651731160896	0.5867768595041323
602.569580078125	0.1958162236079118	-9.640019421033442	-2.193874120263724	5.077036020173974	-4.149134195172821	-0.457225205803103	-0.004106776180698152	-0.4460285132382892	0.5743801652892562
622.100830078125	0.03627012060335588	-9.668272661004917	-2.209004020111863	-2.529446954189705	2.613955093076741	-0.6784929868266056	0.02053388090349076	-0.4338085539714867	0.5723140495867769
641.632080078125	-0.07623412807630039	-9.637982368078005	-2.125529064123321	-1.076151321594283	0.3608983248221588	-1.080520014484741	-0.008213552361396304	-0.4276985743380855	0.5681818181818182
661.163330078125	-0.06746232968807794	-9.805146153265813	-2.417922343730736	-0.003501990250803478	-1.479949847179528	0.3501990250803478	0.02874743326488707	-0.4378818737270875	0.5537190082644629
680.694580078125	0.2333087021634159	-9.807896852967163	-2.443623405447195	-0.731789243931467	-2.208862253392057	0.7151562772046642	-0.006160164271047228	-0.45010183299389	0.5702479338842975
700.225830078125	0.1622889165255698	-9.590859916990066	-2.076297217518992	-0.003501990250803478	-1.479949847179528	0.3501990250803478	0.006160164271047228	-0.4358452138492871	0.5640495867768596
719.757080078125	0.2507789574627319	-9.672248137087051	-2.025965248757729	-0.7212460872649068	1.859165332563176	-0.3391593894513542	0.01232032854209446	-0.4338085539714867	0.5764462809917356
739.288330078125	-0.1374466598477495	-9.857774420017439	-2.085111338408353	-0.7247108916015605	0.007393529800295976	0.007321044214018567	0	-0.4480651731160896	0.5723140495867769
758.819580078125	0.06724467111079216	-9.488257556340844	-2.241489037026405	-7.437182829950031e-05	0.7436439111667036	0.007437182829950031	-0.006160164271047228	-0.4480651731160896	0.5495867768595042
778.350830078125	0.08258486910123568	-9.896630892323934	-2.419495636707856	-0.003576362079102979	-0.7363059360128246	0.3576362079102978	-0.002053388090349076	-0.4338085539714867	0.5723140495867769
797.882080078125	0.07960073846192671	-9.870929094563976	-1.986691282064223	7.437182829950031e-05	-0.7436439111667036	-0.007437182829950031	0.01026694045174538	-0.4439918533604887	0.5847107438016529
817.413330078125	0.2085137625676142	-9.759247216769804	-2.283792085587138	-1.090568327653144	-1.468859552479084	0.3611805914013757	0.01026694045174538	-0.4439918533604887	0.5537190082644629
836.944580078125	0.02912050951033917	-9.530584368591658	-1.970683650344639	-0.7391650835745714	-1.450542391917595	1.45274024151511	0.01026694045174538	-0.4195519348268839	0.5619834710743802
856.475830078125	0.2480408756499199	-9.459800116873193	-2.268029188330661	0.358667525979228	0.3754631658370828	0.3651314600482136	0.01232032854209446	-0.4399185336048879	0.5640495867768596
876.007080078125	0.3192759540109508	-9.680100774869793	-2.309198467031691	-1.079876427329985	1.111880211142741	-0.7080094409145429	0.01437371663244353	-0.4378818737270875	0.5743801652892562
895.538330078125	0.04572328497264678	-9.728549471192178	-2.190776165754893	0.3622810739724808	0.7399471462665556	0.003776660722940747	-0.01026694045174538	-0.4419551934826884	0.5702479338842975
915.069580078125	0.1051172635585127	-9.769345418116082	-2.170575451950423	0.0001115577424492505	-1.115465866750055	-0.01115577424492505	0.006160164271047228	-0.4358452138492871	0.5681818181818182
934.600830078125	0.225317635628501	-9.740480631146786	-2.177254520950032	-0.3549424202435261	-1.126445052157665	-0.7376420336184115	0.008213552361396304	-0.4338085539714867	0.5619834710743802
954.132080078125	0.3342636397403554	-9.291921423150617	-2.142121324678513	-0.3478268819994699	0.7179887754513357	-1.449195858024032	0.01848049281314168	-0.4317718940936863	0.5743801652892562
973.663330078125	-0.1091786464317794	-9.06530109567961	-2.360711785607353	0.003390432508354228	2.595415713929583	-0.3390432508354227	0.004106776180698152	-0.4317718940936863	0.5557851239669421
993.194580078125	-0.08382536526815776	-9.767103534770039	-2.205821157728075	-0.003725105735701979	0.7509818863205826	0.3725105735701979	0.01026694045174538	-0.4439918533604887	0.5743801652892562
1012.725830078125	0.1045005642562031	-9.989544817557162	-2.150018808540102	-7.437182829950031e-05	0.7436439111667036	0.007437182829950031	0.002053388090349076	-0.415478615071283	0.5661157024793388
1032.257080078125	0.005415440037033497	-9.928249007721359	-2.180514667901117	-0.7174094237867555	-0.007282420507461989	-0.7228257372664771	0.008213552361396304	-0.4317718940936863	0.5723140495867769
1051.788330078125	0.3002986496493411	-9.792903436613379	-2.009954988311366	-0.7209114140375591	-1.48723226768699	-0.3726267121861294	0.002053388090349076	-0.4399185336048879	0.5578512396694215
1071.319580078125	0.222809830281513	-9.541291488208978	-2.093661009383766	-0.007189910072355707	-1.100789916442297	0.7189910072355706	0.01026694045174538	-0.4317718940936863	0.5764462809917356
1090.850830078125	0.1509974835198546	-9.707844146995246	-2.366582783995155	-0.0002974873131980013	2.974575644666814	0.02974873131980012	-0.01026694045174538	-0.4358452138492871	0.5516528925619835
1110.382080078125	-0.1630428353657335	-9.836050516768253	-2.231905487808885	0.003353246594204478	2.967237669512935	-0.3353246594204478	0.002053388090349076	-0.4358452138492871	0.5557851239669421
1129.913330078125	-0.1381524729878608	-9.808002632932741	-2.061584233737973	0.0001487436565990006	-1.487287822333407	-0.01487436565990006	0.01642710472279261	-0.4378818737270875	0.5557851239669421
1149.444580078125	0.358817262217862	-9.600649085216226	-2.293908740595401	-0.369247868559938	-4.071668796208963	0.6929027980227799	0.002053388090349076	-0.4297352342158859	0.5599173553719008
1168.975830078125	0.5214476503519997	-9.594731926386187	-2.048255011733322	-0.003576362079102979	-0.7363059360128246	0.3576362079102978	-0.002053388090349076	-0.4338085539714867	0.5661157024793388
1188.507080078125	0.07662764847508874	-9.57189039365972	-1.887588282502958	-1.079876427329985	1.111880211142741	-0.7080094409145429	0.01232032854209446	-0.4317718940936863	0.5640495867768596
1208.038330078125	-0.02441561432161896	-9.607894381963989	-2.186146189279369	-0.007487397385553709	1.873785728224517	0.7487397385553708	0.004106776180698152	-0.4317718940936863	0.5495867768595042
1227.569580078125	-0.09631234321287721	-9.57780765763883	-2.122921892904094	-0.7284359973372625	0.7583754161208786	0.3798316177842165	0.002053388090349076	-0.4439918533604887	0.5702479338842975
1247.100830078125	0.4787613334269161	-9.821867168858631	-2.292044447563867	-0.003576362079102979	-0.7363059360128246	0.3576362079102978	-0.01437371663244353	-0.4399185336048879	0.5661157024793388
1266.632080078125	0.07415848541174931	-9.749355423050201	-2.138616180391643	-0.3587790837216773	0.7400027009129726	-0.3539756858032885	0.002053388090349076	-0.4460285132382892	0.5743801652892562
1286.163330078125	-0.2102944620875824	-9.754661876074985	-2.323517930413922	-0.7319751735022159	-0.3497524754752979	0.7337492342795393	0.01437371663244353	-0.45010183299389	0.5619834710743802
1305.694580078125	0.03218350195301255	-9.889594001035192	-2.072783398433752	0	0	0	0.01437371663244353	-0.4256619144602851	0.5599173553719008
1325.225830078125	0.3350893228215808	-9.421654452287688	-2.16964409405269	-0.724636519773261	-0.7362503813664076	-0.0001161386159314638	0.01437371663244353	-0.4460285132382892	0.5743801652892562
1344.757080078125	0.1151271922595563	-9.569442207836076	-2.170906408651876	-0.7210601576941581	5.555464641699391e-05	-0.3577523465262293	0.006160164271047228	-0.4460285132382892	0.5578512396694215
1364.288330078125	0.005791610839081697	-9.75812737916203	-2.193053694636057	-0.01095220172220744	0.02201392546163695	1.095220172220744	0.008213552361396304	-0.4236252545824847	0.5578512396694215
1383.819580078125	-0.04692829332805487	-9.818506814842738	-2.102390222398172	0.36239263171493	-0.3755187204834998	-0.007379113521984299	0.01232032854209446	-0.4358452138492871	0.5723140495867769
1403.350830078125	0.2081983153541566	-9.759349211368821	-2.273277178471884	-3.718591414975016e-05	0.3718219555833518	0.003718591414975016	0.01232032854209446	-0.4419551934826884	0.5826446280991736
1422.882080078125	-0.2345491983303379	-9.855837574126809	-2.181693388988736	-0.3551283498142748	0.7326647257590937	-0.7190490765435364	0	-0.4399185336048879	0.5702479338842975
1442.413330078125	-0.0545494980051907	-9.927637671021678	-2.181683399826977	-0.7209114140375591	-1.48723226768699	-0.3726267121861294	-0.01026694045174538	-0.4215885947046843	0.5578512396694215
1461.944580078125	0.1658037871015212	-9.619723442170509	-2.193459570050706	-0.007227095986505457	-0.7289679608589457	0.7227095986505457	0.004106776180698152	-0.4276985743380855	0.5661157024793388
1481.475830078125	0.2022458264362115	-9.507940516118959	-2.408194214540381	0.3658574360515838	1.47625308227938	-0.3538595471873571	0.008213552361396304	-0.4338085539714867	0.5516528925619835
1501.007080078125	0.2266701155562005	-9.590043329303496	-2.222337185206682	0.007189910072355707	1.100789916442297	-0.7189910072355706	0.008213552361396304	-0.45010183299389	0.5723140495867769
1520.538330078125	0.02722230590335801	-9.667864787757916	-2.240743530111934	7.437182829950031e-05	-0.7436439111667036	-0.007437182829950031	0.02053388090349076	-0.4358452138492871	0.5578512396694215
1540.069580078125	-0.05387207511429049	-9.537418637620288	-2.204264162856984	-0.3660061797081828	0.01103474005402697	0.3687339128472572	0.004106776180698152	-0.4358452138492871	0.5640495867768596
1559.600830078125	0.2069065590150476	-9.739766879251802	-2.230218633834921	-7.437182829950031e-05	0.7436439111667036	0.007437182829950031	-0.004106776180698152	-0.4358452138492871	0.5847107438016529
1579.132080078125	-0.05845946621599776	-9.775568560743171	-2.384684459466742	0.3622067021441813	1.483591057433259	0.01121384355289078	0.008213552361396304	-0.4256619144602851	0.5661157024793388
1598.663330078125	-0.04878075708908466	-9.775772444792137	-2.373974763697178	0.0001487436565990006	-1.487287822333407	-0.01487436565990006	-0.008213552361396304	-0.4358452138492871	0.5764462809917356
1618.194580078125	0.1625436401504368	-9.760777556351359	-2.084788005014559	7.437182829950031e-05	-0.7436439111667036	-0.007437182829950031	0.01848049281314168	-0.4439918533604887	0.5785123966942149
1637.725830078125	0.08128364934572305	-9.730384953378216	-2.042788311524101	-0.7245993338591113	-1.108072336949759	-0.003834730030906479	-0.002053388090349076	-0.4439918533604887	0.5578512396694215
1657.257080078125	0.401427871811716	-9.533538321447546	-2.047595727057196	-0.3551283498142748	0.7326647257590937	-0.7190490765435364	0.01026694045174538	-0.4480651731160896	0.5681818181818182
1676.788330078125	-0.006875960635342249	-9.658889893938762	-2.104134645488592	-1.079764869587536	-0.003585655607314001	-0.7191652151594679	0.006160164271047228	-0.4399185336048879	0.5661157024793388
1696.319580078125	0.1714715849093208	-9.681224187545984	-2.049052830310692	-0.3623554458007803	0.003696764900147988	0.003660522107009284	0.01026694045174538	-0.4297352342158859	0.5764462809917356
1715.850830078125	0.02976086735365812	-9.677043986222316	-2.325362245121938	-0.3587047118933778	-0.003641210253730994	-0.3614128686332386	0.008213552361396304	-0.4521384928716904	0.5661157024793388
1735.382080078125	-0.1846075954957293	-9.626356455876953	-2.179746816809025	0.0001487436565990006	-1.487287822333407	-0.01487436565990006	0.002053388090349076	-0.4460285132382892	0.5640495867768596
1754.913330078125	0.2791345074804363	-9.569746509247992	-2.304483582681212	-0.7209114140375591	-1.48723226768699	-0.3726267121861294	0.01026694045174538	-0.45010183299389	0.5867768595041323
1774.444580078125	0.1134095821822796	-9.616664235094397	-2.446986072742653	-1.083415603494938	0.003752319546564981	-0.35409182441922	0.002053388090349076	-0.4480651731160896	0.5661157024793388
1793.975830078125	-0.1222839009148758	-9.516205127962477	-2.257203302837474	0.358667525979228	0.3754631658370828	0.3651314600482136	0.002053388090349076	-0.4338085539714867	0.5454545454545454
1813.507080078125	-0.08008494993458415	-9.735894133812183	-2.330501668847195	-1.083415603494938	0.003752319546564981	-0.35409182441922	0.002053388090349076	-0.4480651731160896	0.5702479338842975
1833.038330078125	-0.07866780332812587	-9.698769256409429	-2.044406555729139	-1.083304045752489	-1.11171354720349	-0.3652475986641451	-0.002053388090349076	-0.4378818737270875	0.5723140495867769
1852.569580078125	-0.04384873990667496	-9.767511092569826	-2.205042003110835	-0.7209857858658586	-0.7435883565202867	-0.3651895293561793	0.006160164271047228	-0.4399185336048879	0.5702479338842975
1872.100830078125	0.02981055028977769	-9.780361255406305	-1.993685009659256	0.3549424202435261	1.126445052157665	0.7376420336184115	-0.006160164271047228	-0.4338085539714867	0.5619834710743802
1891.632080078125	-0.02912208674640648	-9.556082808048005	-2.362597108453118	0.362243888058331	1.111769101849907	0.007495252137915762	0.01026694045174538	-0.4236252545824847	0.5764462809917356
1911.163330078125	0.2593559671966443	-9.709474903939752	-2.311865573221476	-3.718591414975016e-05	0.3718219555833518	0.003718591414975016	0.02669404517453799	-0.4378818737270875	0.5743801652892562
1930.694580078125	-0.2600396990318137	-9.694079502686954	-2.332010032272879	0.003687919821552229	-0.3791599307372308	-0.3687919821552229	-0.002053388090349076	-0.4582484725050916	0.5805785123966942
1950.225830078125	-0.1578095660944717	-9.607691759703879	-2.07301446351761	0.3623554458007803	-0.003696764900147988	-0.003660522107009284	0.002053388090349076	-0.4399185336048879	0.5702479338842975
1969.757080078125	0.05376403444368123	-9.899282962196542	-2.125467814789375	-0.003539176164953228	-1.108127891596177	0.3539176164953228	-0.008213552361396304	-0.4175152749490835	0.5640495867768596
1989.288330078125	0.1726978859516372	-9.797494350208972	-2.423262865054574	-7.437182829950031e-05	0.7436439111667036	0.007437182829950031	0.01026694045174538	-0.4195519348268839	0.5578512396694215
2008.819580078125	0.0440253903462112	-9.859098457121393	-2.13417967820704	-3.718591414975016e-05	0.3718219555833518	0.003718591414975016	0.01232032854209446	-0.4358452138492871	0.5681818181818182
2028.350830078125	0.2111572102163889	-9.838392502030034	-2.371907007212963	-0.003539176164953228	-1.108127891596177	0.3539176164953228	-0.002053388090349076	-0.4378818737270875	0.5785123966942149
2047.882080078125	-0.06655620756742095	-9.848186507113466	-2.114793081085969	0.0001115577424492505	-1.115465866750055	-0.01115577424492505	-0.008213552361396304	-0.4358452138492871	0.5743801652892562
2067.413330078125	0.118446485563164	-9.678368969667909	-2.281549518772132	-0.7210601576941581	5.555464641699391e-05	-0.3577523465262293	0.02053388090349076	-0.4297352342158859	0.5578512396694215
2086.944580078125	-0.2086975105694533	-9.837478861750791	-2.04341631435156	-0.358667525979228	-0.3754631658370828	-0.3651314600482136	-0.002053388090349076	-0.4643584521384928	0.5619834710743802
2106.475830078125	0.1271796416677379	-9.468878582527431	-2.239321388924596	0	0	0	0.01437371663244353	-0.4480651731160896	0.5661157024793388
2126.007080078125	0.08953101674157224	-9.547718304586891	-2.317700558052408	0.3588534555499768	-1.483646612079676	0.3465385029733385	-0.01437371663244353	-0.4419551934826884	0.5516528925619835
2145.538330078125	0.1282009020213069	-9.518548375013111	-2.273363400710229	-1.079616125930937	-1.490873477940721	-0.7340395808193679	0.008213552361396304	-0.4378818737270875	0.5640495867768596
2165.069580078125	-0.2763577833839758	-9.686022349960819	-2.121407220534141	-0.7249711930006087	2.610147218883759	0.03335118411884368	0.01232032854209446	-0.4297352342158859	0.5702479338842975
2184.600830078125	0.05188712352360846	-9.6998898300607	-2.062904117453615	-0.00387384939230098	2.23826970865399	0.387384939230098	0.01437371663244353	-0.4378818737270875	0.5661157024793388
2204.132080078125	0.2677279362418092	-9.680101300615149	-2.257597874726974	0.3587790837216773	-0.7400027009129726	0.3539756858032885	0	-0.4419551934826884	0.5640495867768596
2223.663330078125	0.2570587228646393	-9.4402176796071	-2.235290762154641	-0.358667525979228	-0.3754631658370828	-0.3651314600482136	0.002053388090349076	-0.4439918533604887	0.5723140495867769
2243.194580078125	0.005792399457115336	-9.548127124175533	-2.193079981903845	-0.003687919821552229	0.3791599307372308	0.3687919821552229	0.01026694045174538	-0.4338085539714867	0.5640495867768596
2262.725830078125	0.02483358187945027	-9.758637141858978	-2.161119395981676	-0.365820250137434	-1.848075037862732	0.3501409557723821	0.01232032854209446	-0.4195519348268839	0.5557851239669421
2282.257080078125	-0.1185994774616909	-9.728347164379281	-2.046684084610303	-0.7317520580173174	-2.580684208975409	0.7114376857896891	-0.002053388090349076	-0.4338085539714867	0.5723140495867769
2301.788330078125	0.1568308911147195	-9.669291345206242	-2.227696370490649	-0.003613547993252729	-0.3644839804294728	0.3613547993252729	0.01437371663244353	-0.4358452138492871	0.5702479338842975
2321.319580078125	0.05371514012559531	-9.585965438026058	-2.457171337519843	-0.72478526342986	0.7510374409669995	0.0147582270439686	-0.01437371663244353	-0.4439918533604887	0.5702479338842975
2340.850830078125	-0.1154607776877877	-9.927332318119051	-2.151307410407077	-0.01095220172220744	0.02201392546163695	1.095220172220744	0.01642710472279261	-0.4439918533604887	0.5557851239669421
2360.382080078125	0.4304584788662196	-9.670818425166589	-2.348615962207321	-0.3660061797081828	0.01103474005402697	0.3687339128472572	0.01642710472279261	-0.4378818737270875	0.5681818181818182
2379.913330078125	0.1492696214081406	-9.818402822411366	-2.308987380271353	-0.3588534555499768	1.483646612079676	-0.3465385029733385	-0.002053388090349076	-0.4399185336048879	0.5785123966942149
2399.444580078125	-0.08015434832154483	-9.5492499059573	-1.994855055948506	0.3587047118933778	0.003641210253730994	0.3614128686332386	0.004106776180698152	-0.4317718940936863	0.5619834710743802
2418.975830078125	0.3862162185607564	-9.561790089332023	-2.207207285358544	-0.3624298176290798	0.7473406760668516	0.01109770493695932	-0.006160164271047228	-0.4521384928716904	0.5702479338842975
2438.507080078125	0.04668461035565884	-9.738238642651671	-2.222820345188628	-0.362541375371529	1.862806542816907	0.02225347918188436	0.006160164271047228	-0.4419551934826884	0.5661157024793388
2458.038330078125	0.4359914229902662	-9.642362773233147	-2.199714099675536	-0.7175581674433545	1.480005401825945	-0.7079513716065771	-0.004106776180698152	-0.4378818737270875	0.5557851239669421
2477.569580078125	0.153991866193601	-9.670209296597402	-2.133062206453366	-0.003762291649851729	1.122803841903934	0.3762291649851729	-0.006160164271047228	-0.4317718940936863	0.5599173553719008
2497.100830078125	0.008120399892432489	-9.62737440403478	-2.270679996414417	-0.003650733907402479	0.007337975153878983	0.3650733907402479	-0.008213552361396304	-0.4276985743380855	0.5640495867768596
2516.632080078125	0.0366305190447312	-9.698156132175537	-2.22101730149104	-0.00379947756400148	1.494625797487286	0.3799477564001479	0.01437371663244353	-0.4297352342158859	0.5764462809917356
2536.163330078125	0.1339286347996634	-9.620029741414776	-2.130954493322114	-0.7245993338591113	-1.108072336949759	-0.003834730030906479	0.01437371663244353	-0.4378818737270875	0.5557851239669421
2555.694580078125	0.151032182713335	-9.801166260922688	-2.034406090444499	-0.7174466097009052	0.3645395350758898	-0.7191071458515021	0.02669404517453799	-0.4460285132382892	0.5702479338842975
2575.225830078125	-0.1840224409147654	-9.806167255895774	-2.199251969507821	0.3585931541509285	1.119107077003786	0.3725686428781636	0.01232032854209446	-0.4358452138492871	0.5702479338842975
2594.757080078125	-0.006981635451850547	-9.798924062129432	-2.100612151604982	-0.3659318078798833	-0.7326091711126765	0.3612967300173071	-0.006160164271047228	-0.4460285132382892	0.5702479338842975
2614.288330078125	0.2580050645050121	-9.439911695810046	-2.266835483500402	-0.3622067021441813	-1.483591057433259	-0.01121384355289078	0.006160164271047228	-0.4480651731160896	0.5661157024793388
2633.819580078125	0.07988306371797126	-9.357504476064523	-2.329435457265709	0.7245249620308118	1.851716248116463	0.01127191286085651	-0.004106776180698152	-0.4399185336048879	0.5826446280991736
2653.350830078125	0.1083923942522363	-9.638286459191777	-2.279746475074544	-0.003687919821552229	0.3791599307372308	0.3687919821552229	-0.01437371663244353	-0.4338085539714867	0.5537190082644629
2672.882080078125	-0.1591920135074497	-9.738138751034077	-2.02693288308501	-0.7247480775157102	0.3792154853836477	0.01103963562899358	0.01232032854209446	-0.4338085539714867	0.5661157024793388
2692.413330078125	-0.2264619203953185	-9.636556020927818	-2.117935986822718	-0.3622810739724808	-0.7399471462665556	-0.003776660722940747	0	-0.4541751527494908	0.5681818181818182
2711.944580078125	-0.2289310834586579	-9.814021050318299	-2.368963884711404	-0.3587790837216773	0.7400027009129726	-0.3539756858032885	0.006160164271047228	-0.4297352342158859	0.5661157024793388
2731.475830078125	0.3282346548731468	-9.410537461591018	-2.274488495771561	-0.003613547993252729	-0.3644839804294728	0.3613547993252729	0.01848049281314168	-0.4419551934826884	0.5702479338842975
2751.007080078125	0.2902902981843647	-9.57280613692039	-2.00967660614549	-0.7246737056874109	-0.3644284257830558	0.003602452799043552	-0.01437371663244353	-0.4439918533604887	0.5702479338842975
2770.538330078125	-0.01933375971281686	-9.699584582307146	-2.022208009572771	-1.079839241415835	0.7400582555593896	-0.7117280323295179	0.004106776180698152	-0.4317718940936863	0.5640495867768596
2790.069580078125	0.1040960032049437	-9.719675625630401	-2.13653344016479	0	0	0	0.01026694045174538	-0.4419551934826884	0.5454545454545454
2809.600830078125	-0.01252956331853625	-9.817384558806328	-2.249014556048792	-0.007227095986505457	-0.7289679608589457	0.7227095986505457	0	-0.4378818737270875	0.5537190082644629
2829.132080078125	0.08795299205625055	-9.758228532568479	-2.265099735208351	-0.007152724158205957	-1.472611872025649	0.7152724158205956	0.01232032854209446	-0.4541751527494908	0.5723140495867769
2848.663330078125	0.04627926068636581	-9.678369705711409	-2.209308689545527	-0.358518782322629	-1.86275098817049	-0.3800058257081136	0	-0.4338085539714867	0.5723140495867769
2868.194580078125	0.09303090357488442	-9.566586674510786	-2.434363452496147	0.3623182598866305	0.3681251906832038	5.806930796573191e-05	0.01232032854209446	-0.4358452138492871	0.5640495867768596
2887.725830078125	-0.05692718137662743	-9.745073121978443	-2.435760620779086	0.3585931541509285	1.119107077003786	0.3725686428781636	0.004106776180698152	-0.4378818737270875	0.5826446280991736
2907.257080078125	-0.03855632428288993	-9.789133211518134	-2.04812252390367	-0.3586303400650783	-0.7472851214204346	-0.3688500514631886	0.004106776180698152	-0.4317718940936863	0.5847107438016529
2926.788330078125	-0.1444811327078541	-9.726715566242207	-2.183962243071531	0	0	0	0.004106776180698152	-0.45010183299389	0.5578512396694215
2946.319580078125	0.02580989100510156	-9.778321468575015	-2.193663033503386	-0.728212881852364	-1.472556317379232	0.3575200692943664	0.01437371663244353	-0.4378818737270875	0.5681818181818182
2965.850830078125	0.1033752063221931	-9.659908683289158	-2.112506877406435	-0.3696569136155852	0.01837271520790595	0.733807303587505	0.006160164271047228	-0.4460285132382892	0.5661157024793388
2985.382080078125	0.3615861001339862	-9.623087160956677	-2.052870004466206	-1.087029151488191	-0.3607316608829078	0.007262974906052836	0.002053388090349076	-0.4215885947046843	0.5702479338842975
3004.913330078125	0.4515335071973225	-9.624004166006198	-2.051116906577416	-0.3587418978075275	0.3681807453296208	-0.3576942772182636	0.01437371663244353	-0.4582484725050916	0.5681818181818182
3024.444580078125	0.2244627736800309	-9.380757036510124	-2.148759122667695	0.3657086923949848	2.963540904612787	-0.338985181527457	0	-0.4195519348268839	0.5764462809917356
3043.975830078125	0.04748111456963931	-9.63798110628915	-2.249370485654643	-0.3625041894573793	1.490984587233555	0.01853488776690934	0.01232032854209446	-0.4297352342158859	0.5640495867768596
3063.507080078125	-0.2498058028092152	-9.854103876241645	-2.339806573026161	-0.7283244395948133	-0.3570904506291769	0.3686758435392914	0.004106776180698152	-0.4419551934826884	0.5661157024793388
3083.038330078125	-0.1049697919862213	-9.627273566075544	-2.167673600459291	-0.724636519773261	-0.7362503813664076	-0.0001161386159314638	0.006160164271047228	-0.45010183299389	0.5743801652892562
3102.569580078125	0.2490763311280945	-9.729465319601916	-2.302544370936481	0	0	0	-0.01026694045174538	-0.4439918533604887	0.5743801652892562
3122.100830078125	0.07309227383026258	-9.669700164794884	-2.103075794342086	-0.3731960897805385	-1.08975517638827	1.087724920082828	0.006160164271047228	-0.4399185336048879	0.5557851239669421
3141.632080078125	0.3010454709272019	-9.589328631066872	-2.368182364240063	-0.3660805515364823	0.7546786512207306	0.3761710956772072	-0.004106776180698152	-0.4521384928716904	0.5764462809917356
3161.163330078125	0.1144663303473626	-9.54965588652102	-2.14887767824542	0.007189910072355707	1.100789916442297	-0.7189910072355706	0.002053388090349076	-0.4378818737270875	0.5599173553719008
3180.694580078125	-0.2137036578470255	-9.585764182703873	-2.209878071765818	-0.717483795615055	0.7363614906592416	-0.7153885544365272	0.01026694045174538	-0.4236252545824847	0.5702479338842975
3200.225830078125	-0.1981631508760364	-9.987406085449919	-2.061228304132122	-0.003427618422503978	-2.223593758346232	0.3427618422503977	0.006160164271047228	-0.4562118126272912	0.5723140495867769
3219.757080078125	0.05831593773387454	-9.777811180132712	-2.277197924462484	-0.724636519773261	-0.7362503813664076	-0.0001161386159314638	0	-0.4399185336048879	0.5619834710743802
3239.288330078125	0.4025484980375241	-9.7898426523012	-2.418283267917468	-0.3549796061576758	-0.7546230965743135	-0.7339234422034364	0.02258726899383984	-0.4317718940936863	0.5661157024793388
3258.819580078125	0.3469304225967458	-9.601159163360387	-2.23101408655819	0.01095220172220744	-0.02201392546163695	-1.095220172220744	-0.002053388090349076	-0.4439918533604887	0.5723140495867769
3278.350830078125	0.05266864399494969	-9.589637138441633	-2.088954799831656	0.7210601576941581	-5.555464641699391e-05	0.3577523465262293	0.004106776180698152	-0.4439918533604887	0.5516528925619835
3297.882080078125	0.02569002106398767	-9.698360226522643	-2.189667368799589	-0.003576362079102979	-0.7363059360128246	0.3576362079102978	0.008213552361396304	-0.4419551934826884	0.5619834710743802
3317.413330078125	0.4039064982914591	-9.502736898885761	-2.130216609715301	-0.3623554458007803	0.003696764900147988	0.003660522107009284	0.01437371663244353	-0.4419551934826884	0.5702479338842975
3336.944580078125	0.01909007674042085	-9.857160875187265	-2.303002558014029	-0.3588534555499768	1.483646612079676	-0.3465385029733385	0.004106776180698152	-0.4399185336048879	0.5557851239669421
3356.475830078125	0.04742117959908236	-9.598000485262965	-2.247372653302745	-0.36239263171493	0.3755187204834998	0.007379113521984299	-0.01642710472279261	-0.4399185336048879	0.5847107438016529
3376.007080078125	0.2768356859123641	-9.720489794888335	-2.227856197078801	-0.728361625508963	0.01473150495417496	0.3723944349542664	-0.01026694045174538	-0.4399185336048879	0.5599173553719008
3395.538330078125	0.1462208240900728	-9.679388600210876	-2.207360803002426	0.358667525979228	0.3754631658370828	0.3651314600482136	0.002053388090349076	-0.4378818737270875	0.5516528925619835
3415.069580078125	-0.001318569352252823	-9.787093004090561	-2.289381021591573	0.007227095986505457	0.7289679608589457	-0.7227095986505457	0.01437371663244353	-0.4460285132382892	0.5681818181818182
3434.600830078125	-0.1267798123246804	-9.394325472651646	-2.440672922510655	-0.3623554458007803	0.003696764900147988	0.003660522107009284	0	-0.4460285132382892	0.5743801652892562
3454.132080078125	-0.05070419647314245	-9.96639435685965	-2.309860117561919	-0.7318264298456169	-1.837040297808705	0.7188748686196392	0.008213552361396304	-0.4338085539714867	0.5681818181818182
3473.663330078125	0.1154126719877354	-9.549349902723964	-2.18042239959118	-0.3623182598866305	-0.3681251906832038	-5.806930796573191e-05	0.002053388090349076	-0.4236252545824847	0.5805785123966942
3493.194580078125	0.156185012945165	-9.659500179147731	-2.206167098172167	-0.0001487436565990006	1.487287822333407	0.01487436565990006	0.01026694045174538	-0.4399185336048879	0.5619834710743802
3512.725830078125	-0.03741913707837524	-9.635432187655342	-2.419362097387492	0.003650733907402479	-0.007337975153878983	-0.3650733907402479	-0.01026694045174538	-0.4317718940936863	0.5433884297520661
3532.257080078125	0.09338104998182235	-9.659806793839211	-2.112701666060745	-0.7246737056874109	-0.3644284257830558	0.003602452799043552	0.008213552361396304	-0.4378818737270875	0.5785123966942149
3551.788330078125	0.3126215950430625	-9.662252350936077	-2.087386501435416	-0.3623554458007803	0.003696764900147988	0.003660522107009284	0.002053388090349076	-0.4399185336048879	0.5537190082644629
3571.319580078125	-0.0180569871163472	-9.709171759167619	-2.064767096121761	-0.3588534555499768	1.483646612079676	-0.3465385029733385	0	-0.4256619144602851	0.5619834710743802
3590.850830078125	-0.2764035232299272	-9.866037139177678	-2.11988255900243	-0.3623182598866305	-0.3681251906832038	-5.806930796573191e-05	0.02053388090349076	-0.45010183299389	0.5785123966942149
3610.382080078125	-0.1650254211023146	-9.776691552823081	-2.165819296589516	-0.007003980501606956	-2.959899694359057	0.7003980501606956	0.01232032854209446	-0.4317718940936863	0.5764462809917356
3629.913330078125	0.1044713853889583	-9.759554252057571	-2.149046179631941	-0.358518782322629	-1.86275098817049	-0.3800058257081136	0.01026694045174538	-0.4317718940936863	0.5578512396694215
3649.444580078125	0.3287898419688323	-9.570357951096744	-2.292994732294408	0.007078352329906457	2.216255783192353	-0.7078352329906457	0.02669404517453799	-0.4175152749490835	0.5723140495867769
3668.975830078125	-0.08597356079180407	-9.807798117989352	-2.134214640273198	-0.717483795615055	0.7363614906592416	-0.7153885544365272	0.002053388090349076	-0.4236252545824847	0.5723140495867769
3688.507080078125	0.2766953119023754	-9.767201849151567	-2.556510396745846	-0.3659318078798833	-0.7326091711126765	0.3612967300173071	-0.002053388090349076	-0.4338085539714867	0.5826446280991736
3708.038330078125	0.2899543469020324	-9.69958142783501	-2.331811563401078	0.3623554458007803	-0.003696764900147988	-0.003660522107009284	0.01026694045174538	-0.4480651731160896	0.5764462809917356
3727.569580078125	-0.02601335445778175	-9.735077651274683	-2.466221518073942	-0.0002231154848985009	2.230931733500111	0.02231154848985009	0.006160164271047228	-0.4297352342158859	0.5495867768595042
3747.100830078125	-0.2447980782955757	-9.685818045315569	-2.173397390147479	-0.3658946219657335	-1.104431126696028	0.3575781386023321	0.006160164271047228	-0.4338085539714867	0.5599173553719008
3766.632080078125	-0.08466603209202228	-9.627375350376422	-2.177798930265924	-0.003650733907402479	0.007337975153878983	0.3650733907402479	0.002053388090349076	-0.4358452138492871	0.5557851239669421
3786.163330078125	0.1316550490086677	-9.717431534153864	-2.388501633622257	-1.08311811618174	-2.97082332512025	-0.3838405557390202	0.002053388090349076	-0.4378818737270875	0.5599173553719008
3805.694580078125	0.1499312719383679	-9.628188888739928	-2.331042397945597	-0.003539176164953228	-1.108127891596177	0.3539176164953228	0.02053388090349076	-0.4276985743380855	0.5661157024793388
3825.225830078125	0.1221466813770217	-9.690505906354764	-2.071556045900724	-0.3623554458007803	0.003696764900147988	0.003660522107009284	0.002053388090349076	-0.4480651731160896	0.5723140495867769
3844.757080078125	0.03587896605866844	-9.828399134307697	-2.195965535288948	0.3588534555499768	-1.483646612079676	0.3465385029733385	0	-0.4215885947046843	0.5619834710743802
3864.288330078125	0.1032095965351278	-9.759962230453644	-2.106986551170927	-0.3587047118933778	-0.003641210253730994	-0.3614128686332386	0.04106776180698152	-0.4297352342158859	0.5578512396694215
3883.819580078125	0.0869309430846479	-9.918558995069295	-2.23103143615493	-0.7248224493440097	1.122859396550351	0.01847681845894361	0.02053388090349076	-0.4439918533604887	0.5702479338842975
3903.350830078125	-0.1099175815293039	-9.835540018027809	-2.336080615689871	-0.3622810739724808	-0.7399471462665556	-0.003776660722940747	0.01232032854209446	-0.4378818737270875	0.5723140495867769
3922.882080078125	0.01200118923599472	-9.549452948813697	-2.066706307866491	-0.007189910072355707	-1.100789916442297	0.7189910072355706	0	-0.4419551934826884	0.5578512396694215
3942.413330078125	0.3461039508974869	-9.681426389209813	-2.203465029916225	-0.36239263171493	0.3755187204834998	0.007379113521984299	0.006160164271047228	-0.4460285132382892	0.5805785123966942
3961.944580078125	0.09761750605855804	-9.5384370063744	-2.253916868618601	-0.0001487436565990006	1.487287822333407	0.01487436565990006	0.01026694045174538	-0.4460285132382892	0.5826446280991736
3981.475830078125	-0.2590578695799269	-9.577095377830842	-2.031404347335772	0.003501990250803478	1.479949847179528	-0.3501990250803478	0.01642710472279261	-0.4256619144602851	0.5702479338842975
4001.007080078125	-0.0002673415134053369	-9.856753107089334	-2.324421949553156	3.718591414975016e-05	-0.3718219555833518	-0.003718591414975016	0.01026694045174538	-0.4195519348268839	0.5578512396694215
4020.538330078125	-0.04675243150655224	-9.655116619520452	-2.441585616448259	-0.3623182598866305	-0.3681251906832038	-5.806930796573191e-05	0.01232032854209446	-0.4439918533604887	0.5785123966942149
4040.069580078125	0.07400864798535695	-9.649403870484734	-2.133621599511898	-0.3659318078798833	-0.7326091711126765	0.3612967300173071	0.01232032854209446	-0.4399185336048879	0.5681818181818182
4059.600830078125	0.1141800620011498	-9.779748446619626	-2.139335400038327	-0.3624670035432295	1.119162631650203	0.01481629635193433	0.002053388090349076	-0.4378818737270875	0.5723140495867769
4079.132080078125	0.05292415623785035	-9.549554522816429	-2.097471874595012	-0.003725105735701979	0.7509818863205826	0.3725105735701979	0.006160164271047228	-0.4378818737270875	0.5578512396694215
4098.663330078125	0.2997529259700594	-9.779746553936347	-2.325097532335311	0	0	0	0.01848049281314168	-0.4460285132382892	0.5557851239669421
4118.194580078125	-0.005388627023889625	-9.598408989404392	-2.153712432537013	0.3622067021441813	1.483591057433259	0.01121384355289078	0.01026694045174538	-0.4439918533604887	0.5661157024793388
4137.725830078125	-0.08747587814589594	-9.858283867267174	-2.084137395136803	-0.7210601576941581	5.555464641699391e-05	-0.3577523465262293	0.02258726899383984	-0.4276985743380855	0.5557851239669421
4157.257080078125	-0.003206520924796599	-9.861036775099018	-1.893115969173447	-0.362095144401732	-2.599056924183315	-0.02236961779781583	0.02053388090349076	-0.45010183299389	0.5681818181818182
4176.788330078125	0.5528220302024935	-9.611254210234527	-2.427401006749782	-0.362095144401732	-2.599056924183315	-0.02236961779781583	0.01437371663244353	-0.4439918533604887	0.5743801652892562
4196.319580078125	0.2124947064014492	-9.677960044930197	-2.416490213381639	-0.003725105735701979	0.7509818863205826	0.3725105735701979	0	-0.4399185336048879	0.5929752066115702
4215.850830078125	-0.1105035247283014	-9.865729472995485	-2.316549175723288	-0.0001487436565990006	1.487287822333407	0.01487436565990006	0.002053388090349076	-0.4338085539714867	0.5723140495867769
4235.382080078125	0.08275599921453644	-9.6599088935873	-2.091866640484548	-0.007152724158205957	-1.472611872025649	0.7152724158205956	-0.008213552361396304	-0.4419551934826884	0.5681818181818182
4254.913330078125	0.3825357381977397	-9.632980111316066	-2.084524606591322	-0.3622067021441813	-1.483591057433259	-0.01121384355289078	0.01642710472279261	-0.4358452138492871	0.5764462809917356
4274.444580078125	0.3516069275362548	-9.632980426763279	-2.053564251208492	-0.3661921092789315	1.870144517970786	0.3873268699221322	0.008213552361396304	-0.4297352342158859	0.5681818181818182
4293.975830078125	-0.0633110443589758	-9.697137237676069	-2.222965188034141	-0.3587418978075275	0.3681807453296208	-0.3576942772182636	0.01026694045174538	-0.4419551934826884	0.5661157024793388
4313.507080078125	0.03566998227975278	-9.478466705729547	-2.188999409325093	-0.7282500677665138	-1.10073436179588	0.3612386607093414	0	-0.4460285132382892	0.5599173553719008
4333.038330078125	0.3681813127493512	-9.390954708877711	-2.272710424978372	-1.079653311845087	-1.11905152235737	-0.7303209894043929	0.006160164271047228	-0.4460285132382892	0.5805785123966942
4352.569580078125	-0.119259550755851	-9.498560588077725	-2.024681641471635	-0.3625041894573793	1.490984587233555	0.01853488776690934	0.002053388090349076	-0.4378818737270875	0.5578512396694215
4372.100830078125	0.1514635567777383	-9.597693449975198	-2.382118559257942	-0.003576362079102979	-0.7363059360128246	0.3576362079102978	0.01848049281314168	-0.4419551934826884	0.5516528925619835
4391.632080078125	0.2654898382623275	-9.660824952295181	-2.182994608744249	0.3587047118933778	0.003641210253730994	0.3614128686332386	0.02258726899383984	-0.4338085539714867	0.5599173553719008
4411.163330078125	0.1507569550195932	-9.757921917876997	-2.358565167319774	-0.3587418978075275	0.3681807453296208	-0.3576942772182636	0.01026694045174538	-0.4419551934826884	0.5516528925619835
4430.694580078125	-0.1074539387921999	-9.794743440209478	-2.418202040260002	-0.00391103530645073	2.610091664237342	0.391103530645073	-0.01026694045174538	-0.4358452138492871	0.5516528925619835
4450.225830078125	-0.161225070798184	-9.785462772891412	-2.292497640060534	3.718591414975016e-05	-0.3718219555833518	-0.003718591414975016	-0.004106776180698152	-0.4297352342158859	0.5661157024793388
4469.757080078125	0.2141523815081689	-9.590757396645692	-2.138412716938963	-0.003613547993252729	-0.3644839804294728	0.3613547993252729	-0.002053388090349076	-0.4358452138492871	0.5433884297520661
4489.288330078125	0.1177548675476582	-9.848592592826256	-2.258495584921938	0.358816269635827	-1.111824656496325	0.3502570943883135	0.004106776180698152	-0.4317718940936863	0.5516528925619835
4508.819580078125	-0.2980282183304799	-9.616362457260189	-2.065726055650671	-0.3694709840448365	-1.840737062708853	0.7152143465126299	-0.006160164271047228	-0.45010183299389	0.5640495867768596
4528.350830078125	0.2711276685848486	-9.702335387157566	-2.037588952828286	-0.003762291649851729	1.122803841903934	0.3762291649851729	-0.004106776180698152	-0.4195519348268839	0.5640495867768596
4547.882080078125	0.1299327072231892	-9.691321757997835	-1.997756907439638	-0.00387384939230098	2.23826970865399	0.387384939230098	0.002053388090349076	-0.4480651731160896	0.5599173553719008
4567.413330078125	0.2761905963608433	-9.500698373843326	-2.206353212028107	-0.7247108916015605	0.007393529800295976	0.007321044214018567	0.006160164271047228	-0.4378818737270875	0.5723140495867769
4586.944580078125	-0.1202413802077378	-9.615544712933835	-2.325287326408741	-0.3660061797081828	0.01103474005402697	0.3687339128472572	0.02258726899383984	-0.4480651731160896	0.5495867768595042
4606.475830078125	0.07217037934893272	-9.826664910677179	-2.405679311631091	-0.3587047118933778	-0.003641210253730994	-0.3614128686332386	0.006160164271047228	-0.4378818737270875	0.5661157024793388
4626.007080078125	0.03338614445431969	-9.639205146626436	-2.112871481810656	-0.7209114140375591	-1.48723226768699	-0.3726267121861294	0.01642710472279261	-0.4358452138492871	0.5847107438016529
4645.538330078125	0.2004927285474208	-9.671840684436335	-2.016424284914026	-0.01080345806560844	-1.46527389687177	1.080345806560844	0.02053388090349076	-0.4358452138492871	0.5433884297520661
4665.069580078125	0.1567709561441625	-9.629310724180055	-2.225698538138751	-0.01106375946465669	1.137479792211692	1.106375946465669	-0.002053388090349076	-0.4378818737270875	0.5661157024793388
4684.600830078125	-0.05118367623759801	-9.646549388650158	-2.293877458746733	0.3584444104943295	2.606394899337194	0.3874430085380637	0.006160164271047228	-0.4358452138492871	0.5516528925619835
4704.132080078125	-0.2992001047284749	-9.676741367195541	-2.026663175717504	-1.08714070923064	0.7547342058671476	0.01841874915097788	0.008213552361396304	-0.4338085539714867	0.5785123966942149
4723.663330078125	0.184650180869546	-9.700296441518848	-2.155006028984867	-0.3657458783091345	-2.591718949029436	0.342703772942432	0.006160164271047228	-0.4317718940936863	0.5661157024793388
4743.194580078125	0.4058575393066944	-9.962106062290834	-2.195251310223145	-0.003576362079102979	-0.7363059360128246	0.3576362079102978	-0.01026694045174538	-0.4419551934826884	0.5640495867768596
4762.725830078125	0.2242317085961732	-9.577498414220571	-2.474390286539105	-0.36239263171493	0.3755187204834998	0.007379113521984299	0.01642710472279261	-0.4358452138492871	0.5702479338842975
4782.257080078125	0.09751183124204975	-9.67847117456507	-2.250394374734991	0.3658946219657335	1.104431126696028	-0.3575781386023321	0.008213552361396304	-0.4439918533604887	0.5702479338842975
4801.788330078125	-0.3403486164879527	-9.736712719331106	-1.988379450401577	-1.079839241415835	0.7400582555593896	-0.7117280323295179	0.01848049281314168	-0.4317718940936863	0.5661157024793388
4821.319580078125	0.1039761332638298	-9.639714383578028	-2.132537775460993	-0.3658574360515838	-1.47625308227938	0.3538595471873571	-0.01026694045174538	-0.4378818737270875	0.5454545454545454
4840.850830078125	0.284802305288236	-9.631247254623471	-2.160076842941198	-0.3694337981306867	-2.212559018292205	0.7114957550976549	0.008213552361396304	-0.4317718940936863	0.5640495867768596
4860.382080078125	-0.01904985722070502	-10.09949278716803	-2.0316714259765	-0.36239263171493	0.3755187204834998	0.007379113521984299	0.01026694045174538	-0.4460285132382892	0.5599173553719008
4879.913330078125	0.1351446838075425	-9.799636552235562	-2.171489460251417	-0.7283988114231127	0.3865534605375267	0.3761130263692414	0.01848049281314168	-0.4480651731160896	0.5537190082644629
4899.444580078125	0.09971996173625301	-9.677757212371944	-2.323998724541767	-0.007338653728954708	0.3864979058911098	0.7338653728954707	0.004106776180698152	-0.415478615071283	0.5702479338842975
4918.975830078125	-0.1896295151339744	-9.574646876559985	-2.345682828867521	-0.3588534555499768	1.483646612079676	-0.3465385029733385	0.01642710472279261	-0.4297352342158859	0.5681818181818182
4938.507080078125	0.1019336125566918	-9.54037479860667	-2.064453751889726	-0.3621695162300315	-1.855413013016611	-0.0149324349678658	-0.008213552361396304	-0.4338085539714867	0.5578512396694215
4958.038330078125	0.2607880975457418	-9.682345181793544	-2.026269918191394	-0.003464804336653728	-1.85177180276288	0.3464804336653728	-0.008213552361396304	-0.4256619144602851	0.5785123966942149
4977.569580078125	0.2976812263956765	-9.450416403465399	-2.256040879855882	0.3549424202435261	1.126445052157665	0.7376420336184115	0.006160164271047228	-0.4460285132382892	0.5723140495867769
4997.100830078125	-0.0215915731431397	-9.596981275316283	-2.280280895228677	0.728064138195765	2.959844139712639	-0.3426457036344663	0.008213552361396304	-0.4236252545824847	0.5661157024793388
5016.632080078125	-0.2809593696102887	-9.70417686284066	-2.301354346323712	0.3585931541509285	1.119107077003786	0.3725686428781636	0.01026694045174538	-0.4256619144602851	0.5743801652892562
5036.163330078125	-0.1857644981510851	-9.696730521068851	-2.141183394963833	-0.3621323303158818	-2.227234968599963	-0.01865102638284081	0.01232032854209446	-0.4276985743380855	0.5578512396694215
5055.694580078125	0.1385909446145669	-9.431855594574623	-1.953031487152229	-1.09772105181135	-2.941471424504734	1.076453007221971	0.01848049281314168	-0.4317718940936863	0.5619834710743802
5075.225830078125	0.2126808202573892	-9.451233201450112	-2.089360675246305	-0.3551655357284246	1.104486681342445	-0.7153304851285613	-0.006160164271047228	-0.4297352342158859	0.5661157024793388
5094.757080078125	-0.4755051295659999	-9.753746658559672	-2.149829014466672	-0.7211717154366073	1.115521421396473	-0.3465965722813042	0	-0.4378818737270875	0.5619834710743802
5114.288330078125	0.2079428031112559	-9.799431826994027	-2.264760103708529	0.3553142793850236	-2.591774503675853	0.7004561194686614	-0.01232032854209446	-0.4419551934826884	0.5909090909090909
5133.819580078125	0.5218687723819656	-9.454595763596497	-2.062292412732186	-0.003576362079102979	-0.7363059360128246	0.3576362079102978	0.008213552361396304	-0.4358452138492871	0.5805785123966942
5153.350830078125	0.09276513929754637	-9.670005938293794	-2.092171309918212	-0.003725105735701979	0.7509818863205826	0.3725105735701979	0.01642710472279261	-0.4338085539714867	0.5619834710743802
5172.882080078125	-0.2245093021440158	-9.675924674359898	-2.183023261866138	0.003576362079102979	0.7363059360128246	-0.3576362079102978	0	-0.4399185336048879	0.5537190082644629
5192.413330078125	-0.05261107487849369	-9.747010914210714	-2.246297504050211	0.0001487436565990006	-1.487287822333407	-0.01487436565990006	0.008213552361396304	-0.4256619144602851	0.5619834710743802
5211.944580078125	0.2484004854732615	-9.699683843030313	-2.28001618244205	-0.362095144401732	-2.599056924183315	-0.02236961779781583	0.006160164271047228	-0.4460285132382892	0.5619834710743802
5231.475830078125	0.3218594666891686	-9.719265439103836	-2.395315556305619	-0.717483795615055	0.7363614906592416	-0.7153885544365272	0.006160164271047228	-0.4399185336048879	0.5619834710743802
5251.007080078125	0.13573062700654	-9.769447097267886	-2.191020900218	-3.718591414975016e-05	0.3718219555833518	0.003718591414975016	0.01848049281314168	-0.4256619144602851	0.5557851239669421
5270.538330078125	0.1517687519567585	-9.660928103533982	-2.058958398558616	-0.007152724158205957	-1.472611872025649	0.7152724158205956	-0.004106776180698152	-0.4399185336048879	0.5681818181818182
5290.069580078125	0.3657618326221314	-9.671737007452178	-2.192061087404376	-0.007227095986505457	-0.7289679608589457	0.7227095986505457	0.01642710472279261	-0.4317718940936863	0.5723140495867769
5309.600830078125	0.1543514760169427	-9.910093022754522	-2.145049200564756	-0.00391103530645073	2.610091664237342	0.391103530645073	0.004106776180698152	-0.4317718940936863	0.5599173553719008
5329.132080078125	-0.0295432087763724	-9.696218970837695	-2.348559707454254	0.7245621479449615	1.479894292533111	0.007553321445881495	0.006160164271047228	-0.4460285132382892	0.5537190082644629
5348.663330078125	0.07623176222219945	-9.658685063548157	-2.207725407406648	-0.003464804336653728	-1.85177180276288	0.3464804336653728	0	-0.4419551934826884	0.5495867768595042
5368.194580078125	0.1437571813529689	-9.720185178029206	-2.125239378432295	-0.369545355873136	-1.097093151542149	0.7226515293425799	-0.006160164271047228	-0.4378818737270875	0.5537190082644629
5387.725830078125	0.06554598786632293	-9.828806797256556	-2.184866262210764	-0.3587790837216773	0.7400027009129726	-0.3539756858032885	0.002053388090349076	-0.4419551934826884	0.5578512396694215
5407.257080078125	-0.003991195868272414	-9.477957153330742	-2.200293471057587	0.3660061797081828	-0.01103474005402697	-0.3687339128472572	0.01232032854209446	-0.4317718940936863	0.5640495867768596
5426.788330078125	0.1286251785234074	-9.871744525610765	-1.954172617446912	0.007338653728954708	-0.3864979058911098	-0.7338653728954707	-0.008213552361396304	-0.4378818737270875	0.5681818181818182
5446.319580078125	0.02546447630636548	-9.758433152660942	-2.182149210212183	1.083266859838339	1.483535502786842	0.3689661900791201	0.006160164271047228	-0.4439918533604887	0.5723140495867769
5465.850830078125	0.01100437604146868	-9.656441918413259	-2.366812534715623	-0.01098938763635719	0.3938358810449887	1.098938763635719	0.01642710472279261	-0.4338085539714867	0.5619834710743802
5485.382080078125	0.05013954596105331	-9.727121546805927	-2.337984865368444	-0.003576362079102979	-0.7363059360128246	0.3576362079102978	-0.008213552361396304	-0.4338085539714867	0.5826446280991736
5504.913330078125	0.1931120523705464	-9.730893769733525	-2.103735079018212	-0.3732332756946882	-0.7179332208049186	1.091443511497803	0	-0.4439918533604887	0.5578512396694215
5524.444580078125	0.2306960106179532	-9.538741623233529	-2.356533687265107	0.007227095986505457	0.7289679608589457	-0.7227095986505457	0.02669404517453799	-0.4480651731160896	0.5681818181818182
5543.975830078125	-0.1550454598865494	-9.556798032029985	-2.16515133711502	0.7208742281234094	1.859054223270342	0.3763453036011044	-0.006160164271047228	-0.4460285132382892	0.5619834710743802
5563.507080078125	-0.05701708383246284	-9.685102190439164	-2.432763872251239	0.362243888058331	1.111769101849907	0.007495252137915762	0.01642710472279261	-0.4480651731160896	0.5557851239669421
5583.038330078125	-0.1609695585552834	-9.745380157266208	-2.30101471482389	0.717483795615055	-0.7363614906592416	0.7153885544365272	0.01026694045174538	-0.4480651731160896	0.5681818181818182
5602.569580078125	-0.07055607823406343	-9.636146465295681	-2.314797392197886	0.3587790837216773	-0.7400027009129726	0.3539756858032885	0.004106776180698152	-0.4297352342158859	0.5681818181818182
5622.100830078125	0.00648244023655386	-9.797904010990182	-2.216081341218462	-0.7211717154366073	1.115521421396473	-0.3465965722813042	-0.006160164271047228	-0.45010183299389	0.5619834710743802
5641.632080078125	-0.09568223740399565	-9.787603923427291	-2.143925419866813	-0.0001115577424492505	1.115465866750055	0.01115577424492505	-0.006160164271047228	-0.4419551934826884	0.5578512396694215
5661.163330078125	0.06668790677903948	-9.74843757680811	-2.222930225967982	-0.365968993794033	-0.3607872155293249	0.3650153214322821	0.002053388090349076	-0.4338085539714867	0.5681818181818182
5680.694580078125	0.5966037375763088	-9.693764791516994	-2.220124585876955	-0.7212460872649068	1.859165332563176	-0.3391593894513542	0.01642710472279261	-0.4378818737270875	0.5702479338842975
5700.225830078125	-0.1000984983924022	-9.789031847813543	-1.996716720253262	-0.3514776159068723	0.7253267506052147	-1.084122467283784	0.01642710472279261	-0.4338085539714867	0.5640495867768596
5719.757080078125	-0.1146043385032503	-9.867055402782718	-2.17985538322499	-0.3624298176290798	0.7473406760668516	0.01109770493695932	0.02258726899383984	-0.4460285132382892	0.5702479338842975
5739.288330078125	-0.06329684923437021	-9.917132647919113	-2.223438358854327	-0.01072908623730894	-2.208917808038474	1.072908623730894	0.02874743326488707	-0.4358452138492871	0.5702479338842975
5758.819580078125	0.4524136049228693	-9.930386267741605	-2.413786830762307	-0.3658574360515838	-1.47625308227938	0.3538595471873571	0.002053388090349076	-0.4399185336048879	0.5495867768595042
5778.350830078125	0.432896885826247	-9.683363340249514	-2.096562860874898	0.7208742281234094	1.859054223270342	0.3763453036011044	0.01848049281314168	-0.4419551934826884	0.5619834710743802
5797.882080078125	-0.02297402055611768	-9.727428266646479	-2.234199314796078	-0.0001487436565990006	1.487287822333407	0.01487436565990006	0.02053388090349076	-0.4358452138492871	0.5702479338842975
5817.413330078125	-0.00451720409671298	-9.548127229324603	-2.182759863442901	-0.3624670035432295	1.119162631650203	0.01481629635193433	-0.002053388090349076	-0.4358452138492871	0.5619834710743802
5836.944580078125	0.1079271096123864	-9.538436901225328	-2.264236987079545	-0.72478526342986	0.7510374409669995	0.0147582270439686	0.008213552361396304	-0.4276985743380855	0.5578512396694215
5856.475830078125	-0.115774647665178	-9.507433802745075	-2.140845077827399	-0.7173722378726058	-0.3791043760908138	-0.7265443286814521	-0.004106776180698152	-0.4541751527494908	0.5537190082644629
5876.007080078125	-0.05462362810035323	-9.667661639752449	-2.179212396654893	-0.3622067021441813	-1.483591057433259	-0.01121384355289078	0.002053388090349076	-0.4236252545824847	0.5743801652892562
5895.538330078125	0.1240086085544553	-9.879903883234061	-2.133620285148508	-0.724487776116662	-2.223538203699815	-0.01499050427583152	-0.01026694045174538	-0.4399185336048879	0.5681818181818182
5915.069580078125	0.4563393454943492	-9.882450278290161	-2.211311516478305	-0.7245621479449615	-1.479894292533111	-0.007553321445881495	0.004106776180698152	-0.4439918533604887	0.5619834710743802
5934.600830078125	0.2078529006554205	-9.739460895454748	-2.261763355180682	0.003464804336653728	1.85177180276288	-0.3464804336653728	0.004106776180698152	-0.4358452138492871	0.5723140495867769
5954.132080078125	0.2660607977186858	-9.62064034207096	-2.202026590622858	-0.0001487436565990006	1.487287822333407	0.01487436565990006	0.01437371663244353	-0.4419551934826884	0.5599173553719008
5973.663330078125	0.1240243809151281	-9.679898783504107	-2.134146030504271	-1.083341231666639	-0.7398915916201386	-0.36152900724917	0.004106776180698152	-0.4399185336048879	0.5785123966942149
5993.194580078125	0.1043964666757621	-9.709578475774837	-2.146548889192069	0	0	0	0.01232032854209446	-0.4378818737270875	0.5723140495867769
6012.725830078125	-0.04162562566983245	-9.776792285633245	-2.279145811005585	-0.7173722378726058	-0.3791043760908138	-0.7265443286814521	0.008213552361396304	-0.4297352342158859	0.5495867768595042
6032.257080078125	-0.006259261333032622	-9.438690494497679	-2.124691288898913	0.36239263171493	-0.3755187204834998	-0.007379113521984299	0.01026694045174538	-0.4439918533604887	0.5495867768595042
6051.788330078125	0.0674694272503807	-9.638184885189043	-2.248980908346023	-0.3622810739724808	-0.7399471462665556	-0.003776660722940747	0.01642710472279261	-0.4317718940936863	0.5702479338842975
6071.319580078125	0.0755109653394488	-9.598918121206912	-2.183698844648293	0.3585931541509285	1.119107077003786	0.3725686428781636	0.01642710472279261	-0.4419551934826884	0.5805785123966942
6090.850830078125	0.02759847670540621	-9.497743159198585	-2.253282556846874	0.003613547993252729	0.3644839804294728	-0.3613547993252729	0.01232032854209446	-0.4480651731160896	0.5599173553719008
6110.382080078125	0.2169906178112538	-9.799839700241028	-2.233020593708458	-0.003539176164953228	-1.108127891596177	0.3539176164953228	0.02053388090349076	-0.4419551934826884	0.5785123966942149
6129.913330078125	0.1272537717629004	-9.728854613796663	-2.24179239209668	-0.3623182598866305	-0.3681251906832038	-5.806930796573191e-05	0.02669404517453799	-0.4317718940936863	0.5723140495867769
6149.444580078125	-0.05716218955065334	-9.658482441288045	-2.094593681644889	-0.3551655357284246	1.104486681342445	-0.7153304851285613	0.004106776180698152	-0.4460285132382892	0.5661157024793388
6168.975830078125	-0.1164362981954054	-9.697647736416515	-2.118790060153155	-0.36239263171493	0.3755187204834998	0.007379113521984299	0.01848049281314168	-0.4338085539714867	0.5599173553719008
6188.507080078125	0.05059063547629768	-9.60697569452933	-2.353021182543256	-0.007227095986505457	-0.7289679608589457	0.7227095986505457	0.01437371663244353	-0.4297352342158859	0.5599173553719008
6208.038330078125	0.04227860140168969	-9.67632991888012	-2.409286713389656	-1.449347411374822	-0.7288568515661117	0.007204905598087103	0.002053388090349076	-0.4378818737270875	0.5516528925619835
6227.569580078125	-0.1530786465106412	-9.816162095705106	-2.230711782978626	-0.3550167920718256	-0.3828011409909618	-0.7302048507884614	-0.004106776180698152	-0.4236252545824847	0.5743801652892562
6247.100830078125	0.09895894533378653	-9.661336607675411	-1.965298177792884	0.3587790837216773	-0.7400027009129726	0.3539756858032885	0.01026694045174538	-0.4215885947046843	0.5640495867768596
6266.632080078125	0.4047763439825685	-9.872455648778971	-2.159211466085613	3.718591414975016e-05	-0.3718219555833518	-0.003718591414975016	0.008213552361396304	-0.4480651731160896	0.5723140495867769
6286.163330078125	0.2542039255828479	-9.641140730728212	-2.140130852761596	-0.7211345295224576	0.7436994658131205	-0.3503151636962792	0.01437371663244353	-0.4439918533604887	0.5578512396694215
6305.694580078125	-0.1378370257744032	-9.807900638333724	-2.072099140853227	-0.3477153242570206	-0.3974770912987198	-1.460351632268957	0.02464065708418891	-0.4358452138492871	0.5640495867768596
6325.225830078125	0.1468059786710367	-9.859199400229697	-2.226865955701222	-0.007152724158205957	-1.472611872025649	0.7152724158205956	0.02258726899383984	-0.45010183299389	0.5702479338842975
6344.757080078125	0.1022285557012746	-9.666946100323255	-2.407618523375821	0.3586303400650783	0.7472851214204346	0.3688500514631886	0.006160164271047228	-0.4338085539714867	0.5557851239669421
6364.288330078125	-0.06732116706005566	-9.548433844016085	-2.089294431331479	-0.3552027216425743	1.476308636925797	-0.7116118937135864	-0.002053388090349076	-0.4276985743380855	0.5702479338842975
6383.819580078125	-0.009990213250202495	-9.616563502284233	-2.333659558326584	-0.3585931541509285	-1.119107077003786	-0.3725686428781636	0.01232032854209446	-0.4276985743380855	0.5599173553719008
6403.350830078125	0.1839743352147131	-9.670514964947243	-2.132477840490436	-0.3657830642232843	-2.219896993446084	0.346422364357407	-0.002053388090349076	-0.4358452138492871	0.5743801652892562
6422.882080078125	0.4756218450349793	-9.832882270105356	-2.187394834499305	-0.3660061797081828	0.01103474005402697	0.3687339128472572	0.01437371663244353	-0.4317718940936863	0.5847107438016529
6442.413330078125	0.02130372756085962	-9.719778461421988	-2.043457585361987	-0.7139818053642516	2.21631133783877	-1.065587579516875	0	-0.460285132382892	0.5599173553719008
6461.944580078125	0.04691015511328103	-9.678165716513373	-2.230338503776034	-0.3660805515364823	0.7546786512207306	0.3761710956772072	0.006160164271047228	-0.4541751527494908	0.5681818181818182
6481.475830078125	0.1000503926923498	-9.687650373029474	-2.335013089744995	-0.01080345806560844	-1.46527389687177	1.080345806560844	0.01642710472279261	-0.4317718940936863	0.5702479338842975
6501.007080078125	0.1590398102269564	-9.458577128026619	-2.301327007565213	0.3514032440785728	0.01831716056148896	1.091559650113734	0.0349075975359343	-0.4480651731160896	0.5640495867768596
6520.538330078125	0.2395324756849345	-9.819217832861872	-2.317749189497816	0.3587047118933778	0.003641210253730994	0.3614128686332386	0.01026694045174538	-0.4338085539714867	0.5702479338842975
6540.069580078125	0.149044865268552	-9.668475493563168	-2.301495508951735	0.003539176164953228	1.108127891596177	-0.3539176164953228	0.02053388090349076	-0.4317718940936863	0.5640495867768596
6559.600830078125	0.2365286295947844	-9.710189076431019	-2.217620986492813	-0.7247480775157102	0.3792154853836477	0.01103963562899358	0.008213552361396304	-0.4562118126272912	0.5495867768595042
6579.132080078125	-0.05925439319391095	-9.455825587132699	-2.358186893536303	-0.362541375371529	1.862806542816907	0.02225347918188436	0.002053388090349076	-0.4439918533604887	0.5702479338842975
6598.663330078125	-0.07984363281628909	-9.475816107943935	-2.338545572790364	-0.717335051958456	-0.7509263316741656	-0.7302629200964272	-0.008213552361396304	-0.4399185336048879	0.5599173553719008
6618.194580078125	0.04691015511328103	-9.678165716513373	-2.230338503776034	-0.007115538244056207	-1.844433827609001	0.7115538244056206	0.006160164271047228	-0.4439918533604887	0.5743801652892562
6637.725830078125	0.3671639954859504	-9.624616974792875	-1.905466516198346	-0.3622810739724808	-0.7399471462665556	-0.003776660722940747	0.002053388090349076	-0.4358452138492871	0.5516528925619835
6657.257080078125	0.03589473841934133	-9.628394034577747	-2.196491280644711	-0.3660805515364823	0.7546786512207306	0.3761710956772072	0.02258726899383984	-0.4439918533604887	0.5764462809917356
6676.788330078125	0.1274335766745713	-9.848796476875222	-2.247785889152375	-7.437182829950031e-05	0.7436439111667036	0.007437182829950031	0.02258726899383984	-0.4358452138492871	0.5433884297520661
6696.319580078125	0.2680583671979061	-9.689994461272677	-2.268612239930202	-0.3587790837216773	0.7400027009129726	-0.3539756858032885	0.01437371663244353	-0.4460285132382892	0.5516528925619835
6715.850830078125	-0.07569392472325426	-9.787807702327186	-2.143535842558193	0.003650733907402479	-0.007337975153878983	-0.3650733907402479	-0.03285420944558522	-0.4480651731160896	0.5661157024793388
6735.382080078125	-0.04413421963485409	-9.787603397681936	-2.195526012171531	3.718591414975016e-05	-0.3718219555833518	-0.003718591414975016	0.01026694045174538	-0.4276985743380855	0.5640495867768596
6754.913330078125	0.2062606808454932	-9.729975713193291	-2.208689361516439	-0.362243888058331	-1.111769101849907	-0.007495252137915762	0.002053388090349076	-0.4460285132382892	0.5495867768595042
6774.444580078125	0.2351919220277578	-9.66062127854436	-2.173064067591926	-0.007487397385553709	1.873785728224517	0.7487397385553708	-0.002053388090349076	-0.4236252545824847	0.5785123966942149
6793.975830078125	-0.1116588501475899	-9.516103028214388	-2.278038328413671	-0.3589278273782763	2.22729052324638	-0.3391013201433885	-0.004106776180698152	-0.4338085539714867	0.5578512396694215
6813.507080078125	0.07684688428844177	-9.85848617408007	-2.228229476281392	0.3585559682367788	1.490929032587138	0.3762872342931387	0.01848049281314168	-0.4175152749490835	0.5681818181818182
6833.038330078125	0.01009273359457619	-9.750070016137753	-2.003091119819207	-0.007227095986505457	-0.7289679608589457	0.7227095986505457	-0.02053388090349076	-0.4215885947046843	0.5702479338842975
6852.569580078125	0.08467864998056057	-9.679287236506285	-2.155954999352019	-0.3659318078798833	-0.7326091711126765	0.3612967300173071	0.006160164271047228	-0.4419551934826884	0.5826446280991736
6872.100830078125	-0.02276345954113472	-9.657360185251635	-2.24121801529551	-0.003687919821552229	0.3791599307372308	0.3687919821552229	0.01642710472279261	-0.4317718940936863	0.5805785123966942
6891.632080078125	-0.08992926884856248	-9.835743796927702	-2.335691038381251	-0.003613547993252729	-0.3644839804294728	0.3613547993252729	0.004106776180698152	-0.4399185336048879	0.5557851239669421
6911.163330078125	-0.006020310068838489	-9.808613233588925	-2.132656331038718	-0.365820250137434	-1.848075037862732	0.3501409557723821	0.02053388090349076	-0.4236252545824847	0.5681818181818182
6930.694580078125	0.2949321039303935	-9.51130528639584	-2.164403464346447	-1.086880407831592	-1.848019483216315	-0.007611390753847227	0.002053388090349076	-0.4338085539714867	0.5516528925619835
6950.225830078125	0.07568051821668227	-9.782196632443272	-1.856017273889409	-0.3552399075567241	1.848130592509149	-0.7078933022986114	0.01232032854209446	-0.4338085539714867	0.5619834710743802
6969.757080078125	-0.3730999234251889	-9.71396897524081	-2.230002552493702	-0.7248596352581596	1.494681352133703	0.02219540987391863	-0.004106776180698152	-0.4460285132382892	0.5743801652892562
6989.288330078125	0.1408582214612935	-9.68112250839418	-2.028607382043115	-0.7318264298456169	-1.837040297808705	0.7188748686196392	0.01642710472279261	-0.4419551934826884	0.5723140495867769
7008.819580078125	0.1362866027202591	-9.719267331787117	-2.209553424008635	-0.7209857858658586	-0.7435883565202867	-0.3651895293561793	0.01232032854209446	-0.4521384928716904	0.5599173553719008
7028.350830078125	0.04730052103993482	-9.72803949819709	-2.243350701331161	0.3623182598866305	0.3681251906832038	5.806930796573191e-05	0.006160164271047228	-0.4338085539714867	0.5475206611570248
7047.882080078125	0.01378819770023208	-9.68887514941026	-2.126273256674403	7.437182829950031e-05	-0.7436439111667036	-0.007437182829950031	0.01026694045174538	-0.4399185336048879	0.5723140495867769
7067.413330078125	0.2887067531728075	-9.919984816474125	-2.29022510576025	-0.7319379875880661	-0.7215744310586497	0.7300306428645642	0.002053388090349076	-0.4480651731160896	0.5681818181818182
7086.944580078125	0.3397153562069365	-9.560158701493091	-2.323845206897884	-0.0001115577424492505	1.115465866750055	0.01115577424492505	0.01232032854209446	-0.4378818737270875	0.5495867768595042
7106.475830078125	-0.2458493061344232	-9.616157942316796	-2.138356462185897	-0.7175581674433545	1.480005401825945	-0.7079513716065771	0.01848049281314168	-0.4623217922606924	0.5599173553719008
7126.007080078125	-0.1484967757351695	-9.71468062415437	-2.383440808827685	-0.003687919821552229	0.3791599307372308	0.3687919821552229	-0.01026694045174538	-0.4480651731160896	0.5681818181818182
7145.538330078125	0.1803490581140515	-9.708353804543123	-2.344968603801717	0.3551655357284246	-1.104486681342445	0.7153304851285613	0.008213552361396304	-0.4175152749490835	0.5557851239669421
7165.069580078125	-0.1359743099789361	-9.787298360226522	-2.134189667368799	-0.7208742281234094	-1.859054223270342	-0.3763453036011044	0.002053388090349076	-0.4399185336048879	0.5619834710743802
7184.600830078125	0.2223287732809902	-9.641447029972479	-2.077625776033004	7.437182829950031e-05	-0.7436439111667036	-0.007437182829950031	-0.004106776180698152	-0.4378818737270875	0.5578512396694215
7204.132080078125	-0.08648379665957176	-9.677963094253261	-2.117206778014276	-0.0001487436565990006	1.487287822333407	0.01487436565990006	0.006160164271047228	-0.4358452138492871	0.5702479338842975
7223.663330078125	0.03759184442774326	-9.707845303635029	-2.253061480924775	-0.362541375371529	1.862806542816907	0.02225347918188436	-0.01232032854209446	-0.4439918533604887	0.5640495867768596
7243.194580078125	0.06306815000461341	-9.649607964831842	-2.102271666820447	-0.3588906414641265	1.855468567663028	-0.3428199115583635	0.002053388090349076	-0.4338085539714867	0.5702479338842975
7262.725830078125	-0.1666318360368474	-9.54721096031858	-2.112272132105087	-0.3624670035432295	1.119162631650203	0.01481629635193433	0.01642710472279261	-0.4256619144602851	0.5619834710743802
7282.257080078125	0.06775490697855983	-9.618092580076933	-2.258496899285328	-0.003464804336653728	-1.85177180276288	0.3464804336653728	0.01026694045174538	-0.4399185336048879	0.5702479338842975
7301.788330078125	0.1999611999927447	-9.878679212002346	-2.332039999758157	0.3515148018210221	-1.097148706188567	1.080403875868809	-0.004106776180698152	-0.415478615071283	0.5681818181818182
7321.319580078125	0.4624085498812736	-9.720487902205054	-2.413618329375785	-0.3587418978075275	0.3681807453296208	-0.3576942772182636	0.008213552361396304	-0.4358452138492871	0.5619834710743802
7340.850830078125	0.2910655097114368	-9.80922215185997	-2.368850323714559	0.003427618422503978	2.223593758346232	-0.3427618422503977	0.01026694045174538	-0.4276985743380855	0.5826446280991736
7360.382080078125	-0.2661727814794633	-9.532729199345026	-2.460907284017893	-0.0001115577424492505	1.115465866750055	0.01115577424492505	0.01026694045174538	-0.4358452138492871	0.5681818181818182
7379.913330078125	-0.04432900828916417	-9.65766637934683	-2.189033057027861	-0.3621323303158818	-2.227234968599963	-0.01865102638284081	-0.006160164271047228	-0.4195519348268839	0.5661157024793388
7399.444580078125	-0.1468998242170403	-9.797497609830177	-2.103339192765323	-0.7135727603086044	-1.8737301735781	-1.1064920850816	-0.004106776180698152	-0.4419551934826884	0.5599173553719008
7418.975830078125	-0.1936861662990393	-9.815958527103355	-2.210461123365359	0	0	0	-0.002053388090349076	-0.4439918533604887	0.5681818181818182
7438.507080078125	0.1470465071712981	-9.809121629347947	-2.234883572376603	-0.007301467814804958	0.01467595030775797	0.7301467814804957	-0.01232032854209446	-0.4297352342158859	0.5723140495867769
7458.038330078125	0.2897587696296887	-9.779644664486399	-2.325292320989621	-0.7211717154366073	1.115521421396473	-0.3465965722813042	0.008213552361396304	-0.4399185336048879	0.5867768595041323
7477.569580078125	-0.1541306629675224	-9.956502247692832	-2.195644567749255	-0.7212460872649068	1.859165332563176	-0.3391593894513542	0.01437371663244353	-0.4521384928716904	0.5681818181818182
7497.100830078125	-0.1137021594727615	-9.626763698229528	-2.209928017574616	-1.086991965574041	-0.7325536164662596	0.003544383491077821	0.008213552361396304	-0.4236252545824847	0.5557851239669421
7516.632080078125	0.02596051704952757	-9.668272766153986	-2.198683901650919	0.3442505199203669	-1.45429471146416	1.80683206593433	0.01232032854209446	-0.4399185336048879	0.5578512396694215
7536.163330078125	0.3687814510729542	-9.580760664153077	-2.292715035765142	-0.3623554458007803	0.003696764900147988	0.003660522107009284	0	-0.4419551934826884	0.5619834710743802
7555.694580078125	0.2510746892253484	-9.588819183817137	-2.369156307511613	-0.0002231154848985009	2.230931733500111	0.02231154848985009	0.01026694045174538	-0.4419551934826884	0.5392561983471075
7575.225830078125	-0.2070287948102625	-9.476939310321987	-2.099040172991252	-0.7173722378726058	-0.3791043760908138	-0.7265443286814521	0.01026694045174538	-0.4317718940936863	0.5599173553719008
7594.757080078125	0.0506355867042154	-9.63696116029897	-2.35451955680718	-0.003464804336653728	-1.85177180276288	0.3464804336653728	0.006160164271047228	-0.4419551934826884	0.5475206611570248
7614.288330078125	0.07421920900033989	-9.579335789089891	-2.14064030001133	-0.007189910072355707	-1.100789916442297	0.7189910072355706	0.002053388090349076	-0.4521384928716904	0.5661157024793388
7633.819580078125	-0.02088102829482645	-9.720084865815329	-1.970632390172452	-0.358667525979228	-0.3754631658370828	-0.3651314600482136	0.01232032854209446	-0.4297352342158859	0.5578512396694215
7653.350830078125	0.152144134140773	-9.700806729961151	-2.071471138025768	0.3549052343293763	1.498267007741017	0.7413606250333865	0.01232032854209446	-0.4338085539714867	0.5599173553719008
7672.882080078125	-0.006055009262318822	-9.715291119661483	-2.464833024589373	-0.003576362079102979	-0.7363059360128246	0.3576362079102978	0.01026694045174538	-0.4419551934826884	0.5681818181818182
7692.413330078125	0.2946458355841807	-9.741397846494451	-2.154861186139355	0	0	0	-0.02053388090349076	-0.4297352342158859	0.5599173553719008
7711.944580078125	0.05236739190609767	-9.809734543283696	-2.078913063536589	-0.3550911639001251	0.3608427701757418	-0.7227676679585114	0.008213552361396304	-0.4480651731160896	0.5495867768595042
7731.475830078125	-0.05457394516423366	-9.770978908936437	-1.847535161192212	-7.437182829950031e-05	0.7436439111667036	0.007437182829950031	-0.006160164271047228	-0.4399185336048879	0.5723140495867769
7751.007080078125	0.2467790867960894	-9.460208095269266	-2.225969559869647	-0.007264281900655208	-0.3571460052755938	0.7264281900655207	0.02874743326488707	-0.4541751527494908	0.5599173553719008
7770.538330078125	0.1105547849004882	-9.81758728621551	-2.351826163349608	-0.00391103530645073	2.610091664237342	0.391103530645073	0	-0.4338085539714867	0.5557851239669421
7790.069580078125	-0.05865425487030784	-9.645631542408065	-2.378191504323072	0.003501990250803478	1.479949847179528	-0.3501990250803478	0.01437371663244353	-0.4541751527494908	0.5723140495867769
7809.600830078125	-0.09706389619893996	-9.70805065977099	-2.097870126702002	-0.00387384939230098	2.23826970865399	0.387384939230098	0.01437371663244353	-0.4378818737270875	0.5661157024793388
7829.132080078125	-0.08565811357834646	-9.807696123390333	-2.144729547388452	-1.090605513567294	-1.097037596895733	0.3648991828163506	-0.008213552361396304	-0.4358452138492871	0.5516528925619835
7848.663330078125	0.1129490292506315	-9.590146480542296	-2.098300975021049	0.3551655357284246	-1.104486681342445	0.7153304851285613	0.006160164271047228	-0.4460285132382892	0.5743801652892562
7868.194580078125	0.1571013871002594	-9.639203884837583	-2.236712903341979	-0.007264281900655208	-0.3571460052755938	0.7264281900655207	0.01848049281314168	-0.4460285132382892	0.5702479338842975
7887.725830078125	0.07693836398034448	-9.498456595646356	-2.231278799344816	-3.718591414975016e-05	0.3718219555833518	0.003718591414975016	0.006160164271047228	-0.4317718940936863	0.5681818181818182
7907.257080078125	0.09531789587245207	-9.89918054700124	-2.177263195748402	-0.3660805515364823	0.7546786512207306	0.3761710956772072	0.01848049281314168	-0.4419551934826884	0.5619834710743802
7926.788330078125	0.2228689766340363	-9.791272364221662	-2.095632554467876	-0.01084064397975819	-1.093451941288418	1.084064397975818	-0.01848049281314168	-0.4236252545824847	0.5578512396694215
7946.319580078125	0.1050880846912679	-9.539354852616491	-2.169602823042262	-0.3623182598866305	-0.3681251906832038	-5.806930796573191e-05	0.008213552361396304	-0.4521384928716904	0.5599173553719008
7965.850830078125	0.1335524639976152	-9.790151369974105	-2.118415466587174	0.007152724158205957	1.472611872025649	-0.7152724158205956	0.01026694045174538	-0.4175152749490835	0.5723140495867769
7985.382080078125	-0.1194756320970694	-9.705297121044719	-2.350812263431019	-0.3623182598866305	-0.3681251906832038	-5.806930796573191e-05	0.02258726899383984	-0.4480651731160896	0.5599173553719008
8004.913330078125	0.05164265193317881	-9.466635542541606	-2.388088397772627	-0.01080345806560844	-1.46527389687177	1.080345806560844	0.004106776180698152	-0.4439918533604887	0.5578512396694215
8024.444580078125	0.5426228331733753	-9.544551950607277	-2.087427772445844	-0.01076627215145869	-1.837095852455122	1.076627215145868	0.002053388090349076	-0.4338085539714867	0.5661157024793388
8043.975830078125	0.4680668842726695	-9.635325040751837	-1.93556280908898	-0.003687919821552229	0.3791599307372308	0.3687919821552229	0.01642710472279261	-0.4378818737270875	0.5495867768595042
8063.507080078125	0.1765187403246425	-9.679592273961697	-2.21729134415475	-0.00402259304889998	3.725557530987397	0.402259304889998	0.008213552361396304	-0.4358452138492871	0.5702479338842975
8083.038330078125	0.03649487674294442	-9.818199989853115	-2.216495891431481	0.7137586898793531	0.01462039566134097	1.087899128006725	0.01848049281314168	-0.4256619144602851	0.5578512396694215
8102.569580078125	0.3735675739191398	-9.755879817766145	-2.785585797304661	-0.003650733907402479	0.007337975153878983	0.3650733907402479	0.006160164271047228	-0.405295315682281	0.5433884297520661
8122.100830078125	0.2488058351425546	-9.759552779970575	-2.293527838085151	3.718591414975016e-05	-0.3718219555833518	-0.003718591414975016	0.004106776180698152	-0.4460285132382892	0.5619834710743802
8141.632080078125	0.07409855044119236	-9.709374802024014	-2.136618348039745	-1.079727683673386	-0.3754076111906658	-0.7228838065744428	0.004106776180698152	-0.4358452138492871	0.5640495867768596
8161.163330078125	0.06560671145491352	-9.658787163296244	-2.186890381830451	0.3587418978075275	-0.3681807453296208	0.3576942772182636	0.02669404517453799	-0.4358452138492871	0.5413223140495868
8180.694580078125	0.3620214172885577	-9.702946408410034	-2.067380576285257	-0.3660433656223325	0.3828566956373787	0.3724525042622321	0.01026694045174538	-0.4338085539714867	0.5764462809917356
8200.225830078125	0.02231000417178939	-9.759453098651122	-2.077000139059646	0.3658946219657335	1.104431126696028	-0.3575781386023321	-0.008213552361396304	-0.4439918533604887	0.5599173553719008
8219.757080078125	0.02309152464313062	-9.649200407032055	-2.103050821437687	0.7281756959382143	1.844378272962584	-0.3538014778793914	-0.002053388090349076	-0.4541751527494908	0.5557851239669421
8239.288330078125	-0.05841372637004641	-9.595553771526316	-2.386209120998454	-0.7247480775157102	0.3792154853836477	0.01103963562899358	0.002053388090349076	-0.4358452138492871	0.5681818181818182
8258.819580078125	0.2366343044112927	-9.570154908240349	-2.221143480376423	-0.369545355873136	-1.097093151542149	0.7226515293425799	0.01026694045174538	-0.4297352342158859	0.5681818181818182
8278.350830078125	0.06758929719149459	-9.718146127241416	-2.25297657304982	-0.7246737056874109	-0.3644284257830558	0.003602452799043552	0.008213552361396304	-0.4317718940936863	0.5681818181818182
8297.882080078125	0.5141119254030431	-9.683770477453017	-2.137064180101432	-0.7247108916015605	0.007393529800295976	0.007321044214018567	0.01437371663244353	-0.4378818737270875	0.5785123966942149
8317.413330078125	-0.02089522341943203	-9.500089455572283	-1.970159219352266	-0.3622067021441813	-1.483591057433259	-0.01121384355289078	-0.004106776180698152	-0.4399185336048879	0.5681818181818182
8336.944580078125	-0.1406657986610843	-9.745481941567084	-2.311140044630523	-0.72478526342986	0.7510374409669995	0.0147582270439686	0.01026694045174538	-0.4317718940936863	0.5661157024793388
8356.475830078125	-0.1077685973876239	-9.584845179821999	-2.407713420412537	-0.003762291649851729	1.122803841903934	0.3762291649851729	0.004106776180698152	-0.4297352342158859	0.5578512396694215
8376.007080078125	-0.05469854681354942	-9.617685863469715	-2.17671510621502	-0.003576362079102979	-0.7363059360128246	0.3576362079102978	-0.01642710472279261	-0.4663951120162932	0.5557851239669421
8395.538330078125	0.07844462442460456	-9.731302904769377	-1.948154147486819	-0.003613547993252729	-0.3644839804294728	0.3613547993252729	0.02258726899383984	-0.4439918533604887	0.5723140495867769
8415.069580078125	0.1494399629034077	-9.791681078661231	-1.981332096780256	0.003464804336653728	1.85177180276288	-0.3464804336653728	0.01848049281314168	-0.4378818737270875	0.5537190082644629
8434.600830078125	0.2083938926265003	-9.67928597471743	-2.279796420883342	0.3584072245801798	2.978216854920546	0.3911615999530387	0.01026694045174538	-0.4338085539714867	0.5681818181818182
8454.132080078125	0.04504743931781385	-9.698767994620574	-2.168247977260462	-0.365968993794033	-0.3607872155293249	0.3650153214322821	0.008213552361396304	-0.4419551934826884	0.5557851239669421
8473.663330078125	-0.03266771342567001	-9.717229227340967	-2.244409552477667	-0.358816269635827	1.111824656496325	-0.3502570943883135	0.008213552361396304	-0.4297352342158859	0.5475206611570248
8493.194580078125	-0.2404520043121634	-9.707746148060933	-1.984933189594553	0	0	0	0.008213552361396304	-0.4480651731160896	0.5640495867768596
8512.725830078125	0.06756011832424977	-9.488155561741827	-2.252003944141659	-0.01441700605886117	-1.829757877301243	1.441700605886116	0.01437371663244353	-0.4541751527494908	0.5537190082644629
8532.257080078125	0.2140017554637429	-9.700806099066723	-2.13339184879143	-0.3696197277014355	-0.3534492403754458	0.73008871217253	0	-0.4399185336048879	0.5681818181818182
8551.788330078125	0.09488415595394786	-9.39932078957489	-2.162805198464929	0.3731960897805385	1.08975517638827	-1.087724920082828	0.008213552361396304	-0.4338085539714867	0.5495867768595042
8571.319580078125	0.05713458791947579	-9.69152648323937	-1.904486263982526	0.3733076475229877	-0.02571069036178494	-1.098880694327753	0.01437371663244353	-0.4419551934826884	0.5557851239669421
8590.850830078125	0.1043925235855938	-9.42624641737399	-2.479750786186461	0.7281756959382143	1.844378272962584	-0.3538014778793914	0.02258726899383984	-0.4317718940936863	0.5619834710743802
8610.382080078125	0.04234247946241485	-9.999642598307153	-2.078082648747162	1.47475380507004	2.164778847822366	-2.547844275119922	0.02258726899383984	-0.45010183299389	0.5681818181818182
8629.913330078125	-0.1904812226103099	-9.708255595310666	-2.983959246323002	1.847949894850578	3.254534024210636	-3.63556919520275	0.008213552361396304	-0.4480651731160896	0.5578512396694215
8649.444580078125	-0.102728539534605	-10.13988222778286	-2.909048682179835	0.373716692578635	-4.115752201778656	-1.139785199892478	0.01848049281314168	-0.4439918533604887	0.5309917355371901
8668.975830078125	0.03567313675188735	-9.971799019116892	-2.855771225062912	0.6990070105931442	1.531260118610264	2.563067056627617	0.02874743326488707	-0.4338085539714867	0.5454545454545454
8688.507080078125	-0.1292434550617843	-9.435122050469976	-2.358551497940524	-0.3880221408950469	1.170528457727356	2.570330031533669	0.02874743326488707	-0.4399185336048879	0.5454545454545454
8708.038330078125	0.3376278842718809	-9.43083365075209	-2.254262809062693	1.083713090808136	-2.978327964213379	0.3243430930994199	0.006160164271047228	-0.4399185336048879	0.5599173553719008
8727.569580078125	0.588829541000646	-9.209611781743126	-1.627651366688196	1.101371785718753	2.934133449350854	-1.441526397962219	0.002053388090349076	-0.4276985743380855	0.5537190082644629
8747.100830078125	0.8547144768978292	-9.660308985803034	-0.8238158965943004	5.466552111955737	16.23867279578035	-3.176950326008469	0.01232032854209446	-0.4378818737270875	0.5661157024793388
8766.632080078125	0.7637797200563705	-9.913044557181774	-0.4593240018790139	12.36095627689753	29.16018878263321	-4.211569718738263	0.03285420944558522	-0.4562118126272912	0.5599173553719008
8786.163330078125	0.8814967339384138	-9.841649389359914	0.2834422020528778	19.97079249785541	25.36433716389659	-4.325626597135209	0.01642710472279261	-0.4317718940936863	0.5495867768595042
8805.694580078125	-0.9215072698753433	-9.854620683926361	1.383575662511438	26.10870755753936	27.57645174501745	-2.17510358002303	0.03285420944558522	-0.4378818737270875	0.5392561983471075
8825.225830078125	-0.696050837472921	-10.63505643744958	1.201694582430694	34.43692003605189	14.12051170162114	-1.663018097942848	0.04722792607802875	-0.4460285132382892	0.5392561983471075
8844.757080078125	0.3267015814157428	-10.98436648867558	1.109947286141904	43.86557465242944	12.89425399715948	-2.49949422845051	0.0595482546201232	-0.45010183299389	0.5082644628099173
8864.288330078125	0.51005133114781	-10.97508340292888	0.9982889617396703	52.19453736354569	28.43308851411074	-2.062432006742525	0.09034907597535935	-0.4847250509164969	0.4772727272727273
8883.819580078125	-0.4432198958866472	-11.21997443300335	1.440663196221573	58.3280951569534	37.71715822646917	0.5238176379944277	0.106776180698152	-0.4887983706720977	0.4896694214876033
8903.350830078125	-0.9171604072738974	-10.99988186501856	1.90534690912991	65.89076932442825	31.04212464006616	5.125966107900904	0.08829568788501027	-0.5173116089613035	0.4896694214876033
8922.882080078125	-0.4528221090642969	-10.84974581526412	1.42740363547656	73.12047984693227	22.4529742394155	6.792595016917533	0.1252566735112936	-0.5519348268839104	0.4586776859504132
8942.413330078125	-0.3108251231624214	-10.62383345648918	1.694170772080713	80.33894068040092	16.86041340889329	9.584192829474706	0.1601642710472279	-0.5682281059063136	0.475206611570248
8961.944580078125	-0.5960548594248926	-10.81272440454738	1.86849531416308	85.40155969451602	10.88152133641923	10.56866822955772	0.1601642710472279	-0.615071283095723	0.4566115702479339
8981.475830078125	-0.4747236090946587	-10.97682730027394	2.15745363648862	90.84180643651622	-1.823214602070831	10.02225489910318	0.1745379876796715	-0.6395112016293278	0.4545454545454546
9001.007080078125	-0.1619261522300935	-11.1423561225544	2.397538407669784	94.84369515477796	-15.65064327317199	8.384107710611012	0.2032854209445585	-0.6863543788187372	0.4297520661157025
9020.538330078125	-0.3044239105833329	-11.38509706442194	2.814130352777762	99.90244031950077	-19.39126563699206	9.755968049924123	0.1950718685831622	-0.6985743380855397	0.4545454545454546
9040.069580078125	-0.1018531735172601	-11.70626585943725	2.728439117242003	107.4631436335257	-6.359735577477433	14.55520186482428	0.2258726899383984	-0.7413441955193482	0.4545454545454546
9059.600830078125	-0.5886418499086387	-11.47699419813713	2.288061663621287	112.4956271285278	-2.98437495913667	18.55322917620365	0.2258726899383984	-0.7596741344195519	0.487603305785124
9079.132080078125	-1.126743535895133	-11.33431374327276	2.558117863171091	111.771585583381	-9.669776629836706	18.49361557494812	0.2546201232032854	-0.7902240325865579	0.518595041322314
9098.663330078125	-0.8174049577261304	-11.22762760299812	2.580165257537677	111.0623700893486	-18.61546193465237	16.95139686224174	0.2566735112936345	-0.8024439918533605	0.5351239669421488
9118.194580078125	-0.1943407192669638	-10.78283683256299	2.478023975565459	111.4320270029642	-18.63383464986028	16.21758955865424	0.2464065708418891	-0.7963340122199591	0.5578512396694215
9137.725830078125	-0.3531612936805671	-10.94418881829005	2.77204312268557	112.148692708468	-11.19011311768578	17.01478712422021	0.2546201232032854	-0.8228105906313645	0.5909090909090909
9157.257080078125	-0.6167986681818649	-10.6594315693788	2.559955606062159	112.8873743751586	-4.905885303184609	15.61038857109978	0.2628336755646817	-0.8289205702647657	0.6425619834710744
9176.788330078125	-0.888928670287475	-10.53408693672628	3.297622342915831	109.6338115039937	-8.233687969641201	14.87971916584759	0.2628336755646817	-0.810590631364562	0.6508264462809917
9196.319580078125	-1.186793644684991	-10.01372994511481	3.559788156166349	106.0114841811528	-20.46684485489033	14.79361087022351	0.2628336755646817	-0.8228105906313645	0.6818181818181819
9215.850830078125	-1.318110376557225	-10.2061890217535	3.937012551907496	102.7519585350826	-37.16556197203982	14.65921895551272	0.2813141683778234	-0.8228105906313645	0.7107438016528926
9235.382080078125	-0.9210490827977962	-10.51113920343795	4.034969426593198	102.7712534102158	-47.61326660414307	12.72973144219218	0.2751540041067762	-0.7902240325865579	0.7603305785123967
9254.913330078125	0.1632526077626828	-10.3038816568234	4.224913074577241	103.5063215289131	-41.69352277007138	11.68668768839702	0.3039014373716633	-0.8024439918533605	0.7706611570247934
9274.444580078125	0.2251764730004787	-9.997192940396511	4.49411756665071	104.5809482280273	-26.80972091597611	12.91966995089573	0.2895277207392197	-0.7881873727087576	0.8099173553719008
9293.975830078125	-0.259168276104637	-9.643797742607166	4.638942536821233	104.934440397619	-11.18221959606773	13.80233704969817	0.3039014373716633	-0.7535641547861507	0.8202479338842975
9313.507080078125	-0.7135463285493137	-9.49071331289761	4.784877618310449	102.031611424078	-7.7989099014625	14.23016194002927	0.2874743326488706	-0.7678207739307535	0.847107438016529
9333.038330078125	-0.4835151229337223	-9.393003223081903	4.783837431124073	101.6618429527199	-6.665071319504538	14.9751250178617	0.3018480492813142	-0.7331975560081466	0.9008264462809917
9352.569580078125	-0.1671105271832693	-9.017365737122592	4.90368423944231	100.567028916533	-2.177441607496115	15.76087646264292	0.2956878850102669	-0.7189409368635438	0.8966942148760331
9372.100830078125	-0.448171628519898	-8.478242159888099	5.272387617329934	100.8996950741906	2.711250851418342	18.72614475485257	0.2915811088295688	-0.6843177189409368	0.9566115702479339
9391.632080078125	-0.7934246605590829	-8.206540640247436	5.447488685302762	97.645946273455	1.242557962878509	18.01406830667526	0.2751540041067762	-0.6761710794297352	0.9648760330578513
9411.163330078125	-0.9235915873382644	-7.551961279906039	6.119719577942143	96.20445811860723	-5.078304172745638	17.23534755956822	0.2669404517453799	-0.6395112016293278	0.9979338842975207
9430.694580078125	-0.4983687435974073	-7.414472560429829	5.945624786580244	92.59193023414993	-5.806994360372498	16.16929542558762	0.2874743326488706	-0.6211812627291242	1.03099173553719
9450.225830078125	-0.3613786935911378	-7.146845777594468	6.045956453037928	92.24008075910157	-1.363448053933765	15.12235887245359	0.271047227926078	-0.5824847250509164	1.041322314049587
9469.757080078125	-0.2741741000488155	-6.861982959015783	6.472470001627181	89.71428453881926	1.243169063989096	14.07879249488673	0.2854209445585216	-0.5661914460285132	1.06404958677686
9489.288330078125	-0.5375362468563715	-6.620470053150227	6.584541561879045	87.18468884097295	5.344411979399244	13.41517387372003	0.2628336755646817	-0.5417515274949083	1.097107438016529
9508.819580078125	-1.045955927292572	-6.488192416491265	6.865197576419058	83.57636947913531	-0.9689455171317727	11.92826947777456	0.271047227926078	-0.5091649694501018	1.111570247933884
9528.350830078125	-0.9783689959551781	-6.169672642025509	6.945633198505936	79.95374466898123	-10.22752675771409	11.87190991347027	0.2587268993839836	-0.4847250509164969	1.12603305785124
9547.882080078125	-0.3523166837665344	-6.03391572775118	6.743889458884478	77.77990948148977	-13.17992181298001	11.86412431479253	0.2628336755646817	-0.4704684317718941	1.150826446280992
9567.413330078125	-0.5735232535856492	-5.562105851992693	6.784108452854968	74.15561130519895	-5.706515052311499	11.97510136416212	0.2566735112936345	-0.4012219959266802	1.130165289256198
9586.944580078125	-0.6774244681362827	-5.305700578030732	7.247482271209422	70.9016765748926	-5.316098162934573	11.28161787305968	0.2731006160164271	-0.4175152749490835	1.167355371900826
9606.475830078125	-0.6454436410179166	-5.165360110595794	7.18145470059722	69.45225479168948	-5.301311103333981	11.29625996148772	0.271047227926078	-0.3665987780040733	1.167355371900826
9626.007080078125	-0.4567998984259973	-4.757698633824405	7.226663280866575	68.37282459532928	-8.651294359191462	10.54362742359348	0.2505133470225873	-0.3340122199592668	1.196280991735537
9645.538330078125	-0.7669736230926288	-4.587988138133284	7.565787436420957	64.39060261134226	-8.989789876027064	10.21510118461536	0.2566735112936345	-0.3380855397148676	1.179752066115703
9665.069580078125	-0.4286430801527711	-4.241927929249396	7.621436005092369	61.8686430545381	-8.24962051117484	8.787868459233382	0.2792607802874744	-0.3014256619144602	1.200413223140496
9684.600830078125	-0.4576279473613235	-3.924633036313494	7.920931578710783	59.70147717432089	-4.895718271831544	8.113152133129717	0.2874743326488706	-0.3014256619144602	1.206611570247934
9704.132080078125	-1.057081750511222	-3.838456432665295	7.902725017040721	57.16472875231637	-2.267087228447045	8.164805927783608	0.2669404517453799	-0.2281059063136456	1.196280991735537
9723.663330078125	-0.4291320233336304	-3.775419354211207	7.971067444454346	55.7189948889348	-2.631460099583685	7.810656034056421	0.2546201232032854	-0.230142566191446	1.210743801652893
9743.194580078125	-0.5225580245433705	-3.41896042793569	8.418600818112347	53.54840139029508	-1.50115161858662	7.478701550203154	0.2648870636550308	-0.2036659877800407	1.233471074380165
9762.725830078125	-0.5854865891560289	-3.26597399716045	8.182886305200961	50.66080751292424	-4.468167069513887	6.383016823518685	0.2546201232032854	-0.164969450101833	1.227272727272727
9782.257080078125	-0.4476393113471883	-2.728070044002258	8.254643711572943	48.49386474819191	-3.345196563670702	5.68598894892517	0.271047227926078	-0.1690427698574338	1.229338842975207
9801.788330078125	-0.548693614796367	-3.037410935450826	8.2897871598789	45.60966130332943	-3.716796300668386	4.251260971405277	0.2566735112936345	-0.1446028513238289	1.241735537190083
9821.319580078125	-0.7055000587520436	-2.858111685663161	8.516668625068116	43.07674954480307	-2.954613010354525	3.919248418244044	0.2566735112936345	-0.1303462321792261	1.256198347107438
9840.850830078125	-0.5205060404198287	-2.331630286402411	8.683534680660957	41.63477797307135	-4.441789723395099	3.188869359531686	0.271047227926078	-0.1140529531568228	1.258264462809917
9860.382080078125	-0.7793178611732587	-2.38864610844602	8.643928705775286	39.1090933105315	-2.950638472222292	2.134147207719908	0.2731006160164271	-0.08961303462321792	1.243801652892562
9879.913330078125	-0.2901144363628621	-2.263803667757326	8.670481212095403	37.31206776081381	-4.448794370670475	0.6772818896340622	0.2731006160164271	-0.06517311608961303	1.243801652892562
9899.444580078125	-0.6660872952846163	-2.342034892142026	8.869576509487207	36.22850341366227	-2.957754228790503	0.3380644308747422	0.2772073921971253	-0.0570264765784114	1.256198347107438
9918.975830078125	-0.5125544047865961	-2.232392590880999	8.751813492886534	36.92039488601136	-3.27092793778924	3.612685311907979	0.2628336755646817	-0.04684317718940936	1.243801652892562
9938.507080078125	-0.5907592893289728	-1.994345503549701	9.025309644299092	34.73184520514781	-5.078505225689595	5.076349050436152	0.2648870636550308	-0.03462321792260692	1.258264462809917
9958.038330078125	-0.6851134939643119	-2.141520029715128	8.837116465477061	33.65602855678088	-8.064004501117603	3.962361713216636	0.2525667351129364	-0.01221995926680244	1.260330578512397
9977.569580078125	-0.318872181577725	-1.466435338710131	8.962406052590833	31.12680471807607	-7.680981141540973	3.26155717790018	0.2689938398357289	0.01221995926680244	1.272727272727273
9997.100830078125	-0.6656188561726317	-1.601883430162484	8.853961872421054	29.67388094462215	-9.14614392911991	3.626398291408565	0.2648870636550308	0.02647657841140529	1.260330578512397
10016.63208007812	-0.4108171581202816	-1.396164214458891	9.027238604009387	29.31186017204872	-12.48884476446993	3.596591490780799	0.2772073921971253	0.01832993890020367	1.25
10036.16333007812	-0.2276929531458368	-1.446954054850487	8.923098438194559	29.31525060455707	-9.893429050540345	3.257548239945376	0.2751540041067762	0.03462321792260692	1.276859504132231
10055.69458007812	-0.2436995333747095	-1.15546284912449	8.789984445823649	28.22062249794088	-7.264909116448679	4.024706727651725	0.2956878850102669	0.04276985743380855	1.266528925619835
10075.22583007812	-0.1879253115632696	-1.097429184072124	8.930843718775654	27.11884166716647	-6.109001054382665	5.50713763117867	0.2648870636550308	0.07128309572301425	1.243801652892562
10094.75708007812	-0.4869534975604102	-0.9941149642111993	8.898449918680337	24.59691929627648	-5.740653645113793	4.076186314381718	0.2956878850102669	0.06313645621181262	1.274793388429752
10114.28833007812	0.01584885662214399	-0.9582088696921736	8.805038112595202	22.79985656064463	-6.866987587978623	2.623039587710848	0.2895277207392197	0.0875763747454175	1.262396694214876
10133.81958007812	-0.01813427168364426	-0.9558634145110451	8.604475722788143	21.00219885038639	-2.044170241509826	1.229390323679578	0.2997946611909651	0.08961303462321792	1.272727272727273
10153.35083007812	0.07922456765987859	-0.7077173897899727	8.692514411337383	18.09545884153895	3.949231117332745	2.048318744655748	0.3039014373716633	0.1059063136456212	1.254132231404959
10172.88208007812	-0.5951313877074953	-0.9024258153587568	8.837712923583174	14.47592697658005	0.2606412353468271	1.682664660835843	0.2915811088295688	0.1120162932790224	1.272727272727273
10192.41333007812	-0.782465235745532	-0.499663759557722	8.748841191517728	12.668655757509	-8.280117893723403	1.250366278086216	0.3080082135523614	0.1242362525458248	1.254132231404959
10211.94458007812	-0.4559016624856768	-0.2340748708703688	8.863388749522557	9.763254441570941	-15.6723069358815	1.935425408123286	0.3039014373716633	0.1303462321792261	1.256198347107438
10231.47583007812	0.05988292176672524	-0.5073045219620922	8.670569274442492	7.581894670779755	-16.37909430733955	2.680098139415887	0.3018480492813142	0.1242362525458248	1.254132231404959
10251.00708007812	0.1361115295167901	-0.3393239387895712	8.796282349440331	7.211828712108522	-12.27068008071478	3.454809948568117	0.2915811088295688	0.1018329938900204	1.247933884297521
10270.53833007812	0.01339310006537645	-0.2323362309788616	9.220229997820786	5.772987271486111	-8.559687390742308	2.411417778925161	0.3203285420944559	0.1384928716904277	1.241735537190083
10290.06958007812	-0.03504539679710669	-0.2013313449643978	9.168179893236891	3.254752820417662	-8.570499912210666	0.6116744799729869	0.3121149897330596	0.1323828920570265	1.239669421487603
10309.60083007812	-0.03175133927057557	-0.3635995996974861	9.391711309019188	2.537492140287505	-10.06507015505153	-0.1260256229533904	0.3305954825462012	0.1446028513238289	1.252066115702479
10329.13208007812	0.05154170882487245	-0.3466681808132913	9.615276372504253	2.899661656517537	-8.209657142034924	-0.1110931879855246	0.3326488706365503	0.1344195519348269	1.247933884297521
10348.66333007812	0.2837195327280428	-0.6282640177512663	9.542682242398575	3.257808579698668	-2.628686598030916	0.3060985518723392	0.3367556468172485	0.1283095723014256	1.229338842975207
10368.19458007812	0.01335288054566062	-0.2756825686235698	9.554903981811313	3.261087454464573	1.082194982648724	-0.02178892471815851	0.324435318275154	0.1344195519348269	1.252066115702479
10387.72583007812	-0.1613898919672156	-0.3421827317360664	9.379663065573851	1.449458969117271	-0.3866090151839437	-0.01836067984301215	0.3203285420944559	0.1364562118126273	1.252066115702479
10407.25708007812	-0.2098583563149772	-0.2911875352085093	9.328611877165907	0.007487397385553709	-1.873785728224517	-0.7487397385553708	0.3408624229979466	0.1384928716904277	1.241735537190083
10426.78833007812	-0.1780888788296277	-0.430915404154913	9.269629294320925	0.00774769878460196	-4.47653941730798	-0.774769878460196	0.3429158110882957	0.1344195519348269	1.245867768595041
10446.31958007812	0.07732872990699832	-0.2149970439967372	9.422375669766724	-0.7095873531738541	-5.227465748982145	-1.505032798556623	0.3388090349075976	0.1629327902240326	1.225206611570248
10465.85083007812	0.1954850040337813	-0.5067931820290774	9.483833198873958	0.7433364202800704	-3.762302961403209	-1.869873912065008	0.3326488706365503	0.1446028513238289	1.254132231404959
10485.38208007812	-0.0582891247207306	-0.4155134836597029	9.609637490691021	0.3769955673445399	-0.4048706210990157	-1.467672676482976	0.3470225872689939	0.1425661914460285	1.25
10504.91333007812	0.01993705250855458	-0.3168870196889007	9.668764916381514	0.7355887214954685	0.7142364559047707	-1.095104033604812	0.3552361396303901	0.1364562118126273	1.258264462809917
10524.44458007812	0.08822821974999238	-0.4681395422808359	9.72572600833359	-0.3441761480920674	0.7106508002974568	-1.81426924876428	0.3552361396303901	0.1527494908350305	1.254132231404959
10543.97583007812	0.04183776392088277	-0.3998057896655813	9.938741202637244	0.3806091153377927	-0.0403866406695429	-1.829027475808249	0.3388090349075976	0.1405295315682281	1.243801652892562
10563.50708007812	0.0595824582959069	-0.5174016718176568	9.680584723469771	0.7541398783456789	-2.297029064531439	-2.950219718625851	0.3326488706365503	0.1486761710794297	1.243801652892562
10583.03833007812	-0.1184291359664238	-0.3682920872958104	9.94763786554746	1.467712638654283	-0.4232988909533387	-1.843727633544251	0.3367556468172485	0.1466395112016293	1.245867768595041
10602.56958007812	-0.1103773458429183	-0.265688675155877	9.679244861430611	0.7469127823591735	-3.025997025390384	-2.227510119975306	0.3490759753593429	0.1629327902240326	1.233471074380165
10622.10083007812	-0.09871683959745776	-0.5352517781365114	9.623894653248593	1.456760436932076	-0.4012849654917017	-0.7485074613235079	0.3203285420944559	0.1507128309572301	1.247933884297521
10641.63208007812	0.08846795963222014	-0.6280620263855823	9.717734678925996	1.456648879189627	0.7141809012583538	-0.7373516870785828	0.3531827515400411	0.1588594704684318	1.233471074380165
10661.16333007812	-0.1462791818245624	-0.5272969354566085	9.875972727485415	1.822692244811959	0.3313242056209749	-1.109804191340815	0.3572895277207392	0.1425661914460285	1.252066115702479
10680.69458007812	-0.008047847033337181	-0.385935470540779	9.601594901111241	2.181508514447786	-0.7805004508753495	-0.7595470969525014	0.3552361396303901	0.1344195519348269	1.247933884297521
10700.22583007812	0.01317228701595617	-0.3657409605315075	9.560923766134795	2.9097585822143	0.3202339109205309	-1.120785757661843	0.3531827515400411	0.1405295315682281	1.256198347107438
10719.75708007812	-0.04808519598341062	-0.5555475467013028	9.602839866113687	3.271965284358481	1.80382496835379	-1.109571914108952	0.3347022587268994	0.1588594704684318	1.237603305785124
10739.28833007812	-0.2127864950738974	-0.02213430007389352	9.426216502463248	2.894895345185642	2.95233950061951	0.3655379452039737	0.3429158110882957	0.1568228105906314	1.254132231404959
10758.81958007812	-0.3472174795609921	-0.1722669850580541	9.573915985366403	1.079913613244135	-1.483702166726093	0.7042908494995678	0.3264887063655031	0.1547861507128309	1.245867768595041
10778.35083007812	-0.00352591122842235	-0.2444733779638566	9.450863707614081	1.442343430873215	-2.231042842792945	0.6931931445626085	0.351129363449692	0.1608961303462322	1.229338842975207
10797.88208007812	-0.2411420450916019	-0.1246359279129513	9.704734836386731	0.7286962987363107	-3.361129105204341	-0.4058617576890415	0.3408624229979466	0.1608961303462322	1.229338842975207
10817.41333007812	0.004770350485512701	-0.3751242533430176	9.507654983816243	0.7287334846504605	-3.732951060787693	-0.4095803491040166	0.3326488706365503	0.1568228105906314	1.256198347107438
10836.94458007812	0.106364068669704	-0.4256089511301291	9.454531044343202	1.8119259726605	-1.505771646834147	-0.03317697619494648	0.3470225872689939	0.1486761710794297	1.233471074380165
10856.47583007812	-0.051148188426084	-0.1965379142577672	9.7049396142028	1.438543953309213	-0.7364170453056585	1.073140900962756	0.3490759753593429	0.1588594704684318	1.239669421487603
10876.00708007812	0.4271289335281747	-0.2918949781592236	9.762368882394181	1.438767068794112	-2.96734877880577	1.050829352472906	0.3326488706365503	0.1568228105906314	1.252066115702479
10895.53833007812	-0.1025463687688331	-0.2964899925685894	9.751545625627772	1.431465600979307	-2.952672828498012	1.780976133953402	0.3470225872689939	0.1588594704684318	1.25
10915.06958007812	0.01485519789975246	-0.2251968193457467	9.504826736674918	1.431428415065157	-2.58085087291466	1.784694725368377	0.3305954825462012	0.1608961303462322	1.243801652892562
10934.60083007812	-0.1748389839129807	-0.3531979381318638	9.494632797099356	2.137960008958005	-3.295198438112264	3.595303452025648	0.3470225872689939	0.1568228105906314	1.245867768595041
10954.13208007812	0.1049074911615634	-0.2960799111910946	9.503083627947886	2.141759486522006	-4.78982423559955	3.2153556956255	0.3531827515400411	0.1629327902240326	1.225206611570248
10973.66333007812	0.1370988792949124	-0.08567136236131168	9.430037356836253	2.515029948130844	-4.443712970377984	2.120193592712722	0.351129363449692	0.185336048879837	1.243801652892562
10993.19458007812	0.2184535042636634	-0.2493667002880822	9.718216524544554	1.098464770094345	-4.494967687162303	-1.150824835521472	0.3449691991786448	0.1568228105906314	1.235537190082645
11012.72583007812	0.2427981429622545	-0.2081619337755378	9.573395234591521	0.7394625708877695	-1.524033252749219	-1.48248897283491	0.3572895277207392	0.1568228105906314	1.216942148760331
11032.25708007812	0.06628255710974655	-0.3552353065345153	9.457248096341784	-0.3549796061576758	-0.7546230965743135	-0.7339234422034364	0.3593429158110883	0.1731160896130346	1.245867768595041
11051.78833007812	0.113143029286908	-0.5967504205305665	9.561899023769735	0.3551655357284246	-1.104486681342445	0.7153304851285613	0.3572895277207392	0.1771894093686354	1.237603305785124
11071.31958007812	0.1984446875140473	-0.3758362177037914	9.385177082865091	-0.3730845320380892	-2.205221043138326	1.076569145837903	0.3490759753593429	0.1771894093686354	1.221074380165289
11090.85083007812	-0.1499478329170744	-0.1151497993098541	9.664927763902481	0.3441389621779176	-0.3388288447141048	1.817987840179255	0.3552361396303901	0.1629327902240326	1.229338842975207
11110.38208007812	-0.06108083255983042	0.1835838641389881	9.702694418661016	0.7175581674433545	-1.480005401825945	0.7079513716065771	0.3552361396303901	0.1792260692464358	1.221074380165289
11129.91333007812	0.3788260789674783	-0.1408462344671821	9.705797367750726	1.08717789514479	-1.126556161450499	-0.0221373405659529	0.3593429158110883	0.1690427698574338	1.243801652892562
11149.44458007812	0.04687072421159892	-0.1781784658382497	9.770975859613372	0.7210601576941581	-5.555464641699391e-05	0.3577523465262293	0.3572895277207392	0.1670061099796334	1.243801652892562
11168.97583007812	-0.007446920091700411	-0.3657411708296499	9.581564003056682	0.3515519877351718	-1.468970661771918	1.076685284453834	0.3470225872689939	0.1771894093686354	1.25
11188.50708007812	0.1834790830895847	-0.2173417631343676	9.550697230347177	1.076151321594283	-0.3608983248221588	1.080520014484741	0.3531827515400411	0.1690427698574338	1.245867768595041
11208.03833007812	-0.05596033566737981	-0.2847605085324528	9.53201118891266	-0.01110094537880644	1.509301747795044	1.110094537880644	0.3552361396303901	0.1629327902240326	1.241735537190083
11227.56958007812	0.04990532640506111	-0.09719727779569694	9.669822453164631	-0.3661549233647818	1.498322562387434	0.3836082785071572	0.3572895277207392	0.175152749490835	1.241735537190083
11247.10083007812	-0.145411701987554	-0.1936831169759758	9.513723399585134	-1.445845421124018	0.7510929956134165	-0.3429941194822607	0.3552361396303901	0.1731160896130346	1.241735537190083
11266.63208007812	-0.2569246577989198	-0.1930723060216507	9.564155259963991	-0.735514349667169	-1.457880367071474	1.087666850774862	0.3429158110882957	0.164969450101833	1.25
11286.16333007812	0.2514555917355986	-0.1586960253388232	9.618146942146717	0.7066059657211472	-1.457991476364308	1.803171543827321	0.3613963039014374	0.1731160896130346	1.258264462809917
11305.69458007812	0.09880831928936061	-0.4380519767631068	9.706389357021315	-0.0183280413653119	0.7803337869360985	1.832804136531189	0.3490759753593429	0.1690427698574338	1.235537190082645
11325.22583007812	-0.06862790714180374	-0.1855230233091832	9.620930238060126	-0.01106375946465669	1.137479792211692	1.106375946465669	0.3696098562628337	0.164969450101833	1.241735537190083
11344.75708007812	0.07596599794486146	-0.4287709939978281	9.801133401837953	0.3512545004219738	1.505604982894896	1.106434015773634	0.3408624229979466	0.1690427698574338	1.233471074380165
11364.28833007812	0.1358520741837212	-0.09607449601393016	9.471597527209294	-0.01113813129295619	1.881123703378396	1.113813129295619	0.3593429158110883	0.1629327902240326	1.247933884297521
11383.81958007812	0.3056013173075635	-0.4178555740705545	9.479956089747887	-0.01482605111450842	2.260283634115627	1.482605111450842	0.3531827515400411	0.1670061099796334	1.241735537190083
11403.35083007812	-0.03711394189935493	-0.3653335078807914	9.570464729978498	-0.01825366953701239	0.03668987576939491	1.825366953701239	0.3572895277207392	0.164969450101833	1.239669421487603
11422.88208007812	0.1227483969366922	-0.1269780183238029	9.575053435443596	-0.7354027919247198	-2.57334623382153	1.076511076529937	0.3572895277207392	0.1670061099796334	1.241735537190083
11442.41333007812	0.09273596043030162	-0.1066820394608692	9.575467985656614	-0.3730473461239395	-2.577042998721678	1.072850554422928	0.3593429158110883	0.1547861507128309	1.239669421487603
11461.94458007812	0.2830089878797296	-0.5051604272522208	9.233033737342351	-0.7390535258321222	-2.56600825866765	1.441584467270185	0.3593429158110883	0.1670061099796334	1.229338842975207
11481.47583007812	0.3289735899706714	-0.6402985392428162	9.700880334310956	-0.7355515355813188	-1.086058411488122	1.091385442189837	0.3613963039014374	0.1670061099796334	1.235537190082645
11501.00708007812	-0.0609925073400623	-0.2963875773732869	9.699750244668744	-0.3841482915027459	-1.067741250926634	2.182945092303572	0.3470225872689939	0.1588594704684318	1.235537190082645
11520.53833007812	-0.1402241725622436	-0.1453391491284588	9.674139085408122	1.416899851263846	-3.295142883465847	3.237551105499418	0.3552361396303901	0.1690427698574338	1.241735537190083
11540.06958007812	0.1717562760194663	-0.5377988040870393	9.608124132684457	1.047354495390711	-4.392236035007997	3.960202634841998	0.3593429158110883	0.1710794297352342	1.243801652892562
11559.60083007812	0.2203170086771643	-0.01876416719438357	9.656099710761191	1.039829912091007	-2.146628351200128	4.712660964812344	0.3613963039014374	0.1527494908350305	1.233471074380165
11579.13208007812	0.1681980314516645	-0.05894930316396185	9.72673228494452	1.047019822163363	-1.04583843475783	3.993669957576774	0.3408624229979466	0.1568228105906314	1.233471074380165
11598.66333007812	0.2216229601408788	-0.2583419095544492	9.612567995304042	1.05793483797142	-0.6960304046361157	2.902168376771005	0.3798767967145791	0.1588594704684318	1.231404958677686
11618.19458007812	-0.001613512496835628	-0.3271883690406435	9.720450416561189	0.0001859295707487508	-1.859109777916759	-0.01859295707487508	0.3675564681724846	0.185336048879837	1.216942148760331
11637.72583007812	0.2307456935540729	-0.3087255590841831	9.64181021486424	-0.7208742281234094	-1.859054223270342	-0.3763453036011044	0.3593429158110883	0.1568228105906314	1.210743801652893
11657.25708007812	0.1061740117235958	-0.3690037362093707	9.794199609213477	-0.007189910072355707	-1.100789916442297	0.7189910072355706	0.37782340862423	0.1588594704684318	1.241735537190083
11676.78833007812	0.3302069885752907	-0.1998997403606561	9.659767047490314	1.079913613244135	-1.483702166726093	0.7042908494995678	0.3839835728952772	0.1670061099796334	1.216942148760331
11696.31958007812	0.001075674997890446	-0.2263188650840154	9.63081083340365	-1.087066337402341	0.01109029470044396	0.01098156632102785	0.3716632443531828	0.1731160896130346	1.233471074380165
11715.85083007812	0.1926065482109806	-0.3410572160784496	9.913115059633981	-0.003501990250803478	-1.479949847179528	0.3501990250803478	0.3470225872689939	0.1588594704684318	1.245867768595041
11735.38208007812	0.4049033114859853	-0.06241459595286484	9.836556283800498	-1.079653311845087	-1.11905152235737	-0.7303209894043929	0.37782340862423	0.1792260692464358	1.231404958677686
11754.91333007812	0.3410426003575595	-0.1297295592177225	9.631913321414686	0.003650733907402479	-0.007337975153878983	-0.3650733907402479	0.3716632443531828	0.164969450101833	1.233471074380165
11774.44458007812	0.07444475375796215	-0.185929529618259	9.51850820806793	0.3548308625010768	2.241910918907721	0.7487978078633365	0.3675564681724846	0.1588594704684318	1.225206611570248
11793.97583007812	0.0003249106298613796	-0.1465616122296782	9.655836312337955	-0.003650733907402479	0.007337975153878983	0.3650733907402479	0.3675564681724846	0.1547861507128309	1.243801652892562
11813.50708007812	0.2881578750213913	-0.08016228707641683	9.72807083262029	1.068812667865328	0.02559958106895095	1.814385387380211	0.3696098562628337	0.1690427698574338	1.247933884297521
11833.03833007812	0.2584301296251463	-0.2497742580878694	9.718995679161793	0.3477153242570206	0.3974770912987198	1.460351632268957	0.3593429158110883	0.1486761710794297	1.223140495867769
11852.56958007812	-0.009985481542000536	-0.3565619723652468	9.666182718066686	-0.003725105735701979	0.7509818863205826	0.3725105735701979	0.3634496919917864	0.164969450101833	1.229338842975207
11872.10083007812	0.268320188385076	0.03009019424450784	9.722660387164137	0.3514404299927226	-0.3535047950218628	1.087841058698759	0.3696098562628337	0.1608961303462322	1.235537190082645
11891.63208007812	0.1389805219231871	-0.3583962979115029	9.700649269227098	-0.3768840096020907	-0.7105952456510396	1.456516902238051	0.3696098562628337	0.1629327902240326	1.225206611570248
11911.16333007812	0.170735804283931	-0.2781287566148624	9.642139857202304	0.3477525101711704	0.02565513571536794	1.456633040853982	0.37782340862423	0.1568228105906314	1.231404958677686
11930.69458007812	0.2548348200097633	-0.3076034081968433	9.505505999674563	-0.01087782989390794	-0.7216299857050666	1.087782989390794	0.3634496919917864	0.1731160896130346	1.25
11950.22583007812	0.44911560430617	-0.1514526212743384	9.69614652312767	0.3550167920718256	0.3828011409909618	0.7302048507884614	0.3593429158110883	0.1608961303462322	1.243801652892562
11969.75708007812	-0.02959762342069374	-0.1862365649060244	9.653254114023126	-0.007375839643104458	0.7583198614744615	0.7375839643104457	0.3798767967145791	0.1547861507128309	1.247933884297521
11989.28833007812	0.2457775418933616	-0.1605319281211465	9.807415270221282	-0.72478526342986	0.7510374409669995	0.0147582270439686	0.3798767967145791	0.1771894093686354	1.237603305785124
12008.81958007812	0.2339451169165667	-0.3376910788636435	9.53516276944778	0.007264281900655208	0.3571460052755938	-0.7264281900655207	0.37782340862423	0.1670061099796334	1.223140495867769
12028.35083007812	0.1418053517197	-0.137482936277297	9.606488276010003	-0.7210601576941581	5.555464641699391e-05	-0.3577523465262293	0.3655030800821356	0.1710794297352342	1.21900826446281
12047.88208007812	0.05109140792766174	-0.2568137781033894	9.630286402411278	-0.003650733907402479	0.007337975153878983	0.3650733907402479	0.3613963039014374	0.1629327902240326	1.237603305785124
12067.41333007812	0.1664252181120327	-0.1395225128104428	9.785826062932244	-0.01098938763635719	0.3938358810449887	1.098938763635719	0.3798767967145791	0.1914460285132383	1.229338842975207
12086.94458007812	0.2391279146336751	-0.2160153076017784	9.362402845544164	-0.003576362079102979	-0.7363059360128246	0.3576362079102978	0.37782340862423	0.1568228105906314	1.21900826446281
12106.47583007812	0.3177436691715805	-0.377262880301189	9.408544360947319	0.007450211471403958	-1.501963772641165	-0.7450211471403958	0.3757700205338809	0.1568228105906314	1.243801652892562
12126.00708007812	0.3113148549613144	-0.299341530229175	9.622838167956187	0.3695081699589862	1.468915107125501	-0.7189329379276049	0.3613963039014374	0.1832993890020367	1.227272727272727
12145.53833007812	0.03600041323584966	-0.155026533053742	9.466652892138345	0.003539176164953228	1.108127891596177	-0.3539176164953228	0.3655030800821356	0.1486761710794297	1.223140495867769
12165.06958007812	0.2020549808720697	-0.3280022228513642	9.598167304264347	-0.3551283498142748	0.7326647257590937	-0.7190490765435364	0.351129363449692	0.1690427698574338	1.229338842975207
12184.60083007812	0.2124994381096511	-0.4179585150112129	9.583352063011631	0.3550539779859753	0.01097918540760998	0.7264862593734864	0.3675564681724846	0.1710794297352342	1.245867768595041
12204.13208007812	0.125320868962439	-0.4394795857021448	9.822637701252036	0.3660061797081828	-0.01103474005402697	-0.3687339128472572	0.3675564681724846	0.1710794297352342	1.223140495867769
12223.66333007812	0.2354182554034137	-0.05721476408622961	9.486058153219545	0.7210601576941581	-5.555464641699391e-05	0.3577523465262293	0.3470225872689939	0.1629327902240326	1.231404958677686
12243.19458007812	0.1429780267357286	0.1328962286445523	9.567399108809047	0.3695825417872857	0.7252711959587976	-0.726370120757555	0.3490759753593429	0.1568228105906314	1.243801652892562
12262.72583007812	0.218919577521547	-0.1392160032680331	9.702680749281766	-0.3514032440785728	-0.01831716056148896	-1.091559650113734	0.3655030800821356	0.1588594704684318	1.247933884297521
12282.25708007812	0.07592183533497741	-0.1887852732416907	9.802605488834088	-0.3585931541509285	-1.119107077003786	-0.3725686428781636	0.3655030800821356	0.1731160896130346	1.237603305785124
12301.78833007812	0.1492152067638192	-0.3084204164796985	9.692826441206028	0.3697312854438847	-0.7620166263746095	-0.741244486417455	0.3572895277207392	0.164969450101833	1.233471074380165
12321.31958007812	0.2200315289489852	-0.03885647230649483	9.665615701700496	0.01460293562960992	-0.02935190061551593	-1.460293562960991	0.3757700205338809	0.1710794297352342	1.223140495867769
12340.85083007812	0.2983018687881544	-0.1802157290918301	9.723271040394856	-0.6992301260780427	0.6996716148898466	-2.540755508137766	0.3696098562628337	0.164969450101833	1.235537190082645
12360.38208007812	0.174251463477916	-0.0969920268088072	9.524951217402801	0.01817929770871289	0.7069540353973087	-1.817929770871289	0.3613963039014374	0.1588594704684318	1.229338842975207
12379.91333007812	-0.0814910558885714	-0.1663487747373048	9.716368529619047	0	0	0	0.3860369609856263	0.1771894093686354	1.241735537190083
12399.44458007812	0.04647956966691145	-0.338304939141032	9.784014344436287	-0.3585559682367788	-1.490929032587138	-0.3762872342931387	0.3593429158110883	0.1629327902240326	1.229338842975207
12418.97583007812	0.1118978014117841	-0.1871530442101899	9.603406619607199	0.003650733907402479	-0.007337975153878983	-0.3650733907402479	0.3655030800821356	0.1731160896130346	1.21900826446281
12438.50708007812	0.01804515784584258	-0.1074987322965109	9.731828071805248	0.36239263171493	-0.3755187204834998	-0.007379113521984299	0.3634496919917864	0.1710794297352342	1.223140495867769
12458.03833007812	-0.0247452566596821	-0.05466763298663057	9.491508555322737	-0.3622067021441813	-1.483591057433259	-0.01121384355289078	0.351129363449692	0.1446028513238289	1.252066115702479
12477.56958007812	0.4033205550924617	-0.1995930205201041	9.55598149691795	-0.7244134042883625	-2.967182114866518	-0.02242768710578156	0.3531827515400411	0.1731160896130346	1.237603305785124
12497.10083007812	0.1315249270331165	-0.367473606925959	9.615835765562785	-1.449235853632372	-1.844322718316167	-0.003950868646837944	0.3696098562628337	0.175152749490835	1.229338842975207
12516.63208007812	0.2030778184617059	0.04232849463595155	9.564072717943137	-0.7245621479449615	-1.479894292533111	-0.007553321445881495	0.3593429158110883	0.175152749490835	1.231404958677686
12536.16333007812	0.1833434407877979	-0.3373856208119454	9.555218640406737	-0.7245993338591113	-1.108072336949759	-0.003834730030906479	0.3839835728952772	0.164969450101833	1.241735537190083
12555.69458007812	0.1039911170064691	-0.3163762055012417	9.533629433117698	-1.087066337402341	0.01109029470044396	0.01098156632102785	0.37782340862423	0.175152749490835	1.25
12575.22583007812	0.1740606179137742	-0.2503870668745464	9.864646069540864	-1.08714070923064	0.7547342058671476	0.01841874915097788	0.3613963039014374	0.1710794297352342	1.237603305785124
12594.75708007812	0.05217260325178767	-0.3464641916152554	9.594246558273746	-0.3735307630078862	2.256642423861896	1.121192242817603	0.3655030800821356	0.1507128309572301	1.237603305785124
12614.28833007812	0.1250211941096542	-0.2395764805712118	9.832626863011527	-0.373567948922036	2.628464379445247	1.124910834232578	0.351129363449692	0.1588594704684318	1.21900826446281
12633.81958007812	-0.1218288683094631	-0.3460580007533931	9.727628943648771	-0.3769211955162404	-0.3387732900676879	1.460235493653026	0.3757700205338809	0.1731160896130346	1.225206611570248
12653.35083007812	0.2536037872592449	-0.1180014421195109	9.546540424691841	-0.7354027919247198	-2.57334623382153	1.076511076529937	0.3572895277207392	0.1588594704684318	1.214876033057851
12672.88208007812	0.5158248037721179	-0.2298833134470153	9.472506540929407	0.3441761480920674	-0.7106508002974568	1.81426924876428	0.3696098562628337	0.1507128309572301	1.229338842975207
12692.41333007812	0.4026896606655465	-0.19979700971814	9.577011311148455	0.7063084784079492	1.516584168302506	1.832920275147121	0.3655030800821356	0.1425661914460285	1.227272727272727
12711.94458007812	0.07829478699821223	-0.2980180188705781	9.723507100059592	-0.01113813129295619	1.881123703378396	1.113813129295619	0.3696098562628337	0.1710794297352342	1.241735537190083
12731.47583007812	0.2295596120314723	-0.1491090587764907	9.681346265617593	-0.0001115577424492505	1.115465866750055	0.01115577424492505	0.3572895277207392	0.1690427698574338	1.229338842975207
12751.00708007812	0.1271544058906613	-0.1888867420953529	9.761519803644624	-0.007450211471403958	1.501963772641165	0.7450211471403958	0.3716632443531828	0.1568228105906314	1.239669421487603
12770.53833007812	0.0206270932879931	-0.5666639065035489	9.645763557066898	-0.01098938763635719	0.3938358810449887	1.098938763635719	0.3757700205338809	0.1608961303462322	1.237603305785124
12790.06958007812	0.1706301294674226	-0.4181629248055334	9.645662351085914	0.3477525101711704	0.02565513571536794	1.456633040853982	0.3552361396303901	0.1588594704684318	1.206611570247934
12809.60083007812	0.1888464174265659	-0.2889396583654104	9.705119419114471	0.3441017762637679	0.03299311086924692	1.82170643159423	0.3675564681724846	0.1608961303462322	1.233471074380165
12829.13208007812	0.4081177185911183	-0.1013752709888718	9.729409380296062	0.3513288722502733	0.7619610717281925	1.098996832943684	0.3839835728952772	0.1832993890020367	1.245867768595041
12848.66333007812	0.282354434911805	-0.1387053993785164	9.588185502939837	0.3549796061576758	0.7546230965743135	0.7339234422034364	0.3798767967145791	0.1710794297352342	1.239669421487603
