Time Stamp	Accelerometer X	Accelerometer Y	Accelerometer Z	Gyroscope X	Gyroscope Y	Gyroscope Z	Magnetometer X	Magnetometer Y	Magnetometer Z
205.108642578125	0.4011613189163443	-9.846957840217049	-1.705377297211473	-48.153525263578	4.500993516443883	-3.488053352345767	0.135523613963039	-0.3828920570264766	0.7334710743801653
224.639892578125	0.200392574057148	-9.675206401054856	-1.6797524685716	5.805323273854637	-3.420221788960291	-0.8221824579274194	0.1581108829568789	-0.3727087576374745	0.7231404958677686
244.171142578125	0.3386081364877004	-9.733850035868977	-1.953604549590011	-2.894969717013941	-2.208695589452806	-0.3581007623740237	0.1416837782340863	-0.3849287169042769	0.7210743801652892
263.702392578125	0.5362381815729933	-9.706616321291401	-1.87460605243311	-0.007115538244056207	-1.844433827609001	0.7115538244056206	0.1478439425051335	-0.3910386965376782	0.7272727272727273
283.233642578125	0.795500303223634	-9.739454901957691	-1.850010107454464	0.7319751735022159	0.3497524754752979	-0.7337492342795393	0.162217659137577	-0.3971486761710794	0.7148760330578513
302.764892578125	0.417734915511407	-9.814932377317978	-1.924497183713565	0.007078352329906457	2.216255783192353	-0.7078352329906457	0.1478439425051335	-0.3849287169042769	0.731404958677686
322.296142578125	0.3450716498914468	-9.905093499868434	-1.835721663048224	-0.3623182598866305	-0.3681251906832038	-5.806930796573191e-05	0.1683778234086242	-0.3930753564154786	0.7169421487603306
341.827392578125	0.4706409335344836	-9.527826098157183	-1.688031117816117	-1.087029151488191	-0.3607316608829078	0.007262974906052836	0.1642710472279261	-0.3971486761710794	0.7355371900826446
361.358642578125	0.3761810540826362	-9.815034792513282	-1.872701802754538	-0.3513660581644231	-0.3901391161448408	-1.095278241528709	0.1540041067761807	-0.4032586558044806	0.71900826446281
380.889892578125	0.2184732197145045	-9.666026992292311	-1.615773990483483	-0.7245621479449615	-1.479894292533111	-0.007553321445881495	0.1683778234086242	-0.3890020366598778	0.7086776859504132
400.421142578125	0.7583027678127129	-9.698148771740556	-1.943425593757089	-0.7172234942160068	-1.866392198424221	-0.7414186943413522	0.1519507186858316	-0.3767820773930753	0.7293388429752067
419.952392578125	0.6429894616972164	-9.688766740717901	-1.766315389907214	-0.7355515355813188	-1.086058411488122	1.091385442189837	0.1704312114989733	-0.3971486761710794	0.7293388429752067
439.483642578125	0.6267557594746543	-9.877348971103196	-1.89185864915514	0.3587418978075275	-0.3681807453296208	0.3576942772182636	0.1642710472279261	-0.3788187372708757	0.7272727272727273
459.014892578125	0.4925511083632155	-9.75740847496256	-1.751703612107179	0.362243888058331	1.111769101849907	0.007495252137915762	0.1581108829568789	-0.3869653767820774	0.7128099173553719
478.546142578125	0.436250878323335	-9.88561221600879	-1.875029277444499	0.003501990250803478	1.479949847179528	-0.3501990250803478	0.1478439425051335	-0.3930753564154786	0.7128099173553719
498.077392578125	0.2458666557311633	-9.763836447980257	-1.862221857705442	-7.437182829950031e-05	0.7436439111667036	0.007437182829950031	0.162217659137577	-0.3828920570264766	0.7086776859504132
517.608642578125	0.08388687747478198	-9.852876576283153	-1.796229249159399	0	0	0	0.1540041067761807	-0.3849287169042769	0.7066115702479339
537.139892578125	0.1632399898741445	-9.66388573660736	-1.774666329138148	-0.728212881852364	-1.472556317379232	0.3575200692943664	0.1540041067761807	-0.3991853360488798	0.71900826446281
556.671142578125	0.5101215181528043	-9.618394042463926	-1.67071727176014	-0.003687919821552229	0.3791599307372308	0.3687919821552229	0.1704312114989733	-0.3890020366598778	0.731404958677686
576.202392578125	0.3769223550342616	-9.748128438538922	-1.56407850114205	0.003725105735701979	-0.7509818863205826	-0.3725105735701979	0.1540041067761807	-0.3849287169042769	0.7128099173553719
595.733642578125	0.7920154001329611	-9.730581687290343	-1.7338466710987	0.358667525979228	0.3754631658370828	0.3651314600482136	0.1519507186858316	-0.3971486761710794	0.7066115702479339
615.264892578125	0.4651521520203212	-9.796267470846763	-1.838405067344037	-0.3550539779859753	-0.01097918540760998	-0.7264862593734864	0.1581108829568789	-0.3991853360488798	0.7148760330578513
634.796142578125	0.1955346869699008	-9.943443784546398	-1.851156232330027	3.718591414975016e-05	-0.3718219555833518	-0.003718591414975016	0.1683778234086242	-0.3869653767820774	0.731404958677686
654.327392578125	0.5118738274235612	-9.66449412913305	-2.062460914118708	-0.01072908623730894	-2.208917808038474	1.072908623730894	0.1704312114989733	-0.3686354378818737	0.7107438016528926
673.858642578125	0.5605575844945077	-9.71875304768011	-1.685252816483589	-0.362243888058331	-1.111769101849907	-0.007495252137915762	0.1478439425051335	-0.395112016293279	0.7148760330578513
693.389892578125	0.4124227844367809	-9.709983299698775	-1.414092814559361	-0.3658574360515838	-1.47625308227938	0.3538595471873571	0.1560574948665298	-0.3971486761710794	0.7334710743801653
712.921142578125	0.443577139855888	-9.649910058113262	-1.452571328529598	0	0	0	0.1601642710472279	-0.3808553971486761	0.7066115702479339
732.452392578125	0.4009507579013613	-9.917025921611895	-1.698358596712041	0.003539176164953228	1.108127891596177	-0.3539176164953228	0.1540041067761807	-0.3808553971486761	0.7107438016528926
751.983642578125	0.4160527932456443	-9.745476263517242	-1.868426441521476	-0.0001487436565990006	1.487287822333407	0.01487436565990006	0.1560574948665298	-0.395112016293279	0.7293388429752067
771.514892578125	0.4770389916414375	-9.795757392702601	-1.901299721381249	-0.3625041894573793	1.490984587233555	0.01853488776690934	0.1601642710472279	-0.3869653767820774	0.7272727272727273
791.046142578125	0.2577739994211544	-9.636653073520494	-1.592466647371812	-0.3622067021441813	-1.483591057433259	-0.01121384355289078	0.162217659137577	-0.3869653767820774	0.7045454545454546
810.577392578125	0.543228491823214	-9.597689454310494	-1.774283060773797	-0.007189910072355707	-1.100789916442297	0.7189910072355706	0.1396303901437372	-0.3890020366598778	0.7128099173553719
830.108642578125	0.7782311455228972	-9.658371929614264	-1.941038184096571	0.007189910072355707	1.100789916442297	-0.7189910072355706	0.1724845995893224	-0.3808553971486761	0.7334710743801653
849.639892578125	0.2563316170376195	-9.727119443824503	-1.544387234587315	-0.717483795615055	0.7363614906592416	-0.7153885544365272	0.1498973305954825	-0.3706720977596741	0.7148760330578513
869.171142578125	0.3561619852985827	-10.00484095808679	-1.87206617661942	-1.083304045752489	-1.11171354720349	-0.3652475986641451	0.1519507186858316	-0.3828920570264766	0.7272727272727273
888.702392578125	0.5967133554829853	-9.837062681727168	-1.890445182766172	-1.090605513567294	-1.097037596895733	0.3648991828163506	0.1314168377823409	-0.405295315682281	0.7128099173553719
908.233642578125	0.5149581125531431	-9.686830210274483	-1.831937085104766	-0.3587418978075275	0.3681807453296208	-0.3576942772182636	0.162217659137577	-0.3849287169042769	0.7252066115702479
927.764892578125	0.4186063384385836	-9.764650617238191	-1.953544614619454	-3.718591414975016e-05	0.3718219555833518	0.003718591414975016	0.1601642710472279	-0.3706720977596741	0.7169421487603306
947.296142578125	0.3943216347105497	-9.845836004776922	-1.810721157018319	-3.718591414975016e-05	0.3718219555833518	0.003718591414975016	0.1560574948665298	-0.3930753564154786	0.7293388429752067
966.827392578125	0.349659040993154	-9.666943576745547	-1.655301366438467	-0.3623182598866305	-0.3681251906832038	-5.806930796573191e-05	0.1416837782340863	-0.3910386965376782	0.7231404958677686
986.358642578125	0.5573826082910569	-9.846446289985892	-1.912753609701894	-0.3587047118933778	-0.003641210253730994	-0.3614128686332386	0.1437371663244353	-0.3828920570264766	0.7334710743801653
1005.889892578125	0.4312794302392431	-9.727219650889312	-1.709314341308102	7.437182829950031e-05	-0.7436439111667036	-0.007437182829950031	0.1581108829568789	-0.4236252545824847	0.7231404958677686
1025.421142578125	0.6969262034902658	-9.59799386087148	-1.89754011634219	-0.003501990250803478	-1.479949847179528	0.3501990250803478	0.1683778234086242	-0.3727087576374745	0.71900826446281
1044.952392578125	0.5815513851681452	-9.968631718795633	-1.71837950560484	-0.3660061797081828	0.01103474005402697	0.3687339128472572	0.1560574948665298	-0.3869653767820774	0.7355371900826446
1064.483642578125	0.2921719408126394	-9.84553107247058	-1.739064693754645	-0.3624298176290798	0.7473406760668516	0.01109770493695932	0.1396303901437372	-0.3890020366598778	0.7128099173553719
1084.014892578125	0.3565586601695056	-9.708046033211861	-1.551955338983519	-0.3625785612856788	2.234628498400259	0.02597207059685937	0.1601642710472279	-0.3930753564154786	0.7334710743801653
1103.546142578125	0.2156736256950682	-9.833598861025262	-1.855787523168941	-0.3623554458007803	0.003696764900147988	0.003660522107009284	0.1560574948665298	-0.395112016293279	0.7231404958677686
1123.077392578125	0.4774593250533698	-9.865621484899409	-1.915310835112324	-1.079764869587536	-0.003585655607314001	-0.7191652151594679	0.1560574948665298	-0.3767820773930753	0.7169421487603306
1142.608642578125	0.07581616051846904	-9.662152774765694	-1.860538683948968	-0.7246737056874109	-0.3644284257830558	0.003602452799043552	0.1457905544147844	-0.3869653767820774	0.7334710743801653
1162.139892578125	0.483533261148496	-9.776990912228653	-1.784442038283199	-0.3660061797081828	0.01103474005402697	0.3687339128472572	0.1540041067761807	-0.3767820773930753	0.7231404958677686
1181.671142578125	0.3980967492376036	-9.907948717746509	-1.603224974586784	-1.076114135680133	-0.01092363076119298	-1.084238605899716	0.1601642710472279	-0.3849287169042769	0.7293388429752067
1201.202392578125	0.5118935428744024	-9.747821087803944	-1.729784762480078	0.007152724158205957	1.472611872025649	-0.7152724158205956	0.1601642710472279	-0.3869653767820774	0.7107438016528926
1220.733642578125	0.3433745438830448	-9.82564223081115	-1.77915146276816	-0.01106375946465669	1.137479792211692	1.106375946465669	0.1560574948665298	-0.3706720977596741	0.737603305785124
1240.264892578125	0.1500716459483566	-9.581476834476698	-2.002388198278552	0.3514776159068723	-0.7253267506052147	1.084122467283784	0.1601642710472279	-0.3706720977596741	0.7148760330578513
1259.796142578125	0.6902063892255851	-9.67683326748373	-2.006879640852833	-0.7209857858658586	-0.7435883565202867	-0.3651895293561793	0.1601642710472279	-0.3869653767820774	0.7210743801652892
1279.327392578125	0.4243340712169402	-9.866131983639855	-1.811135707231338	-1.079764869587536	-0.003585655607314001	-0.7191652151594679	0.1478439425051335	-0.4134419551934826	0.7252066115702479
1298.858642578125	0.6231107669231515	-9.83186085202818	-1.437025564105051	-0.01091501580805769	-0.3498080301217149	1.091501580805769	0.1704312114989733	-0.3747454175152749	0.7293388429752067
1318.389892578125	0.5114274696165187	-9.857971784823992	-1.71424898721729	-0.007264281900655208	-0.3571460052755938	0.7264281900655207	0.1560574948665298	-0.3747454175152749	0.7252066115702479
1337.921142578125	0.7092783277512321	-9.697333340693769	-1.9759442583744	0.01091501580805769	0.3498080301217149	-1.091501580805769	0.1540041067761807	-0.3869653767820774	0.7148760330578513
1357.452392578125	0.3326887695271684	-9.995763964519551	-1.756292317572276	0.3694337981306867	2.212559018292205	-0.7114957550976549	0.1519507186858316	-0.3910386965376782	0.7210743801652892
1376.983642578125	0.2772165884226142	-9.623699969743354	-1.907219614087136	-0.3730845320380892	-2.205221043138326	1.076569145837903	0.1478439425051335	-0.3971486761710794	0.7252066115702479
1396.514892578125	0.5109172337487511	-9.728136761087903	-1.697241124958367	-0.3730473461239395	-2.577042998721678	1.072850554422928	0.162217659137577	-0.3788187372708757	0.7128099173553719
1416.046142578125	0.7002951797299931	-9.810237891887303	-1.676505990999765	7.437182829950031e-05	-0.7436439111667036	-0.007437182829950031	0.1437371663244353	-0.3930753564154786	0.7231404958677686
1435.577392578125	0.3713744271675758	-9.766588935215818	-1.71248090558586	-0.7099963982295014	-1.137424237565275	-1.464128292991898	0.1581108829568789	-0.3849287169042769	0.7272727272727273
1455.108642578125	0.478471121990535	-9.768627670556393	-1.615704066351167	-0.362541375371529	1.862806542816907	0.02225347918188436	0.1560574948665298	-0.3890020366598778	0.7210743801652892
1474.639892578125	0.3879030725347209	-9.704578006547107	-1.930102417824029	0.007078352329906457	2.216255783192353	-0.7078352329906457	0.1540041067761807	-0.3808553971486761	0.7231404958677686
1494.171142578125	0.3276218986610055	-9.914068919432941	-1.920729955366848	-1.079802055501686	0.3682362999760378	-0.7154466237444929	0.1581108829568789	-0.395112016293279	0.7045454545454546
1513.702392578125	0.2375404265319497	-9.613195262088002	-1.918014217731656	-0.007115538244056207	-1.844433827609001	0.7115538244056206	0.1642710472279261	-0.3869653767820774	0.7128099173553719
1533.233642578125	0.3292756306775571	-9.54353421274759	-1.975854355918565	0.3553514652991733	-2.963596459259204	0.6967375280536863	0.1560574948665298	-0.3767820773930753	0.7231404958677686
1552.764892578125	0.7696841032742633	-9.641135473274655	-1.656136775808774	-0.01080345806560844	-1.46527389687177	1.080345806560844	0.1663244353182751	-0.3788187372708757	0.7210743801652892
1572.296142578125	0.8227352270155304	-9.380648943264978	-1.757840900517675	-0.7175953533575042	1.851827357409297	-0.7042327801916021	0.1704312114989733	-0.3930753564154786	0.7231404958677686
1591.827392578125	0.2347455642207153	-9.854098934235301	-1.824852140690509	0.003390432508354228	2.595415713929583	-0.3390432508354227	0.1498973305954825	-0.3930753564154786	0.7293388429752067
1611.358642578125	0.3157358476579228	-9.704578742590606	-1.857861588597424	-0.007189910072355707	-1.100789916442297	0.7189910072355706	0.1519507186858316	-0.3910386965376782	0.7210743801652892
1630.889892578125	0.5811263200480111	-9.825435823184476	-2.037544001600369	-0.003539176164953228	-1.108127891596177	0.3539176164953228	0.1540041067761807	-0.4114052953156823	0.7128099173553719
1650.421142578125	0.72291195631687	-9.879591800790879	-1.763731877228996	-0.7136843180510536	-0.7582643068280446	-1.095336310836675	0.1560574948665298	-0.3727087576374745	0.71900826446281
1669.952392578125	0.1067591663045596	-9.882147869561527	-1.891972210151985	-0.0001115577424492505	1.115465866750055	0.01115577424492505	0.1704312114989733	-0.3890020366598778	0.7334710743801653
1689.483642578125	0.2139008123554365	-9.914172070671743	-1.796693745181215	-0.003613547993252729	-0.3644839804294728	0.3613547993252729	0.135523613963039	-0.395112016293279	0.731404958677686
1709.014892578125	0.6403010628205239	-9.579635989688031	-1.676702094017465	0.7137958757935028	-0.3572015599220108	1.08418053659175	0.1478439425051335	-0.3890020366598778	0.7066115702479339
1728.546142578125	0.4256557950413276	-9.905704626269971	-1.855193168044251	-0.3514404299927226	0.3535047950218628	-1.087841058698759	0.1478439425051335	-0.3747454175152749	0.7252066115702479
1748.077392578125	0.1419149696263764	-9.614114159820804	-1.730498987545881	-0.7137215039652034	-0.3864423512446928	-1.0916177194217	0.1457905544147844	-0.3849287169042769	0.7210743801652892
1767.608642578125	0.3051100082726032	-9.914681097325193	-1.837000275753439	-0.7317520580173174	-2.580684208975409	0.7114376857896891	0.1457905544147844	-0.3991853360488798	0.7417355371900827
1787.139892578125	0.6494032921648433	-9.756692935533367	-1.980109738828108	0.3550539779859753	0.01097918540760998	0.7264862593734864	0.1642710472279261	-0.3767820773930753	0.7231404958677686
1806.671142578125	0.2657705862823048	-9.567400843768722	-1.525686209410158	-0.7101451418861003	0.3498635847681318	-1.449253927331998	0.1560574948665298	-0.3971486761710794	0.7086776859504132
1826.202392578125	0.5336089290488242	-9.847466446274215	-1.786964301627471	-0.3587790837216773	0.7400027009129726	-0.3539756858032885	0.1437371663244353	-0.395112016293279	0.7148760330578513
1845.733642578125	0.3929707320189175	-9.576272796647217	-1.765691067297246	-0.01087782989390794	-0.7216299857050666	1.087782989390794	0.1642710472279261	-0.395112016293279	0.7272727272727273
1865.264892578125	0.6441266489017311	-9.535065716855108	-2.137554963391036	-0.36239263171493	0.3755187204834998	0.007379113521984299	0.1396303901437372	-0.3930753564154786	0.7045454545454546
1884.796142578125	0.5319867417536184	-9.817990953499665	-1.732891391787279	-0.3551283498142748	0.7326647257590937	-0.7190490765435364	0.1478439425051335	-0.3828920570264766	0.7148760330578513
1904.327392578125	0.2923825018276223	-9.775462991075736	-1.746083394254076	-0.3550911639001251	0.3608427701757418	-0.7227676679585114	0.1704312114989733	-0.3890020366598778	0.7128099173553719
1923.858642578125	0.2241354971960686	-9.864196189239939	-1.804516573202286	-0.003539176164953228	-1.108127891596177	0.3539176164953228	0.135523613963039	-0.3788187372708757	0.7169421487603306
1943.389892578125	0.6639990347315269	-9.738640312103472	-1.799967824384227	-0.3658946219657335	-1.104431126696028	0.3575781386023321	0.1540041067761807	-0.3849287169042769	0.7231404958677686
1962.921142578125	0.4223065342524414	-9.776787553925045	-1.743551141748045	-0.7212089013507571	1.487343376979824	-0.3428779808663293	0.1416837782340863	-0.395112016293279	0.7148760330578513
1982.452392578125	0.5536729490607953	-9.687645746470343	-1.789098302026512	-0.358816269635827	1.111824656496325	-0.3502570943883135	0.1663244353182751	-0.3910386965376782	0.7231404958677686
2001.983642578125	0.4780460568704009	-9.625431774945236	-1.934868562346696	-0.00383666347815123	1.866447753070638	0.3836663478151229	0.1519507186858316	-0.395112016293279	0.731404958677686
2021.514892578125	0.5790380594949217	-9.906111027429976	-1.96793531649739	0.3585931541509285	1.119107077003786	0.3725686428781636	0.1560574948665298	-0.3747454175152749	0.7231404958677686
2041.046142578125	0.2348812065225021	-9.734055076557725	-1.829373550750068	-0.3586303400650783	-0.7472851214204346	-0.3688500514631886	0.1519507186858316	-0.4032586558044806	0.7293388429752067
2060.577392578125	0.2468942250290015	-9.466837533907292	-1.563140834300047	-0.3623182598866305	-0.3681251906832038	-5.806930796573191e-05	0.1457905544147844	-0.3930753564154786	0.7231404958677686
2080.108642578125	0.4469413843874134	-9.788822285714735	-1.564712812913778	-0.3622810739724808	-0.7399471462665556	-0.003776660722940747	0.1519507186858316	-0.3727087576374745	0.7169421487603306
2099.639892578125	0.3878628530150051	-9.747924344191816	-1.595428433833501	-7.437182829950031e-05	0.7436439111667036	0.007437182829950031	0.1498973305954825	-0.3869653767820774	0.7293388429752067
2119.171142578125	0.7016721068167355	-9.816459352129256	-2.055736893891181	-0.7210973436083078	0.3718775102297688	-0.3540337551112543	0.1642710472279261	-0.3665987780040733	0.731404958677686
2138.702392578125	0.4494602303868724	-9.714674525508244	-1.982007679562412	-1.079616125930937	-1.490873477940721	-0.7340395808193679	0.1437371663244353	-0.3869653767820774	0.7231404958677686
2158.233642578125	0.3232206214152382	-9.925491999075739	-1.774020713841272	-0.3695825417872857	-0.7252711959587976	0.726370120757555	0.1683778234086242	-0.395112016293279	0.7148760330578513
2177.764892578125	0.5503181679456738	-9.695397125697566	-2.010605598189123	-0.3622067021441813	-1.483591057433259	-0.01121384355289078	0.1786447638603696	-0.3869653767820774	0.7293388429752067
2197.296142578125	0.5910810454866996	-9.658883795292635	-1.702701516223319	-0.3660061797081828	0.01103474005402697	0.3687339128472572	0.1519507186858316	-0.4032586558044806	0.7231404958677686
2216.827392578125	0.5349006853879331	-9.867048778391236	-1.830022846264435	-0.3589278273782763	2.22729052324638	-0.3391013201433885	0.1457905544147844	-0.3849287169042769	0.731404958677686
2236.358642578125	0.2421065249467486	-9.711718890267218	-2.070217498224952	0.003427618422503978	2.223593758346232	-0.3427618422503977	0.1540041067761807	-0.3910386965376782	0.7128099173553719
2255.889892578125	0.1995306145463751	-9.872151767963338	-1.984353818212502	-0.003576362079102979	-0.7363059360128246	0.3576362079102978	0.1540041067761807	-0.395112016293279	0.731404958677686
2275.421142578125	0.3600585470028178	-9.726914403135755	-1.668618233427258	-0.3730101602097897	-2.94886495430503	1.069131963007953	0.1724845995893224	-0.3890020366598778	0.7252066115702479
2294.952392578125	0.8809565305853676	-9.691824055110731	-1.69855101951225	-0.3622067021441813	-1.483591057433259	-0.01121384355289078	0.1416837782340863	-0.395112016293279	0.7334710743801653
2314.483642578125	0.5787738724536511	-9.589529781239987	-1.625795748455031	0.7245621479449615	1.479894292533111	0.007553321445881495	0.1663244353182751	-0.3625254582484725	0.71900826446281
2334.014892578125	0.4103250604672878	-9.643994897115578	-2.010835348909591	0.003501990250803478	1.479949847179528	-0.3501990250803478	0.1560574948665298	-0.3849287169042769	0.7210743801652892
2353.546142578125	0.3176584984239469	-9.723957085509591	-1.921949947464895	-0.003650733907402479	0.007337975153878983	0.3650733907402479	0.1519507186858316	-0.3727087576374745	0.7272727272727273
2373.077392578125	0.1938983045500895	-9.693972881528804	-1.796610151669649	0.3550911639001251	-0.3608427701757418	0.7227676679585114	0.1581108829568789	-0.3788187372708757	0.7128099173553719
2392.608642578125	0.3104931149702573	-9.786273892826284	-1.683103832341909	0.0001487436565990006	-1.487287822333407	-0.01487436565990006	0.1457905544147844	-0.395112016293279	0.7210743801652892
2412.139892578125	0.5184777148372963	-9.789025538869273	-1.615923827909876	-0.007189910072355707	-1.100789916442297	0.7189910072355706	0.1540041067761807	-0.3869653767820774	0.7169421487603306
2431.671142578125	0.2337842388377032	-9.844409762775809	-1.792807961256773	-0.3658574360515838	-1.47625308227938	0.3538595471873571	0.1581108829568789	-0.4215885947046843	0.7334710743801653
2451.202392578125	0.5872948903071747	-9.870107985467348	-1.576496343572487	-0.01098938763635719	0.3938358810449887	1.098938763635719	0.1581108829568789	-0.3828920570264766	0.7169421487603306
2470.733642578125	0.6020814784380002	-9.698660321971714	-1.736049281266668	0.007189910072355707	1.100789916442297	-0.7189910072355706	0.1457905544147844	-0.3747454175152749	0.7252066115702479
2490.264892578125	0.5885819149380818	-9.816358514170021	-1.952730497936055	-0.0002603013990482511	2.602753689083463	0.02603013990482511	0.1519507186858316	-0.3869653767820774	0.7024793388429752
2509.796142578125	0.2129844382003421	-9.934468364981889	-1.766147940011403	0.007264281900655208	0.3571460052755938	-0.7264281900655207	0.1663244353182751	-0.3869653767820774	0.7169421487603306
2529.327392578125	0.3935409028572421	-9.746088441409492	-1.784696761908066	-0.01445419197301091	-1.457935921717891	1.445419197301091	0.1642710472279261	-0.3971486761710794	0.7086776859504132
2548.858642578125	0.144078148892662	-9.583414731858038	-1.802604963088733	-0.7208370422092596	-2.230876178853694	-0.3800638950160794	0.1478439425051335	-0.3869653767820774	0.71900826446281
2568.389892578125	0.4829173504642201	-9.787190056683235	-1.763911682140667	-0.7209485999517089	-1.115410312103638	-0.3689081207711543	0.1540041067761807	-0.3869653767820774	0.7107438016528926
2587.921142578125	0.4856270420278209	-9.559647256411004	-1.520901400927362	0.3587047118933778	0.003641210253730994	0.3614128686332386	0.1540041067761807	-0.3767820773930753	0.7148760330578513
2607.452392578125	0.511954266462993	-9.577801453843632	-1.731808882099764	-0.3659318078798833	-0.7326091711126765	0.3612967300173071	0.1683778234086242	-0.3788187372708757	0.7169421487603306
2626.983642578125	0.5889328499630534	-9.699578378511948	-1.631094998768441	-0.7210229717800084	-0.3717664009369348	-0.3614709379412043	0.1375770020533881	-0.3828920570264766	0.731404958677686
2646.514892578125	0.5881158416801981	-9.926509211190069	-1.937194722673268	-0.0001115577424492505	1.115465866750055	0.01115577424492505	0.1416837782340863	-0.3971486761710794	0.7272727272727273
2666.046142578125	0.3110640744266156	-9.746089282602062	-1.702135814220518	-0.3624298176290798	0.7473406760668516	0.01109770493695932	0.1519507186858316	-0.3706720977596741	0.7148760330578513
2685.577392578125	0.4702639741144017	-9.907947981703009	-1.675465803813389	0.3550167920718256	0.3828011409909618	0.7302048507884614	0.162217659137577	-0.3665987780040733	0.71900826446281
2705.108642578125	0.3340270543302623	-9.625331252433215	-1.80090181100874	3.718591414975016e-05	-0.3718219555833518	-0.003718591414975016	0.1519507186858316	-0.3991853360488798	0.7293388429752067
2724.639892578125	0.3537149035401853	-9.635632181188674	-1.79049678467284	-0.358965013292426	2.599112478829731	-0.3353827287284135	0.1519507186858316	-0.3828920570264766	0.7210743801652892
2744.171142578125	0.2321171003145797	-9.784948804231618	-1.737236677152658	-0.003725105735701979	0.7509818863205826	0.3725105735701979	0.135523613963039	-0.3808553971486761	0.7045454545454546
2763.702392578125	0.2584143572644734	-9.783112691151153	-1.94714524214911	-0.7245621479449615	-1.479894292533111	-0.007553321445881495	0.1375770020533881	-0.3747454175152749	0.71900826446281
2783.233642578125	0.4929556694144748	-10.02727766688932	-1.765188980482492	-0.007301467814804958	0.01467595030775797	0.7301467814804957	0.1581108829568789	-0.3706720977596741	0.7086776859504132
2802.764892578125	0.5381458485963783	-9.715999508953837	-1.938194953212606	-0.3550167920718256	-0.3828011409909618	-0.7302048507884614	0.1540041067761807	-0.3869653767820774	0.71900826446281
2822.296142578125	0.5487409318783857	-9.695907098692656	-1.958031062612855	-0.3624670035432295	1.119162631650203	0.01481629635193433	0.1642710472279261	-0.3747454175152749	0.7252066115702479
2841.827392578125	0.4332919834611026	-9.806568925347579	-1.77639944870342	0.3587790837216773	-0.7400027009129726	0.3539756858032885	0.1560574948665298	-0.3686354378818737	0.7107438016528926
2861.358642578125	0.4534159384436309	-9.686728846569892	-1.780531281454359	-0.7247108916015605	0.007393529800295976	0.007321044214018567	0.1416837782340863	-0.3930753564154786	0.7334710743801653
2880.889892578125	0.4018821157990949	-9.906724782558292	-1.729403859969827	-0.717483795615055	0.7363614906592416	-0.7153885544365272	0.1375770020533881	-0.3869653767820774	0.7272727272727273
2900.421142578125	0.07404255856080363	-9.952726239398674	-1.801418618693454	-0.7210601576941581	5.555464641699391e-05	-0.3577523465262293	0.1437371663244353	-0.3910386965376782	0.7231404958677686
2919.952392578125	0.1396413838353807	-9.711515952559893	-1.988046127846024	-0.007189910072355707	-1.100789916442297	0.7189910072355706	0.1560574948665298	-0.3849287169042769	0.7231404958677686
2939.483642578125	0.3621121083624268	-9.552917084962814	-2.070403612080892	0.7139074335359521	-1.472667426672066	1.073024762346825	0.1560574948665298	-0.3991853360488798	0.7252066115702479
2959.014892578125	0.4189517531373197	-9.784538933152266	-1.965058437910656	0.7283244395948133	0.3570904506291769	-0.3686758435392914	0.1478439425051335	-0.3767820773930753	0.7252066115702479
2978.546142578125	0.4417388712194638	-9.827171098305705	-1.724629040648791	0.003539176164953228	1.108127891596177	-0.3539176164953228	0.1457905544147844	-0.3808553971486761	0.7272727272727273
2998.077392578125	0.5028457281744045	-9.747413214556945	-1.761524272480148	-0.3622810739724808	-0.7399471462665556	-0.003776660722940747	0.1724845995893224	-0.3890020366598778	0.7272727272727273
3017.608642578125	0.5075924201189079	-9.75587845082822	-1.919747337296928	0.3587418978075275	-0.3681807453296208	0.3576942772182636	0.1560574948665298	-0.3849287169042769	0.7128099173553719
3037.139892578125	0.4033394819252691	-9.826253567510831	-1.777982730842299	-0.007450211471403958	1.501963772641165	0.7450211471403958	0.1581108829568789	-0.3788187372708757	0.7210743801652892
3056.671142578125	0.5146426653396855	-9.686932204873502	-1.821422177989513	-0.7174466097009052	0.3645395350758898	-0.7191071458515021	0.1601642710472279	-0.3828920570264766	0.7272727272727273
3076.202392578125	0.412883337368429	-9.736501054250875	-1.762777912280965	-0.724636519773261	-0.7362503813664076	-0.0001161386159314638	0.1560574948665298	-0.3747454175152749	0.7355371900826446
3095.733642578125	0.6778235088613066	-9.767503732134845	-1.927450295376884	-1.083378417580789	-0.3680696360367868	-0.357810415834195	0.1437371663244353	-0.3890020366598778	0.7252066115702479
3115.264892578125	0.1719573736180455	-9.654400449196832	-1.731912453934849	-0.00383666347815123	1.866447753070638	0.3836663478151229	0.1478439425051335	-0.3890020366598778	0.731404958677686
3134.796142578125	0.4640701680781616	-9.916617312321396	-1.802338935938717	0.007227095986505457	0.7289679608589457	-0.7227095986505457	0.162217659137577	-0.3706720977596741	0.7210743801652892
3154.327392578125	0.1698840968075953	-9.745070808698879	-1.662803226919845	0.01087782989390794	0.7216299857050666	-1.087782989390794	0.1396303901437372	-0.3665987780040733	0.7086776859504132
3173.858642578125	0.2269500749581441	-9.706619475763533	-1.565002498604803	-0.3622810739724808	-0.7399471462665556	-0.003776660722940747	0.1560574948665298	-0.3910386965376782	0.7169421487603306
3193.389892578125	0.4067053036928618	-9.545165285139309	-1.890176789762055	-0.3587047118933778	-0.003641210253730994	-0.3614128686332386	0.1437371663244353	-0.3849287169042769	0.7107438016528926
3212.921142578125	0.3902310729700381	-9.783825286406353	-2.007702432334601	-0.7210229717800084	-0.3717664009369348	-0.3614709379412043	0.1704312114989733	-0.3788187372708757	0.7293388429752067
3232.452392578125	0.2543884622027206	-9.834414397221121	-1.812948740090686	-1.090419583996545	-2.956147374812491	0.3463062257414756	0.1478439425051335	-0.3991853360488798	0.7396694214876033
3251.983642578125	0.5992968681612031	-9.876227345961212	-1.976562272040099	-0.362243888058331	-1.111769101849907	-0.007495252137915762	0.1601642710472279	-0.3849287169042769	0.7210743801652892
3271.514892578125	0.4838881392636358	-9.943542834971424	-2.129604642121193	-0.7320867312446651	0.7657133912747575	0.7449050085244643	0.1498973305954825	-0.3910386965376782	0.7272727272727273
3291.046142578125	0.3927096994497813	-9.75302386384457	-2.090323314992707	-0.36239263171493	0.3755187204834998	0.007379113521984299	0.1601642710472279	-0.3706720977596741	0.7004132231404959
3310.577392578125	0.3613802708272051	-9.766487045765871	-1.71267569424017	-1.08717789514479	1.126556161450499	0.0221373405659529	0.1642710472279261	-0.3930753564154786	0.7148760330578513
3330.108642578125	0.3085854479468724	-9.776890705163845	-1.619514931562413	0.003464804336653728	1.85177180276288	-0.3464804336653728	0.1601642710472279	-0.4012219959266802	0.7520661157024794
3349.639892578125	0.5837051010180271	-9.791268684004171	-1.456836700600901	0.7244505902025123	2.595360159283167	0.01870909569080654	0.1293634496919918	-0.3767820773930753	0.7293388429752067
3369.171142578125	0.2891633630142875	-9.663170512625381	-1.972112100476246	-0.3658946219657335	-1.104431126696028	0.3575781386023321	0.1581108829568789	-0.3890020366598778	0.6962809917355373
3388.702392578125	0.3487679026151363	-9.633898378154441	-1.958930087171209	-0.003464804336653728	-1.85177180276288	0.3464804336653728	0.1642710472279261	-0.3767820773930753	0.7252066115702479
3408.233642578125	0.6284828329683347	-9.976790550673572	-1.949427765611154	-7.437182829950031e-05	0.7436439111667036	0.007437182829950031	0.1581108829568789	-0.3930753564154786	0.7231404958677686
3427.764892578125	0.3338764282858362	-9.735379954854247	-1.795880942861206	-0.3587790837216773	0.7400027009129726	-0.3539756858032885	0.135523613963039	-0.4032586558044806	0.7107438016528926
3447.296142578125	0.3994042779373854	-9.727525950133579	-1.64680926457951	0.0001487436565990006	-1.487287822333407	-0.01487436565990006	0.1560574948665298	-0.4012219959266802	0.7107438016528926
3466.827392578125	0.3409566409918923	-9.686424019412621	-1.69855469972974	-0.007338653728954708	0.3864979058911098	0.7338653728954707	0.1540041067761807	-0.3849287169042769	0.7086776859504132
3486.358642578125	0.4966369383955251	-9.746087389918781	-1.887897946517502	-7.437182829950031e-05	0.7436439111667036	0.007437182829950031	0.1457905544147844	-0.3930753564154786	0.7169421487603306
3505.889892578125	0.3895757313840799	-9.627370513519148	-1.652524379469328	-0.3587790837216773	0.7400027009129726	-0.3539756858032885	0.1457905544147844	-0.3828920570264766	0.7231404958677686
3525.421142578125	0.5108864776454389	-9.918146705561309	-1.69621592151463	-0.3731960897805385	-1.08975517638827	1.087724920082828	0.162217659137577	-0.3747454175152749	0.7210743801652892
3544.952392578125	0.6535246100086669	-9.628693709430532	-1.784153666955564	-0.7244505902025123	-2.595360159283167	-0.01870909569080654	0.1498973305954825	-0.3890020366598778	0.7086776859504132
3564.483642578125	0.8938646305600529	-9.740983769452249	-1.795487685335096	-3.718591414975016e-05	0.3718219555833518	0.003718591414975016	0.1375770020533881	-0.3910386965376782	0.7086776859504132
3584.014892578125	0.3422633810736404	-9.71600150678619	-1.742112702454679	-0.3550167920718256	-0.3828011409909618	-0.7302048507884614	0.1560574948665298	-0.3930753564154786	0.7272727272727273
3603.546142578125	0.5079977697882009	-9.815747387768484	-1.933258992940028	-0.003576362079102979	-0.7363059360128246	0.3576362079102978	0.1396303901437372	-0.3849287169042769	0.7148760330578513
3623.077392578125	0.6366292572558774	-10.00748987348727	-1.887641908529246	-0.7247480775157102	0.3792154853836477	0.01103963562899358	0.1498973305954825	-0.3767820773930753	0.7334710743801653
3642.608642578125	0.5729704323440646	-9.648072893542086	-1.765681078135486	-0.00383666347815123	1.866447753070638	0.3836663478151229	0.1765913757700205	-0.3849287169042769	0.71900826446281
3662.139892578125	0.3435243813094372	-9.925593783376616	-1.784146043647905	-0.0001115577424492505	1.115465866750055	0.01115577424492505	0.1519507186858316	-0.3808553971486761	0.7355371900826446
3681.671142578125	0.2723792054042417	-9.765264056919296	-1.745973513474722	0.3514404299927226	-0.3535047950218628	1.087841058698759	0.1581108829568789	-0.3767820773930753	0.7169421487603306
3701.202392578125	0.409923653888163	-9.86745801857616	-1.664121796272097	-0.3658574360515838	-1.47625308227938	0.3538595471873571	0.1560574948665298	-0.3849287169042769	0.7148760330578513
3720.733642578125	0.6396094448050182	-9.749859612846379	-1.653648160167271	0.7207998562951099	2.602698134437046	0.3837824864310544	0.1683778234086242	-0.3686354378818737	0.7169421487603306
3740.264892578125	0.5875464594599071	-9.546693311441297	-1.918215315330235	0.003464804336653728	1.85177180276288	-0.3464804336653728	0.1375770020533881	-0.3849287169042769	0.7169421487603306
3759.796142578125	0.1969620856107965	-9.842982258985842	-1.89873618702655	-0.3623554458007803	0.003696764900147988	0.003660522107009284	0.1642710472279261	-0.3910386965376782	0.7045454545454546
3779.327392578125	0.3270816953079593	-9.76424358518376	-1.902723176931976	0.0002231154848985009	-2.230931733500111	-0.02231154848985009	0.1601642710472279	-0.3767820773930753	0.7272727272727273
3798.858642578125	0.4624132815894755	-9.793819705619402	-2.08044271964918	0.3585931541509285	1.119107077003786	0.3725686428781636	0.1745379876796715	-0.3890020366598778	0.731404958677686
3818.389892578125	0.2815618737879927	-9.855628327475216	-1.718729126266422	-0.3551655357284246	1.104486681342445	-0.7153304851285613	0.1457905544147844	-0.3910386965376782	0.7024793388429752
3837.921142578125	0.172436853382501	-9.974245417406324	-1.747895112750035	-0.003501990250803478	-1.479949847179528	0.3501990250803478	0.1498973305954825	-0.3767820773930753	0.7128099173553719
3857.452392578125	0.5554157949151487	-9.587082226310768	-1.847193163838288	-0.3694709840448365	-1.840737062708853	0.7152143465126299	0.1601642710472279	-0.3727087576374745	0.7231404958677686
3876.983642578125	0.7112206939680973	-9.800038642283649	-1.707356465603241	7.437182829950031e-05	-0.7436439111667036	-0.007437182829950031	0.1457905544147844	-0.4012219959266802	0.7086776859504132
3896.514892578125	0.4541217515837422	-9.73650063365459	-1.804058386124739	-0.3552027216425743	1.476308636925797	-0.7116118937135864	0.1437371663244353	-0.3767820773930753	0.7107438016528926
3916.046142578125	0.4475722788143287	-9.788618296516699	-1.585742627144285	-1.083527161237388	1.11921818629662	-0.342936050174295	0.1540041067761807	-0.3788187372708757	0.71900826446281
3935.577392578125	0.2661751473335642	-9.837270035695481	-1.539171577785471	-0.007487397385553709	1.873785728224517	0.7487397385553708	0.1642710472279261	-0.3788187372708757	0.71900826446281
3955.108642578125	0.5546642419290859	-9.717325228442929	-1.822141397636196	0.3623182598866305	0.3681251906832038	5.806930796573191e-05	0.1457905544147844	-0.3869653767820774	0.7231404958677686
3974.639892578125	0.2628511223217546	-9.655011470449299	-1.761704077391819	0.3551655357284246	-1.104486681342445	0.7153304851285613	0.1519507186858316	-0.3971486761710794	0.7107438016528926
3994.171142578125	0.5651433983601477	-9.900603634530219	-1.504779945338255	-0.7281756959382143	-1.844378272962584	0.3538014778793914	0.1498973305954825	-0.3686354378818737	0.7128099173553719
4013.702392578125	0.5448049392724684	-9.807179736301903	-1.826831309082277	-0.003613547993252729	-0.3644839804294728	0.3613547993252729	0.1437371663244353	-0.3706720977596741	0.7066115702479339
4033.233642578125	0.5596112428541349	-9.719059031477164	-1.653708095137828	-0.7136843180510536	-0.7582643068280446	-1.095336310836675	0.1519507186858316	-0.3910386965376782	0.7272727272727273
4052.764892578125	0.3643541494320768	-9.855525491683627	-1.811804981069224	-0.3551283498142748	0.7326647257590937	-0.7190490765435364	0.1663244353182751	-0.3788187372708757	0.7231404958677686
4072.296142578125	0.444833408383483	-9.78617053128934	-1.827780279449429	-3.718591414975016e-05	0.3718219555833518	0.003718591414975016	0.1704312114989733	-0.3767820773930753	0.71900826446281
4091.827392578125	0.443136302375081	-9.706719262232058	-1.771210079169364	-0.7247108916015605	0.007393529800295976	0.007321044214018567	0.1437371663244353	-0.3869653767820774	0.7293388429752067
4111.358642578125	0.3948026917110725	-9.745680463013422	-1.826756390369081	-0.007413025557254208	1.130141817057813	0.7413025557254208	0.1334702258726899	-0.4073319755600814	0.7148760330578513
4130.889892578125	0.2753530840091133	-9.854302502837053	-1.845102800303775	-7.437182829950031e-05	0.7436439111667036	0.007437182829950031	0.1416837782340863	-0.3686354378818737	0.71900826446281
4150.421142578125	0.4907033763103875	-9.788005908326308	-1.690112543679581	0.3587790837216773	-0.7400027009129726	0.3539756858032885	0.1437371663244353	-0.3910386965376782	0.7293388429752067
4169.952392578125	0.3831563805902176	-9.69611277027583	-1.77187935300725	3.718591414975016e-05	-0.3718219555833518	-0.003718591414975016	0.1601642710472279	-0.4012219959266802	0.7148760330578513
4189.483642578125	0.5443696221178969	-9.727320488848546	-1.812320737263227	-0.3661921092789315	1.870144517970786	0.3873268699221322	0.1540041067761807	-0.3930753564154786	0.7417355371900827
4209.014892578125	0.5098352498065915	-9.848486602562536	-1.661174993553048	-0.3588534555499768	1.483646612079676	-0.3465385029733385	0.1519507186858316	-0.3828920570264766	0.7148760330578513
4228.546142578125	0.2911065178491863	-9.555875559228763	-1.703550594972875	-7.437182829950031e-05	0.7436439111667036	0.007437182829950031	0.1601642710472279	-0.3930753564154786	0.7272727272727273
4248.077392578125	0.09641959526545277	-9.862157664197504	-1.880653175515092	-0.3623554458007803	0.003696764900147988	0.003660522107009284	0.1560574948665298	-0.3828920570264766	0.7210743801652892
4267.608642578125	0.33453729019803	-9.755166276169303	-1.817909673267663	-1.090568327653144	-1.468859552479084	0.3611805914013757	0.1540041067761807	-0.3869653767820774	0.71900826446281
4287.139892578125	0.6255688893340201	-9.927732725782001	-1.852296311133999	-0.3657830642232843	-2.219896993446084	0.346422364357407	0.1457905544147844	-0.3930753564154786	0.7024793388429752
4306.671142578125	0.9129815203136177	-9.79146930843193	-1.766050677120587	0.007338653728954708	-0.3864979058911098	-0.7338653728954707	0.1663244353182751	-0.4093686354378818	0.7148760330578513
4326.202392578125	0.5396387025340663	-9.518850152847318	-1.654623417802211	-0.3623182598866305	-0.3681251906832038	-5.806930796573191e-05	0.1560574948665298	-0.3849287169042769	0.7438016528925619
4345.733642578125	0.5460817118689381	-9.816766913162377	-1.869390395631266	-0.007413025557254208	1.130141817057813	0.7413025557254208	0.1396303901437372	-0.3828920570264766	0.7169421487603306
4365.264892578125	0.4768426257510602	-10.08582088434049	-1.894754191702003	0.003613547993252729	0.3644839804294728	-0.3613547993252729	0.1498973305954825	-0.3788187372708757	0.7210743801652892
4384.796142578125	0.309727366859589	-9.696521484715401	-1.657578895319631	-0.3587047118933778	-0.003641210253730994	-0.3614128686332386	0.1519507186858316	-0.3767820773930753	0.71900826446281
4404.327392578125	0.2173115853509469	-9.66306925406986	-1.910386178364895	-0.003501990250803478	-1.479949847179528	0.3501990250803478	0.1457905544147844	-0.3869653767820774	0.7107438016528926
4423.858642578125	0.3012907311356652	-9.612582663599467	-2.043024371188839	-0.7319008016739164	-1.093396386642001	0.7263120514495892	0.1519507186858316	-0.4093686354378818	0.7066115702479339
4443.389892578125	0.6570386919665847	-9.867557489597472	-1.901289732219489	-0.3622810739724808	-0.7399471462665556	-0.003776660722940747	0.1314168377823409	-0.3910386965376782	0.7252066115702479
4462.921142578125	0.494853873021456	-9.889997247723064	-1.495129100715198	-0.0001487436565990006	1.487287822333407	0.01487436565990006	0.1663244353182751	-0.3788187372708757	0.6983471074380165
4482.452392578125	0.4621183384448926	-9.667248403902819	-1.737277948163085	-0.003613547993252729	-0.3644839804294728	0.3613547993252729	0.1560574948665298	-0.3828920570264766	0.7169421487603306
4501.983642578125	0.4133194431410341	-9.606360046717732	-1.777314771367803	0.3549796061576758	0.7546230965743135	0.7339234422034364	0.1745379876796715	-0.3991853360488798	0.731404958677686
4521.514892578125	0.5938695988536649	-9.764648829703981	-2.128986628455494	0.007152724158205957	1.472611872025649	-0.7152724158205956	0.1560574948665298	-0.3890020366598778	0.731404958677686
4541.046142578125	0.4625181677879502	-9.863785792415229	-2.083938926265002	-0.717335051958456	-0.7509263316741656	-0.7302629200964272	0.1498973305954825	-0.3910386965376782	0.7417355371900827
4560.577392578125	0.313001708935279	-9.775462780777595	-1.766723631175964	-0.3658946219657335	-1.104431126696028	0.3575781386023321	0.1601642710472279	-0.3808553971486761	0.71900826446281
4580.108642578125	0.4052179700814091	-9.60564618967368	-1.840599002713635	0.3517007313917708	-2.956258484105325	1.061810918793934	0.162217659137577	-0.395112016293279	0.7334710743801653
4599.639892578125	0.6239025394289303	-9.658271512251313	-1.796751314297671	0.3586303400650783	0.7472851214204346	0.3688500514631886	0.1724845995893224	-0.3849287169042769	0.71900826446281
4619.171142578125	0.2499083231535889	-9.51252964218034	-1.996944105119629	-0.3770699391728394	1.148514532265719	1.475109859312926	0.1498973305954825	-0.3890020366598778	0.7066115702479339
4638.702392578125	0.400800920474969	-9.817074369046429	-1.693364015832296	-0.3552027216425743	1.476308636925797	-0.7116118937135864	0.1704312114989733	-0.3706720977596741	0.7148760330578513
4658.233642578125	0.2940046891228281	-9.804938483850286	-1.800156304094268	-0.717483795615055	0.7363614906592416	-0.7153885544365272	0.1560574948665298	-0.3930753564154786	0.7231404958677686
4677.764892578125	0.3164014412783184	-9.79769686732001	-1.546714709277276	-0.3622810739724808	-0.7399471462665556	-0.003776660722940747	0.1581108829568789	-0.3910386965376782	0.737603305785124
4697.296142578125	0.3195109621849767	-9.76669145556019	-1.650365406165889	-0.358518782322629	-1.86275098817049	-0.3800058257081136	0.1416837782340863	-0.3828920570264766	0.7293388429752067
4716.827392578125	0.4527550765314372	-9.666942525254836	-1.758502551047902	-0.365968993794033	-0.3607872155293249	0.3650153214322821	0.1457905544147844	-0.3706720977596741	0.7128099173553719
4736.358642578125	0.4687332665110986	-9.518442910494745	-1.62444221703662	-0.3514032440785728	-0.01831716056148896	-1.091559650113734	0.1498973305954825	-0.3890020366598778	0.7128099173553719
4755.889892578125	0.3544806516508536	-9.725384589299557	-1.816021721695119	-0.3589278273782763	2.22729052324638	-0.3391013201433885	0.1498973305954825	-0.395112016293279	0.7086776859504132
4775.421142578125	0.23111082370365	-9.745274167002487	-1.703694123454999	-0.3622810739724808	-0.7399471462665556	-0.003776660722940747	0.1396303901437372	-0.3808553971486761	0.7169421487603306
4794.952392578125	0.3978672613898132	-9.684689585483961	-1.92890871299377	-0.007189910072355707	-1.100789916442297	0.7189910072355706	0.1540041067761807	-0.3727087576374745	0.7231404958677686
4814.483642578125	0.748404034254413	-9.621349362257739	-1.61346780848043	-0.0001859295707487508	1.859109777916759	0.01859295707487508	0.1457905544147844	-0.3706720977596741	0.7210743801652892
4834.014892578125	0.7073107257572903	-9.647969532005142	-1.910357525243006	-0.3588534555499768	1.483646612079676	-0.3465385029733385	0.1437371663244353	-0.3991853360488798	0.71900826446281
4853.546142578125	0.3823748601188763	-9.806365461894897	-1.745828670629209	0.3628760485988768	-5.209204143067073	-0.0557208019166595	0.1519507186858316	-0.3869653767820774	0.7210743801652892
4873.077392578125	0.6001982585736582	-9.845935896394518	-2.006608619121937	-0.003576362079102979	-0.7363059360128246	0.3576362079102978	0.1560574948665298	-0.3849287169042769	0.731404958677686
4892.608642578125	0.4918752627083826	-9.727626998390956	-1.729175423612749	-0.007264281900655208	-0.3571460052755938	0.7264281900655207	0.1437371663244353	-0.3849287169042769	0.6983471074380165
4912.139892578125	0.5533874693326163	-9.707738051582455	-1.779582311087207	0.3660433656223325	-0.3828566956373787	-0.3724525042622321	0.1519507186858316	-0.3890020366598778	0.7148760330578513
4931.671142578125	0.3416025191614467	-9.696215185471132	-1.720083972048222	0.0001115577424492505	-1.115465866750055	-0.01115577424492505	0.1519507186858316	-0.3686354378818737	0.7417355371900827
4951.202392578125	0.284941890680191	-9.79453545534674	-1.831396356006365	-0.3623182598866305	-0.3681251906832038	-5.806930796573191e-05	0.1519507186858316	-0.3991853360488798	0.7210743801652892
4970.733642578125	0.3653769870217131	-9.485194774196312	-1.845899567390434	-0.3660805515364823	0.7546786512207306	0.3761710956772072	0.1540041067761807	-0.3910386965376782	0.7272727272727273
4990.264892578125	0.3396751366872208	-9.603505039137799	-1.989171222907356	-0.3552399075567241	1.848130592509149	-0.7078933022986114	0.1437371663244353	-0.3828920570264766	0.731404958677686
5009.796142578125	0.3567944569615651	-9.58463645891576	-1.893148565385504	-0.3622810739724808	-0.7399471462665556	-0.003776660722940747	0.1519507186858316	-0.3869653767820774	0.7334710743801653
5029.327392578125	0.4013419124460488	-9.756899448309111	-1.711397081534956	-1.086843221917442	-2.219841438799667	-0.01132998216882224	0.1396303901437372	-0.3910386965376782	0.7128099173553719
5048.858642578125	0.3743530374806494	-9.928959184547923	-1.478434582688309	-0.007189910072355707	-1.100789916442297	0.7189910072355706	0.1416837782340863	-0.3869653767820774	0.7272727272727273
5068.389892578125	0.3725605086901765	-9.92620543552351	-1.752016956339214	0.003613547993252729	0.3644839804294728	-0.3613547993252729	0.1478439425051335	-0.3625254582484725	0.731404958677686
5087.921142578125	0.267121488973937	-9.836964051898427	-1.570716299131232	-0.003687919821552229	0.3791599307372308	0.3687919821552229	0.1498973305954825	-0.395112016293279	0.737603305785124
5107.452392578125	0.3867303975186923	-9.974957171468956	-1.891013250623074	-0.3621323303158818	-2.227234968599963	-0.01865102638284081	0.1581108829568789	-0.4012219959266802	0.71900826446281
5126.983642578125	0.5827839951547309	-9.738233174899971	-1.759466505157693	-0.003650733907402479	0.007337975153878983	0.3650733907402479	0.1663244353182751	-0.3808553971486761	0.7148760330578513
5146.514892578125	0.4510272144197231	-9.777501200670956	-1.700907147324101	-0.3551283498142748	0.7326647257590937	-0.7190490765435364	0.1683778234086242	-0.3788187372708757	0.7086776859504132
5166.046142578125	0.3737323950881715	-9.865826525588158	-1.791079836272381	-0.3660061797081828	0.01103474005402697	0.3687339128472572	0.1478439425051335	-0.3767820773930753	0.731404958677686
5185.577392578125	0.1306282683288632	-9.804430193240334	-1.687608944295439	-1.087066337402341	0.01109029470044396	0.01098156632102785	0.1498973305954825	-0.3808553971486761	0.7169421487603306
5205.108642578125	0.5165503323630704	-9.69631539253594	-1.885011078769009	-0.003650733907402479	0.007337975153878983	0.3650733907402479	0.1560574948665298	-0.3727087576374745	0.7210743801652892
5224.639892578125	0.35354929375312	-9.735685728353157	-1.784976458437332	-0.3623554458007803	0.003696764900147988	0.003660522107009284	0.1581108829568789	-0.3910386965376782	0.7128099173553719
5244.171142578125	0.5972235913507529	-9.966897705463257	-1.907453045025095	-0.003613547993252729	-0.3644839804294728	0.3613547993252729	0.1601642710472279	-0.3869653767820774	0.7210743801652892
5263.702392578125	0.4314142839229962	-9.817176048198233	-1.713809464099873	-0.003650733907402479	0.007337975153878983	0.3650733907402479	0.1519507186858316	-0.3930753564154786	0.7086776859504132
5283.233642578125	0.5159044541935159	-9.686524226477429	-1.863481806450527	-0.3660433656223325	0.3828566956373787	0.3724525042622321	0.1519507186858316	-0.4012219959266802	0.71900826446281
5302.764892578125	0.258971121596226	-9.522932670683888	-1.965704053207533	-0.0001115577424492505	1.115465866750055	0.01115577424492505	0.1498973305954825	-0.3869653767820774	0.7417355371900827
5322.296142578125	0.2079033722095737	-9.632777909652239	-1.930112406985789	-1.083489975323238	0.7473962307132686	-0.34665464158927	0.1724845995893224	-0.3686354378818737	0.7210743801652892
5341.827392578125	0.1116170533918067	-9.613910486069981	-1.720568446393558	-1.086880407831592	-1.848019483216315	-0.007611390753847227	0.1540041067761807	-0.3849287169042769	0.7148760330578513
5361.358642578125	0.1500156540679679	-9.824828271851358	-1.667188468932261	-0.3621695162300315	-1.855413013016611	-0.0149324349678658	0.1540041067761807	-0.3869653767820774	0.7148760330578513
5380.889892578125	0.4284246329574518	-9.928142702010424	-1.614154431915056	-0.003576362079102979	-0.7363059360128246	0.3576362079102978	0.1704312114989733	-0.4012219959266802	0.7004132231404959
5400.421142578125	0.4564048007911417	-9.785762447744197	-1.880160026371387	-7.437182829950031e-05	0.7436439111667036	0.007437182829950031	0.1581108829568789	-0.3767820773930753	0.7231404958677686
5419.952392578125	0.4336673656451172	-9.846447551774746	-1.788912188170572	-0.3589278273782763	2.22729052324638	-0.3391013201433885	0.1478439425051335	-0.3991853360488798	0.7210743801652892
5439.483642578125	0.419987997233528	-9.844203880894492	-1.999599907784265	-1.445733863381569	-0.3643728711366388	-0.3541498937271857	0.1498973305954825	-0.3910386965376782	0.7128099173553719
5459.014892578125	0.3792306400187376	-9.744048759727276	-1.974354667291252	-0.7247108916015605	0.007393529800295976	0.007321044214018567	0.162217659137577	-0.3788187372708757	0.7231404958677686
5478.546142578125	0.3221851659370636	-9.655826796347016	-1.739505531235451	-0.7209857858658586	-0.7435883565202867	-0.3651895293561793	0.1519507186858316	-0.3828920570264766	0.7231404958677686
5498.077392578125	0.3311280944385868	-9.586268582798191	-1.704269814619559	0	0	0	0.1724845995893224	-0.3930753564154786	0.7169421487603306
5517.608642578125	0.23260840934954	-9.621456614310317	-2.086946978317998	-0.3623182598866305	-0.3681251906832038	-5.806930796573191e-05	0.1396303901437372	-0.3849287169042769	0.71900826446281
5537.139892578125	0.3353038269267319	-9.634918429293691	-1.843460897557729	-0.01456574971546017	-0.3424700549678359	1.456574971546016	0.162217659137577	-0.3828920570264766	0.7293388429752067
5556.671142578125	0.4732686088225854	-9.806976483147364	-1.77562029408618	-0.3622810739724808	-0.7399471462665556	-0.003776660722940747	0.1396303901437372	-0.3869653767820774	0.7231404958677686
5576.202392578125	0.4019578231303247	-9.74670030385453	-1.731927437677488	-0.3552399075567241	1.848130592509149	-0.7078933022986114	0.1416837782340863	-0.3686354378818737	0.7272727272727273
5595.733642578125	0.3632280028800331	-9.735889612402124	-1.774266762667769	-0.72478526342986	0.7510374409669995	0.0147582270439686	0.1498973305954825	-0.3808553971486761	0.7252066115702479
5615.264892578125	0.5138611448683442	-9.797184896492569	-1.795371495611472	0.003539176164953228	1.108127891596177	-0.3539176164953228	0.1519507186858316	-0.3991853360488798	0.6921487603305785
5634.796142578125	0.3032480810951697	-9.725283120445896	-1.774936036505654	-0.365968993794033	-0.3607872155293249	0.3650153214322821	0.1560574948665298	-0.3890020366598778	0.7458677685950413
5654.327392578125	0.4171994438665627	-9.738438846483145	-1.573314795552089	-0.3476781383428709	-0.7692990468820715	-1.464070223683932	0.1437371663244353	-0.3828920570264766	0.7231404958677686
5673.858642578125	0.2331225883074759	-10.03462369644725	-1.770752943582529	-0.007264281900655208	-0.3571460052755938	0.7264281900655207	0.1642710472279261	-0.4093686354378818	0.7128099173553719
5693.389892578125	0.4896915793732222	-9.884999722669326	-1.989719312440739	-0.3659318078798833	-0.7326091711126765	0.3612967300173071	0.1416837782340863	-0.3869653767820774	0.7231404958677686
5712.921142578125	0.6124202608590733	-9.928650782322233	-1.747342028635772	0	0	0	0.1416837782340863	-0.3849287169042769	0.7169421487603306
5732.452392578125	0.09261924496132223	-9.853386444129173	-1.753974832044074	-0.3622810739724808	-0.7399471462665556	-0.003776660722940747	0.1478439425051335	-0.3930753564154786	0.7272727272727273
5751.983642578125	0.3832454944280194	-9.966083956801606	-1.774849814267309	-0.7244134042883625	-2.967182114866518	-0.02242768710578156	0.1437371663244353	-0.3910386965376782	0.7148760330578513
5771.514892578125	0.5968387457503347	-9.780355472207392	-1.561291525011152	-0.3623554458007803	0.003696764900147988	0.003660522107009284	0.1457905544147844	-0.3890020366598778	0.71900826446281
5791.046142578125	0.316982652769114	-9.694175608937988	-1.899421758970464	0.01084064397975819	1.093451941288418	-1.084064397975818	0.1498973305954825	-0.3828920570264766	0.731404958677686
5810.577392578125	0.30263138179286	-9.945482519886976	-1.754379393095334	-0.3549424202435261	-1.126445052157665	-0.7376420336184115	0.1478439425051335	-0.3665987780040733	0.7148760330578513
5830.108642578125	0.2379741664504539	-10.11305501951435	-1.932472215015129	-0.007375839643104458	0.7583198614744615	0.7375839643104457	0.1519507186858316	-0.3991853360488798	0.7293388429752067
5849.639892578125	0.4150315328920753	-9.695806471031561	-1.834384429735842	0.717335051958456	0.7509263316741656	0.7302629200964272	0.135523613963039	-0.395112016293279	0.7169421487603306
5869.171142578125	0.5475233056344393	-9.936300797844863	-1.917443521147975	0.003650733907402479	-0.007337975153878983	-0.3650733907402479	0.1540041067761807	-0.395112016293279	0.7107438016528926
5888.702392578125	0.3512812282883598	-9.696419069520097	-1.709374276278659	-0.3551655357284246	1.104486681342445	-0.7153304851285613	0.1498973305954825	-0.3869653767820774	0.7210743801652892
5908.233642578125	0.2992371697760562	-9.786579981772409	-1.641238992535204	0.3551283498142748	-0.7326647257590937	0.7190490765435364	0.1704312114989733	-0.3930753564154786	0.7066115702479339
5927.764892578125	0.6810686720697517	-9.616454462697446	-2.035622402325056	-0.003576362079102979	-0.7363059360128246	0.3576362079102978	0.1540041067761807	-0.3747454175152749	0.7252066115702479
5947.296142578125	0.5668823011243328	-9.516708055969799	-1.896076704144424	-0.3551283498142748	0.7326647257590937	-0.7190490765435364	0.1498973305954825	-0.3686354378818737	0.7210743801652892
5966.827392578125	0.5405992392990447	-9.73853957929331	-1.686641309968158	-0.358667525979228	-0.3754631658370828	-0.3651314600482136	0.1416837782340863	-0.3991853360488798	0.731404958677686
5986.358642578125	0.4818211713974549	-9.687544487914822	-1.72737237991516	-0.3658946219657335	-1.104431126696028	0.3575781386023321	0.1581108829568789	-0.3808553971486761	0.7128099173553719
6005.889892578125	0.4700841692027309	-9.788006118624448	-1.669472306757694	0.3550911639001251	-0.3608427701757418	0.7227676679585114	0.1478439425051335	-0.3808553971486761	0.7231404958677686
6025.421142578125	0.3891238532508019	-9.957516620782242	-1.637461775026728	-0.3550911639001251	0.3608427701757418	-0.7227676679585114	0.1806981519507187	-0.3890020366598778	0.7086776859504132
6044.952392578125	0.2245108793800832	-9.904074815667107	-1.817029312669438	-0.3587418978075275	0.3681807453296208	-0.3576942772182636	0.1560574948665298	-0.395112016293279	0.7128099173553719
6064.483642578125	0.3297598421502145	-9.93671098437143	-1.658661405007146	-0.007264281900655208	-0.3571460052755938	0.7264281900655207	0.1560574948665298	-0.3747454175152749	0.7169421487603306
6084.014892578125	0.4701693399503645	-9.774645246749383	-2.005644665012146	-3.718591414975016e-05	0.3718219555833518	0.003718591414975016	0.1498973305954825	-0.3890020366598778	0.7169421487603306
6103.546142578125	0.5317020506434729	-9.628083003625278	-1.723401688115763	-0.0001115577424492505	1.115465866750055	0.01115577424492505	0.1540041067761807	-0.3747454175152749	0.7231404958677686
6123.077392578125	0.4413185378075316	-9.757307006108897	-1.710617926917715	0.7210229717800084	0.3717664009369348	0.3614709379412043	0.1540041067761807	-0.3727087576374745	0.7148760330578513
6142.608642578125	0.4276691368812208	-9.775053645741739	-1.922304562707357	-0.3768096377737912	-1.454239156817743	1.449079719408101	0.1581108829568789	-0.3665987780040733	0.7148760330578513
6162.139892578125	0.5358769945135844	-9.886733105107275	-1.862566483786145	-0.358667525979228	-0.3754631658370828	-0.3651314600482136	0.1519507186858316	-0.3910386965376782	0.7355371900826446
6181.671142578125	0.4082257592617274	-9.998007004505375	-1.607525308724245	-0.003539176164953228	-1.108127891596177	0.3539176164953228	0.1642710472279261	-0.3808553971486761	0.7272727272727273
6201.202392578125	0.311213911853008	-9.846040835167528	-1.707130395100263	-0.3658574360515838	-1.47625308227938	0.3538595471873571	0.1416837782340863	-0.3828920570264766	0.7252066115702479
6220.733642578125	0.3059372685898958	-9.624413616489267	-1.864575619663192	-0.003762291649851729	1.122803841903934	0.3762291649851729	0.1416837782340863	-0.3930753564154786	0.7252066115702479
6240.264892578125	0.2217633341508674	-9.544963188624553	-1.725444471695579	-0.3588534555499768	1.483646612079676	-0.3465385029733385	0.1581108829568789	-0.3706720977596741	0.7169421487603306
6259.796142578125	0.4362358945806958	-9.875617060752242	-1.874529819356525	-0.7174466097009052	0.3645395350758898	-0.7191071458515021	0.162217659137577	-0.3727087576374745	0.7210743801652892
6279.327392578125	0.4906134738545521	-9.728034976787029	-1.687115795151734	-0.007189910072355707	-1.100789916442297	0.7189910072355706	0.1478439425051335	-0.4032586558044806	0.7231404958677686
6298.858642578125	0.6580355051611108	-9.760568519997907	-1.601183505370357	-0.7354399778388695	-2.201524278238178	1.080229667944912	0.1663244353182751	-0.3788187372708757	0.7252066115702479
6318.389892578125	0.6204925550514535	-9.699374073866698	-1.683085168381779	-0.7137215039652034	-0.3864423512446928	-1.0916177194217	0.1519507186858316	-0.3910386965376782	0.7293388429752067
6337.921142578125	0.5732708958148831	-9.637975743686521	-1.775696527162765	-0.3624298176290798	0.7473406760668516	0.01109770493695932	0.1540041067761807	-0.3869653767820774	0.7066115702479339
6357.452392578125	0.4451039043690229	-9.756083070920681	-1.836796812300759	-3.718591414975016e-05	0.3718219555833518	0.003718591414975016	0.1601642710472279	-0.4012219959266802	0.7210743801652892
6376.983642578125	0.5858927274433556	-9.917228018126648	-1.863090914778518	0.3586303400650783	0.7472851214204346	0.3688500514631886	0.1540041067761807	-0.3971486761710794	0.7231404958677686
6396.514892578125	0.1340690088096521	-9.573317687151544	-1.802300293655068	0.358816269635827	-1.111824656496325	0.3502570943883135	0.1498973305954825	-0.3665987780040733	0.7210743801652892
6416.046142578125	0.4309174545618005	-10.11733668969168	-1.697248485393348	-0.365820250137434	-1.848075037862732	0.3501409557723821	0.1581108829568789	-0.3890020366598778	0.7231404958677686
6435.577392578125	0.5140717058833272	-9.727116815097723	-1.802390196110904	0.3514404299927226	-0.3535047950218628	1.087841058698759	0.1519507186858316	-0.3849287169042769	0.7210743801652892
6455.108642578125	0.259365430613048	-9.856138510768448	-1.645514353768267	-0.007301467814804958	0.01467595030775797	0.7301467814804957	0.1540041067761807	-0.3808553971486761	0.7148760330578513
6474.639892578125	0.5734656844691931	-9.767912762021627	-1.782189482306434	-0.0001487436565990006	1.487287822333407	0.01487436565990006	0.1560574948665298	-0.3869653767820774	0.7086776859504132
6494.171142578125	0.332133582431483	-9.835943475013821	-1.73778608104943	-0.7247108916015605	0.007393529800295976	0.007321044214018567	0.1540041067761807	-0.3828920570264766	0.7231404958677686
6513.702392578125	0.4386537974718484	-10.01483527215077	-1.955126582394944	-0.724636519773261	-0.7362503813664076	-0.0001161386159314638	0.1519507186858316	-0.3930753564154786	0.7252066115702479
6533.233642578125	0.5635464468420186	-9.817786648854415	-1.784881561400617	-0.003613547993252729	-0.3644839804294728	0.3613547993252729	0.1519507186858316	-0.3747454175152749	0.7148760330578513
6552.764892578125	0.5239609760252233	-9.657252617751844	-1.798699200840772	3.718591414975016e-05	-0.3718219555833518	-0.003718591414975016	0.1478439425051335	-0.3747454175152749	0.7045454545454546
6572.296142578125	0.2643526510578128	-9.814525976157974	-1.811755035260427	0.3549796061576758	0.7546230965743135	0.7339234422034364	0.1540041067761807	-0.3808553971486761	0.7128099173553719
6591.827392578125	0.4586145085214123	-9.365047975578076	-1.953816950713739	0	0	0	0.1519507186858316	-0.3849287169042769	0.71900826446281
6611.358642578125	0.4631545825411009	-9.726913351645045	-1.771819418036693	-0.36239263171493	0.3755187204834998	0.007379113521984299	0.1519507186858316	-0.3727087576374745	0.7252066115702479
6630.889892578125	0.5990571282789753	-9.716304861856464	-1.968570942632507	-0.7210601576941581	5.555464641699391e-05	-0.3577523465262293	0.1683778234086242	-0.405295315682281	0.7128099173553719
6650.421142578125	0.403780319406076	-9.769444363392035	-1.459343980202533	7.437182829950031e-05	-0.7436439111667036	-0.007437182829950031	0.1560574948665298	-0.3686354378818737	0.7066115702479339
6669.952392578125	0.4642507616078661	-9.826558920413456	-1.8083587202622	-0.362243888058331	-1.111769101849907	-0.007495252137915762	0.1498973305954825	-0.3828920570264766	0.7231404958677686
6689.483642578125	0.6741122723949778	-10.02870369859229	-1.803742413165925	0.362243888058331	1.111769101849907	0.007495252137915762	0.1560574948665298	-0.3727087576374745	0.7148760330578513
6709.014892578125	0.4379882038514528	-9.921717147421363	-2.266273461715092	0.003464804336653728	1.85177180276288	-0.3464804336653728	0.1498973305954825	-0.360488798370672	0.7148760330578513
6728.546142578125	0.3208027185240857	-9.786273787677212	-1.693423950802853	0.3551655357284246	-1.104486681342445	0.7153304851285613	0.1683778234086242	-0.3828920570264766	0.7148760330578513
6748.077392578125	0.4975383288079803	-9.715795940352086	-1.917944293599339	-0.007078352329906457	-2.216255783192353	0.7078352329906457	0.1601642710472279	-0.395112016293279	0.7066115702479339
6767.608642578125	0.4324371215126325	-9.446845330710916	-1.747904050421083	-0.365968993794033	-0.3607872155293249	0.3650153214322821	0.1601642710472279	-0.3686354378818737	0.7086776859504132
6787.139892578125	0.5011636059086418	-9.677957100756208	-1.705453530288058	-0.3624298176290798	0.7473406760668516	0.01109770493695932	0.1540041067761807	-0.3869653767820774	0.7272727272727273
6806.671142578125	0.1028689135445936	-9.813405717953914	-1.76229711815312	0.3622067021441813	1.483591057433259	0.01121384355289078	0.1437371663244353	-0.4012219959266802	0.7231404958677686
6826.202392578125	0.4434659447131442	-9.926612677876083	-1.782198157104804	0.358667525979228	0.3754631658370828	0.3651314600482136	0.1519507186858316	-0.3828920570264766	0.7231404958677686
6845.733642578125	0.08806339858096071	-9.691526167792157	-1.935446619365357	-0.3657086923949848	-2.963540904612787	0.338985181527457	0.1540041067761807	-0.3910386965376782	0.7272727272727273
6865.264892578125	0.5708963669155809	-9.948743508030629	-1.696545563852693	-0.007115538244056207	-1.844433827609001	0.7115538244056206	0.1642710472279261	-0.3788187372708757	0.7045454545454546
6884.796142578125	0.534089986049347	-9.747310904510712	-1.802999534978233	-0.3623182598866305	-0.3681251906832038	-5.806930796573191e-05	0.1478439425051335	-0.3727087576374745	0.7004132231404959
6904.327392578125	0.5209113900891218	-9.72823865053785	-1.697046336304057	-0.0002974873131980013	2.974575644666814	0.02974873131980012	0.1581108829568789	-0.3849287169042769	0.7272727272727273
6923.858642578125	0.1163929242035549	-9.85236628784085	-1.879764140118498	-0.3624298176290798	0.7473406760668516	0.01109770493695932	0.162217659137577	-0.3849287169042769	0.7107438016528926
6943.389892578125	0.4480785715919281	-9.635121261851943	-1.935952386397601	0.3587790837216773	-0.7400027009129726	0.3539756858032885	0.1416837782340863	-0.3971486761710794	0.7128099173553719
6962.921142578125	0.4248056648010594	-9.619312835047658	-1.493522160035309	-0.7247480775157102	0.3792154853836477	0.01103963562899358	0.1478439425051335	-0.3788187372708757	0.7107438016528926
6982.452392578125	0.1880704172814602	-9.595857231745661	-1.602347242715338	-0.3659318078798833	-0.7326091711126765	0.3612967300173071	0.1498973305954825	-0.3890020366598778	0.7169421487603306
7001.983642578125	0.2862943706078905	-9.64409815350345	-1.876479020263015	-0.3695825417872857	-0.7252711959587976	0.726370120757555	0.1498973305954825	-0.3686354378818737	0.737603305785124
7021.514892578125	0.7082578560156967	-9.437663293221592	-1.941928533856555	0.3623554458007803	-0.003696764900147988	-0.003660522107009284	0.1334702258726899	-0.4032586558044806	0.7231404958677686
7041.046142578125	0.2809625240824232	-9.455822117213351	-1.69875080274744	0.003464804336653728	1.85177180276288	-0.3464804336653728	0.1519507186858316	-0.3890020366598778	0.7272727272727273
7060.577392578125	0.5894880370587386	-9.859398868017674	-1.649601235291288	0	0	0	0.1581108829568789	-0.3788187372708757	0.7086776859504132
7080.108642578125	0.4945486778424358	-9.826762594164279	-1.818289261414523	-0.365968993794033	-0.3607872155293249	0.3650153214322821	0.1457905544147844	-0.3971486761710794	0.7293388429752067
7099.639892578125	0.7257367861133829	-9.658678439156672	-1.857892870446092	-0.0001115577424492505	1.115465866750055	0.01115577424492505	0.1478439425051335	-0.3686354378818737	0.7293388429752067
7119.171142578125	0.6871465512550463	-9.811155948427535	-1.571551708501539	-0.3624298176290798	0.7473406760668516	0.01109770493695932	0.1560574948665298	-0.3971486761710794	0.7334710743801653
7138.702392578125	0.1525092642903502	-9.804022004546121	-1.750308809678341	3.718591414975016e-05	-0.3718219555833518	-0.003718591414975016	0.1498973305954825	-0.3849287169042769	0.7231404958677686
7158.233642578125	0.5979199410744607	-9.870005885719257	-1.597331369148684	0.3550167920718256	0.3828011409909618	0.7302048507884614	0.1498973305954825	-0.3706720977596741	0.7148760330578513
7177.764892578125	0.4325562028357128	-9.736806827749787	-1.751873427857091	0.358667525979228	0.3754631658370828	0.3651314600482136	0.1601642710472279	-0.4032586558044806	0.7066115702479339
7197.296142578125	0.2575729018225752	-9.853384761744033	-1.919096727419171	-0.003613547993252729	-0.3644839804294728	0.3613547993252729	0.1601642710472279	-0.3767820773930753	0.7128099173553719
7216.827392578125	0.1619119571054879	-9.970981800535892	-2.063731903516264	0.3550539779859753	0.01097918540760998	0.7264862593734864	0.1560574948665298	-0.3890020366598778	0.71900826446281
7236.358642578125	0.393764870378797	-10.10601602524419	-1.792162345959897	-0.007227095986505457	-0.7289679608589457	0.7227095986505457	0.1663244353182751	-0.3849287169042769	0.731404958677686
7255.889892578125	0.5794591815248876	-9.765974864640286	-1.981972717496253	0.0003346732273477514	-3.346397600250166	-0.03346732273477514	0.1437371663244353	-0.3869653767820774	0.71900826446281
7275.421142578125	0.3288087688016398	-9.863685164754136	-1.96029229338799	-0.003613547993252729	-0.3644839804294728	0.3613547993252729	0.1560574948665298	-0.4073319755600814	0.7272727272727273
7294.952392578125	0.3166971730409349	-9.714267914050097	-1.88990576803116	-1.083527161237388	1.11921818629662	-0.342936050174295	0.1683778234086242	-0.3890020366598778	0.7148760330578513
7314.483642578125	0.1001647423072282	-9.904280066653996	-1.672158076907608	0.0001487436565990006	-1.487287822333407	-0.01487436565990006	0.1457905544147844	-0.395112016293279	0.7231404958677686
7334.014892578125	0.3631239052995921	-9.455923270619799	-1.770796843319735	0.358816269635827	-1.111824656496325	0.3502570943883135	0.1396303901437372	-0.3890020366598778	0.7231404958677686
7353.546142578125	0.38069194923508	-9.946909603080657	-1.689731641169331	-0.00379947756400148	1.494625797487286	0.3799477564001479	0.1560574948665298	-0.3808553971486761	0.7272727272727273
7373.077392578125	0.3108085621837149	-9.786171898227266	-1.693618739457163	-0.358816269635827	1.111824656496325	-0.3502570943883135	0.1601642710472279	-0.4032586558044806	0.7252066115702479
7392.608642578125	0.3465936826963797	-9.937934709261503	-1.55312275654599	-0.724636519773261	-0.7362503813664076	-0.0001161386159314638	0.1560574948665298	-0.3747454175152749	0.7024793388429752
7412.139892578125	0.4216448837222141	-9.967001487596484	-1.721496124073801	-0.3695081699589862	-1.468915107125501	0.7189329379276049	0.1519507186858316	-0.3930753564154786	0.7210743801652892
7431.671142578125	0.4128825487503953	-9.946501309237371	-1.762751625013177	0.0001115577424492505	-1.115465866750055	-0.01115577424492505	0.1396303901437372	-0.395112016293279	0.7045454545454546
7451.202392578125	0.5019293540193102	-9.767709508867091	-1.730978467310337	-0.7138330617076526	0.7290235155053626	-1.080461945176775	0.1457905544147844	-0.3930753564154786	0.737603305785124
7470.733642578125	0.419347639390209	-9.697744263263832	-1.644921313006966	-0.3587790837216773	0.7400027009129726	-0.3539756858032885	0.1560574948665298	-0.3890020366598778	0.7066115702479339
7490.264892578125	0.3570200017191874	-9.524563532777462	-1.90066672397291	0.7172606801301565	1.494570242840869	0.7377001029263772	0.1540041067761807	-0.4114052953156823	0.7396694214876033
7509.796142578125	0.3955242772118568	-9.595447150368166	-1.850809240395224	-0.003687919821552229	0.3791599307372308	0.3687919821552229	0.1704312114989733	-0.3930753564154786	0.7004132231404959
7529.327392578125	0.2397982399622725	-9.715798569078865	-1.65994133207575	-0.3624298176290798	0.7473406760668516	0.01109770493695932	0.1478439425051335	-0.3890020366598778	0.7107438016528926
7548.858642578125	0.8128601519982399	-9.670508550853905	-1.762005066607993	-0.36239263171493	0.3755187204834998	0.007379113521984299	0.1478439425051335	-0.405295315682281	0.731404958677686
7568.389892578125	0.6693663690685081	-9.810238207334516	-1.645545635616934	0.3549796061576758	0.7546230965743135	0.7339234422034364	0.1478439425051335	-0.3930753564154786	0.7210743801652892
7587.921142578125	0.4513371413069452	-9.914067657644088	-2.044571376898171	0.003613547993252729	0.3644839804294728	-0.3613547993252729	0.1540041067761807	-0.4012219959266802	0.7231404958677686
7607.452392578125	0.2984659013391524	-9.833496025233673	-1.948863377971743	-0.7209485999517089	-1.115410312103638	-0.3689081207711543	0.1519507186858316	-0.3930753564154786	0.7086776859504132
7626.983642578125	0.4181252814380608	-9.864806159001693	-1.937509381268692	-1.08315530209589	-2.599001369536898	-0.3801219643240451	0.1457905544147844	-0.3890020366598778	0.71900826446281
7646.514892578125	0.6069338451990118	-9.567091390052319	-1.897794839967057	-0.007264281900655208	-0.3571460052755938	0.7264281900655207	0.1601642710472279	-0.3869653767820774	0.7045454545454546
7666.046142578125	0.5377854501550029	-9.686116037783217	-1.926181671833429	-0.7247480775157102	0.3792154853836477	0.01103963562899358	0.1457905544147844	-0.3808553971486761	0.6983471074380165
7685.577392578125	0.4300925600986089	-9.777603405568117	-1.66975200328696	0.3623182598866305	0.3681251906832038	5.806930796573191e-05	0.1540041067761807	-0.395112016293279	0.7045454545454546
7705.108642578125	0.4388241389671155	-9.988113528400632	-1.627471298903847	-0.7245993338591113	-1.108072336949759	-0.003834730030906479	0.1560574948665298	-0.3808553971486761	0.7004132231404959
7724.639892578125	0.4617571513854837	-9.847365187718694	-1.72523837951612	-0.007003980501606956	-2.959899694359057	0.7003980501606956	0.1478439425051335	-0.3808553971486761	0.7128099173553719
7744.171142578125	0.6136378871030196	-9.688257083170024	-1.787929570100651	-0.731789243931467	-2.208862253392057	0.7151562772046642	0.1334702258726899	-0.3869653767820774	0.7231404958677686
7763.702392578125	0.5380456941061054	-9.719365225572359	-1.60152313687018	-0.7245621479449615	-1.479894292533111	-0.007553321445881495	0.1704312114989733	-0.3808553971486761	0.7169421487603306
7783.233642578125	0.3013396254537511	-9.925900187769953	-1.71132084845837	-1.804475761189096	0.003807874192981977	-0.7118441709454493	0.1601642710472279	-0.3828920570264766	0.7066115702479339
7802.764892578125	0.3179889293800437	-9.733850246167121	-1.932964312668124	-0.3661549233647818	1.498322562387434	0.3836082785071572	0.1498973305954825	-0.3910386965376782	0.7272727272727273
7822.296142578125	0.651931601580706	-9.829208782155572	-1.731053386023533	0	0	0	0.1314168377823409	-0.4114052953156823	0.7107438016528926
7841.827392578125	0.3889748044424432	-9.647564813230277	-1.63249348141477	-0.3551655357284246	1.104486681342445	-0.7153304851285613	0.1663244353182751	-0.3910386965376782	0.7252066115702479
7861.358642578125	0.4470722949809983	-9.595446624622809	-1.902409832699941	-0.7211345295224576	0.7436994658131205	-0.3503151636962792	0.1581108829568789	-0.3767820773930753	0.7148760330578513
7880.889892578125	0.5363730352567465	-9.79657271860032	-1.879101175224881	-0.3730473461239395	-2.577042998721678	1.072850554422928	0.1540041067761807	-0.4012219959266802	0.71900826446281
7900.421142578125	0.5194934548646298	-9.975363782927102	-1.983115162154326	-0.02175565978781587	-1.443259971410133	2.175565978781587	0.1437371663244353	-0.3645621181262729	0.6983471074380165
7919.952392578125	0.7571056456376412	-9.811869174577163	-1.570188187921368	-0.3588906414641265	1.855468567663028	-0.3428199115583635	0.1396303901437372	-0.405295315682281	0.7272727272727273
7939.483642578125	0.2289626281800037	-9.785968750221798	-1.632087606000121	-0.3592253146914743	5.201866167913194	-0.3093525888235883	0.1396303901437372	-0.3971486761710794	0.7148760330578513
7959.014892578125	0.04916796854360387	-9.780769023504234	-1.972265618120129	-0.362541375371529	1.862806542816907	0.02225347918188436	0.1642710472279261	-0.4032586558044806	0.7045454545454546
7978.546142578125	0.409923653888163	-9.86745801857616	-1.664121796272097	0.3551283498142748	-0.7326647257590937	0.7190490765435364	0.1457905544147844	-0.3971486761710794	0.7272727272727273
7998.077392578125	0.1830926602530991	-9.784133373184831	-1.769755341769969	-0.7355515355813188	-1.086058411488122	1.091385442189837	0.1437371663244353	-0.395112016293279	0.7210743801652892
8017.608642578125	0.4960415317801239	-9.629613238057761	-1.534717726004128	-0.3659318078798833	-0.7326091711126765	0.3612967300173071	0.1601642710472279	-0.3828920570264766	0.7086776859504132
8037.139892578125	0.4561548088744766	-9.689176611797253	-1.538493629149215	-0.0001859295707487508	1.859109777916759	0.01859295707487508	0.1519507186858316	-0.3849287169042769	0.7210743801652892
8056.671142578125	0.3610545715793102	-9.829925688522691	-1.368485719310338	1.075891020195235	2.241855364261304	1.106550154389566	0.1601642710472279	-0.3727087576374745	0.7024793388429752
8076.202392578125	-1.799429198267249	-9.415148774106411	-0.6856933910917181	9.000362844758618	1.140454346708419	5.760816973413659	0.1478439425051335	-0.4012219959266802	0.7004132231404959
8095.733642578125	0.8576134367895045	-9.699371655438059	-0.9204478929834814	8.326204439148444	6.622445558104687	0.7128894184888325	0.1478439425051335	-0.3767820773930753	0.7004132231404959
8115.264892578125	0.05121127786877554	-9.670108353489097	-1.040375928959185	7.244499387704396	-10.47761207918293	0.1877423889807618	0.1519507186858316	-0.3971486761710794	0.7086776859504132
8134.796142578125	0.7729379412810785	-9.846750065652451	-1.097931376035948	7.239807448200801	-0.0592593476952018	0.65693633934031	0.1601642710472279	-0.3971486761710794	0.6756198347107438
8154.327392578125	-0.07292508680713007	-9.810245778067639	-0.9024971064289982	9.775737780094016	5.492192631754039	0.6870915558158703	0.1786447638603696	-0.4093686354378818	0.6859504132231405
8173.858642578125	0.3298749803831265	-9.943340423009454	-0.9958326794375471	13.03425289216153	-4.20111112236056	0.9225368708036842	0.1581108829568789	-0.4114052953156823	0.6756198347107438
8193.389892578125	0.3200164663445425	-9.823194675881933	-1.000548878151416	14.47246217224339	-1.591130567416053	2.029145094501216	0.162217659137577	-0.4175152749490835	0.6590909090909091
8212.921142578125	0.5811010842709345	-9.878777316085731	-0.7033694756978152	16.63899589192008	1.375940438157632	2.767077474659456	0.2053388090349076	-0.4399185336048879	0.6446280991735538
8232.452392578125	0.7920966277904266	-9.433888757014429	-0.4032209263475445	19.54462032334303	6.537197746815615	2.059706796132536	0.1683778234086242	-0.4419551934826884	0.6487603305785125
8251.983642578125	0.8076994355860735	-9.245510515827169	-0.2566478528691107	23.18579629034729	12.78451346696172	0.2609506754157793	0.1909650924024641	-0.4643584521384928	0.615702479338843
8271.514892578125	0.8895642964225922	-9.539040877490027	0.01452345258026618	27.20035427670285	18.26247458557934	-2.644123322458681	0.1971252566735113	-0.4643584521384928	0.6074380165289256
8291.046142578125	0.1923959871959976	-9.744458630806628	0.2534670934667465	29.74116247767041	11.53646405562409	-3.101755013417544	0.1848049281314169	-0.4887983706720977	0.597107438016529
8310.577392578125	-0.08353199935964217	-10.31367534645962	0.4510666453214052	32.63735932985129	1.475035110826287	-2.866367767737696	0.2197125256673511	-0.4867617107942973	0.5640495867768596
8330.108642578125	0.09983746582326598	-10.38771921938381	0.672084472557801	36.60568491057756	-5.221734627806279	-1.148201202683109	0.2176591375770021	-0.5193482688391038	0.5475206611570248
8349.639892578125	0.252934250548681	-10.40821792565593	0.5688583150439668	40.56600249112018	-4.839211260047402	1.370765380736499	0.242299794661191	-0.5173116089613035	0.5599173553719008
8369.171142578125	0.4871561723950567	-10.36915283759227	0.4281275868314458	44.17432185295782	1.474146236483615	2.857669776681973	0.2279260780287475	-0.5580448065173116	0.5309917355371901
8388.702392578125	0.08606819495584135	-10.32550461696428	0.4643935014719555	47.06180417258621	5.556627554160938	3.964510277611368	0.2464065708418891	-0.5723014256619144	0.4979338842975207
8408.233642578125	-0.1770542119694868	-10.24391419520347	0.5684737323162263	48.86288950126695	2.957403966038372	5.01539769939224	0.2648870636550308	-0.5824847250509164	0.5247933884297521
8427.764892578125	-0.6957393333496316	-10.35162238444972	0.8579777783210478	51.01589867682436	-4.829009839689629	7.105784491477196	0.2546201232032854	-0.6171079429735233	0.5
8447.296142578125	-0.2104316816254364	-10.29470624372556	0.6810560541812133	52.45127531311012	-10.39177433242498	8.495657094785525	0.2525667351129364	-0.6374745417515274	0.481404958677686
8466.827392578125	0.1772679274566044	-10.17935003678903	0.7577357514465226	54.97669967425092	-9.280171894514325	9.576409386502128	0.2874743326488706	-0.670061099796334	0.4855371900826446
8486.358642578125	0.09124468372868072	-10.55049755226106	0.95851054237731	57.50912801589334	-5.208669762244614	9.956763628058036	0.2956878850102669	-0.6924643584521384	0.4690082644628099
8505.889892578125	-0.08470940608387269	-10.51072270796712	1.156980202795756	60.39683345100662	-3.357120178067401	11.04129258049758	0.2813141683778234	-0.7270875763747453	0.4731404958677686
8525.421142578125	0.177246634769696	-10.51602358809113	1.425112174343469	61.48434601937876	-7.830073939768066	10.98568791719685	0.2895277207392197	-0.7046843177189409	0.4772727272727273
8544.952392578125	0.0514289364460613	-10.37670464388244	1.619035451797957	65.07426296802279	0.007261254865752208	14.31283363250347	0.2874743326488706	-0.755600814663951	0.481404958677686
8564.483642578125	-0.3178682708208962	-10.13611074089876	1.928942360696539	68.67952657057943	0.378805437217019	16.10531395654959	0.2792607802874744	-0.7637474541751527	0.5165289256198348
8584.014892578125	-0.2261086195162459	-10.22310845364359	2.536953983874864	71.20535997677588	-2.599633636289195	17.14516174270146	0.2792607802874744	-0.7739307535641547	0.5227272727272727
8603.546142578125	-0.1931388653836903	-10.74244823314073	2.437962179456342	74.82153859514059	-1.878281423816212	17.84614048594182	0.3080082135523614	-0.7963340122199591	0.4958677685950413
8623.077392578125	-0.1996078991136722	-10.70787322071342	2.98692997045574	78.80715101163598	1.055629806948974	17.83562347408452	0.3039014373716633	-0.8228105906313645	0.5330578512396694
8642.608642578125	-0.2397051830343025	-10.83750467584776	2.990172767810084	80.25594063429855	7.361815992265362	17.88419743971106	0.2813141683778234	-0.8126272912423624	0.5557851239669421
8662.139892578125	-0.521958674837801	-10.48543330486422	3.065289161260033	83.14297672295714	15.90616077694291	19.03566103762015	0.2895277207392197	-0.8492871690427698	0.5702479338842975
8681.671142578125	-1.166346356308668	-10.4604519885398	3.211545210288941	82.77376604031134	11.46267002515059	19.72484524422795	0.271047227926078	-0.8391038696537677	0.5909090909090909
8701.202392578125	-1.162810981663842	-10.36264221740464	3.42703272212807	83.12274568564946	-0.7817993733846501	21.05876476838776	0.2669404517453799	-0.8594704684317718	0.6322314049586777
8720.733642578125	-0.5152775028567689	-10.02993972592369	3.509250095225627	84.20306834394924	-6.355543051527613	21.7221511123226	0.2587268993839836	-0.8350305498981669	0.6301652892561984
8740.264892578125	-0.5050278342734975	-9.989958999748431	3.500927809116582	85.27921966554354	-6.716441376349772	22.80267112680734	0.2505133470225873	-0.8452138492871689	0.6508264462809917
8759.796142578125	-0.2904732575681701	-9.813919686613708	3.682441918939003	85.63397615621629	-3.730886546275348	23.55890611750063	0.2648870636550308	-0.8391038696537677	0.6756198347107438
8779.327392578125	-1.027842159677802	-9.659002298295823	3.928071989260074	84.19207895631288	-5.961707170482625	22.82108987595832	0.2648870636550308	-0.8167006109979633	0.7045454545454546
8798.858642578125	-0.8575487701107457	-9.080607435669142	3.918292337024854	83.10910958378774	-10.41981831793628	22.4223749545594	0.2484599589322382	-0.8329938900203665	0.7396694214876033
8818.389892578125	-0.7277564368975452	-9.485307914596872	4.258547896584837	81.30120620417614	-12.63960420208953	22.05329262586435	0.2361396303901437	-0.8187372708757636	0.75
8837.921142578125	-0.4758883979303509	-9.147203915330813	4.196279931011694	79.4892430456015	-10.76201059967203	22.09018819347427	0.2340862422997947	-0.8207739307535641	0.7789256198347108
8857.452392578125	-0.6372325500516151	-9.309371857850021	4.574418335053835	77.68074469136351	-7.032645194491653	21.78060332741882	0.2443531827515401	-0.8126272912423624	0.8119834710743802
8876.983642578125	-1.14040949780015	-9.095399070955381	4.680316593338333	78.76404873711598	-5.920931647288162	22.14585092608297	0.2340862422997947	-0.7922606924643584	0.8181818181818182
8896.514892578125	-1.087337869990008	-8.708239244630102	4.911262333000273	79.51125900678835	-11.92150431734536	19.88859207478786	0.2320328542094456	-0.7780040733197555	0.8326446280991736
8916.046142578125	-0.9143821059413695	-8.502316880921041	5.146070198045646	78.08374162702965	-11.95074510866804	17.71279381877441	0.215605749486653	-0.7494908350305498	0.878099173553719
8935.577392578125	-0.8701840082457902	-8.371359495999473	5.006133608193005	75.93456911495039	-6.030779056010679	15.23874067887433	0.2381930184804928	-0.7596741344195519	0.8925619834710744
8955.108642578125	-1.422139347229309	-7.969825055604144	5.404644907643627	72.68406200306653	-3.416768408287521	14.2024953455215	0.2073921971252567	-0.7270875763747453	0.9173553719008265
8974.639892578125	-1.205392412390451	-7.993076880006247	5.513080413015036	70.87589832205589	-3.033800603357309	13.85944315673127	0.2176591375770021	-0.7189409368635438	0.9380165289256198
8994.171142578125	-0.8344611885577834	-7.779809117633683	5.815372951926107	69.0708275862404	2.919158560169302	13.20709644842542	0.215605749486653	-0.7067209775967412	0.9710743801652892
9013.702392578125	-1.164863754405418	-7.659972613924419	6.16212514684725	69.06669343544905	7.760181957906755	13.62051152756034	0.2238193018480493	-0.6822810590631364	0.9896694214876033
9033.233642578125	-1.55248134721196	-7.268635635598534	6.416044907065308	68.34239158890313	3.67753397629018	13.58692806620964	0.2073921971252567	-0.6680244399185336	1.014462809917355
9052.764892578125	-1.760175735642618	-7.319123487857779	6.672524521420574	69.42677402616596	-5.993589188423532	13.84433651383951	0.1848049281314169	-0.6435845213849286	1
9072.296142578125	-1.426486209830755	-6.824563874511944	6.882873661025156	67.98156076558249	-11.5634694377271	13.43812634030267	0.1930184804928131	-0.6415478615071283	1.041322314049587
9091.827392578125	-0.9272444660701035	-6.939809044029333	6.908148869003447	66.54309118410157	-11.57069630358814	12.35754825650996	0.2012320328542095	-0.5987780040733197	1.051652892561983
9111.358642578125	-1.034786730082072	-6.921247709393203	7.159557669402382	66.54279369678838	-8.596120658921327	12.38729698782976	0.1950718685831622	-0.5763747454175152	1.082644628099174
9130.889892578125	-1.244372224557408	-6.552347019273562	7.479074151913594	66.176490029767	-5.610510274200484	12.78577963199682	0.1950718685831622	-0.5865580448065173	1.074380165289256
9150.421142578125	-1.422584127800284	-6.409968867988758	7.419470926676135	65.46291726945839	-7.484240447778585	11.67928754691522	0.1909650924024641	-0.5682281059063136	1.080578512396694
9169.952392578125	-1.493183580026198	-6.262796024208471	7.772786000873262	65.09702264749265	-8.588671574474613	12.03686568551755	0.1806981519507187	-0.5234215885947047	1.105371900826446
9189.483642578125	-1.182207042201317	-5.985580276978427	7.740234740043894	64.73131395509768	-11.5522124790874	12.37585086704501	0.1950718685831622	-0.5050916496945009	1.109504132231405
9209.014892578125	-1.229607717731525	-5.594239828733193	7.653590591050815	64.73854105108418	-10.82324451822845	11.65314126839447	0.2094455852156057	-0.4725050916496945	1.138429752066116
9228.546142578125	-1.261452902548104	-5.614536438490553	7.715096751603457	64.3868403196924	-7.866986034123129	10.59133034960053	0.1909650924024641	-0.460285132382892	1.146694214876033
9248.077392578125	-1.229060416816176	-5.18739620143723	7.968680560539183	64.74915857957905	-7.498860843439926	10.5913884189085	0.1971252566735113	-0.4378818737270875	1.175619834710744
9267.608642578125	-1.287372411459882	-5.026250413038696	7.912413715329394	64.39764377775802	-6.401712137251359	9.510984543039687	0.2053388090349076	-0.4276985743380855	1.161157024793388
9287.139892578125	-1.177331016899296	-4.887337028797439	7.911033896643194	64.73772296097289	-2.643161495394715	11.73495027952391	0.1991786447638604	-0.3767820773930753	1.181818181818182
9306.671142578125	-1.395655187805442	-4.864595177390426	7.855172926848054	63.65780934772874	-1.159459328668622	11.03065943002435	0.1909650924024641	-0.3767820773930753	1.18595041322314
9326.202392578125	-1.289217777658609	-4.426847081442951	7.973925921953628	62.20112328262497	-1.501818274343624	11.77172970851791	0.1724845995893224	-0.340122199592668	1.190082644628099
9345.733642578125	-1.542540028279843	-4.005421275810483	8.08466760932809	60.03105038678334	-5.577017171513485	11.38771494485499	0.1868583162217659	-0.3360488798370672	1.206611570247934
9365.264892578125	-1.363711425734657	-3.927600027654206	8.123714191155228	58.57455025125032	-7.778485895105245	12.11019226627367	0.1827515400410678	-0.2973523421588594	1.21900826446281
9384.796142578125	-1.229440530708392	-3.74085243826238	8.314684356946398	56.40417986809548	-8.879109147608293	11.75592623393055	0.1806981519507187	-0.2688391038696538	1.214876033057851
9404.327392578125	-0.8428378893111501	-3.735850917543938	8.427929643705001	54.97316049808597	-10.3882997861105	9.930327002997451	0.1909650924024641	-0.2484725050916497	1.231404958677686
9423.858642578125	-1.143097108058809	-3.442934731605681	8.43657026862696	52.80621773335365	-9.265329280267316	9.233299128403937	0.1745379876796715	-0.2281059063136456	1.239669421487603
9443.389892578125	-1.006152009280457	-3.145322483000681	8.538400309348567	52.44378791572457	-8.517988604200465	9.244396833340895	0.1930184804928131	-0.1934826883910387	1.254132231404959
9462.921142578125	-0.884003750667368	-3.082494546049116	8.133458355578933	50.28779735271445	-7.417032023818917	7.452148786526637	0.2114989733059548	-0.1771894093686354	1.260330578512397
9482.452392578125	-1.035563518845211	-3.104832204426618	8.518783961507028	48.48335877743951	-7.785046105209286	6.736586024166213	0.1930184804928131	-0.1608961303462322	1.258264462809917
9501.983642578125	-1.123466039347308	-2.573254019388963	8.448867978243605	46.32017830435703	-7.784879441270036	5.663328984587525	0.1848049281314169	-0.1568228105906314	1.245867768595041
9521.514892578125	-1.212286511240567	-2.48197263863445	8.409550374685571	45.58816594494066	-7.762809961161982	6.400796810282039	0.2135523613963039	-0.1425661914460285	1.260330578512397
9541.046142578125	-0.9423039160405698	-2.438011599519784	8.743463868018988	43.77992789210172	-6.636198245065065	6.065181804321763	0.2197125256673511	-0.08961303462321792	1.268595041322314
9560.577392578125	-0.8122142738286854	-2.339282615204608	8.740475794289511	42.3380306921983	-8.867018869272343	5.327365562779454	0.2012320328542095	-0.07942973523421588	1.270661157024793
9580.108642578125	-1.034288323484809	-2.201086557926755	9.142944116160281	40.90298872913989	-6.650651976787155	3.90402563673635	0.2032854209445585	-0.06517311608961303	1.268595041322314
9599.639892578125	-1.232833165489129	-1.828616056841485	9.094438849637616	39.10227525960065	-7.769647944498107	2.815952300805728	0.2197125256673511	-0.06109979633401221	1.264462809917355
9619.171142578125	-0.9041087788170888	-2.162328505150859	9.136959293902956	38.38490302172804	-8.148752320588923	2.089407972124276	0.215605749486653	-0.03054989816700611	1.291322314049587
9638.702392578125	-0.9224078716697648	-1.674911878506557	9.413595722325487	38.02984904374206	-8.159731505996531	1.362921712750789	0.2238193018480493	-0.02240325865580448	1.274793388429752
9658.233642578125	-1.170148283848866	-1.538347945111133	9.004942794962203	37.30126430274819	-5.914068267542246	1.757627696194906	0.2094455852156057	0.006109979633401222	1.272727272727273
9677.764892578125	-0.7486461399907417	-1.515395585263673	9.288204666358054	37.66350819080653	-4.802299165692339	1.765122948332821	0.2114989733059548	0.01832993890020367	1.264462809917355
9697.296142578125	-0.7805954223877619	-1.25572585323871	9.35318074625873	37.29727889561345	-2.560332692138201	2.156168409669929	0.2279260780287475	0.03054989816700611	1.274793388429752
9716.827392578125	-1.128062893865419	-1.331407002349819	9.268763128847306	36.19907442691815	-0.6681186940593608	3.280963105286575	0.2032854209445585	0.04887983706720977	1.289256198347108
9736.358642578125	-0.8623759010946808	-1.15883487468728	8.74586336982269	34.75725159884303	-3.642583229433341	2.535709680914317	0.2258726899383984	0.05295315682281058	1.274793388429752
9755.889892578125	-1.087384398453993	-1.098254288833458	8.912813281799773	34.38398113723419	-3.988694494654908	3.630871783827094	0.215605749486653	0.08553971486761711	1.301652892561983
9775.421142578125	-1.043606634170346	-0.8974328117150786	8.786887805678207	34.02483019437102	0.4695277620915825	3.314082012173556	0.2258726899383984	0.09572301425661914	1.278925619834711
9794.952392578125	-1.115952875340782	-0.5674914296935194	8.865095844692718	31.48074311863756	3.484656711367191	4.099601179722917	0.2320328542094456	0.1018329938900204	1.285123966942149
9814.483642578125	-1.210546819858349	-0.5547434717541994	8.68489399527828	30.02401986761963	3.51411972127554	4.84439004963145	0.2340862422997947	0.1486761710794297	1.274793388429752
9834.014892578125	-0.9451042986780397	-0.1489170565725661	8.836809955934653	26.76330427229655	-1.286294817206701	4.828993060199858	0.2217659137577002	0.1344195519348269	1.270661157024793
9853.546142578125	-1.047945610591456	-0.3188357474245707	8.931520353048521	24.21291974843033	-8.295682718373833	6.244257041025389	0.2012320328542095	0.1384928716904277	1.278925619834711
9873.077392578125	-1.149133979106354	-0.3282199865777211	8.97113263687846	21.68801599008762	-14.61279253445141	5.111444469499135	0.2217659137577002	0.1547861507128309	1.301652892561983
9892.608642578125	-0.7312161042111415	-0.08975987369493574	8.707203473704714	19.51421798851029	-17.93700954530069	5.099940279406415	0.215605749486653	0.1608961303462322	1.256198347107438
9912.139892578125	-0.5950990543681159	-0.2924153609123575	8.836635145603861	18.4267426060523	-13.83587773918338	5.151826351292168	0.2443531827515401	0.1792260692464358	1.272727272727273
9931.671142578125	-0.6831222334293607	0.1091238111911734	8.770741114312024	16.25950235400677	-9.738331588673379	4.484547208018454	0.2628336755646817	0.1731160896130346	1.260330578512397
9951.202392578125	-0.5906062974304459	0.07903729716415583	8.686876581014861	14.44362816012567	-5.250646322018539	4.912546306273448	0.2525667351129364	0.1914460285132383	1.252066115702479
9970.733642578125	-0.7608523699154839	0.1006577337273269	8.695078997182794	11.90691692403531	-2.993837234217392	4.960481509512364	0.2833675564681725	0.1873727087576375	1.272727272727273
9990.264892578125	-0.8627157954671814	0.3310552261322781	8.757193182239375	9.740457576186934	-6.70455215095778	4.215111946524173	0.2566735112936345	0.2016293279022403	1.260330578512397
10009.79614257812	-0.8999283146207419	0.3823565116059602	8.664277154024726	7.56647364503885	-8.1696593838903	4.222200713506329	0.2546201232032854	0.2077393075356415	1.276859504132231
10029.32739257812	-0.7988550843387556	0.3983701893971357	8.961836144625186	5.388764608155065	-8.883784730502237	4.601800054058683	0.2607802874743327	0.2077393075356415	1.25
10048.85864257812	-0.6283984508387347	0.4468178342288092	8.946615027957824	3.580638113058567	-8.872638881155376	4.255029273853481	0.2895277207392197	0.2158859470468432	1.270661157024793
10068.38989257812	-0.93830246813786	0.4366155353020919	9.276748937928662	1.036662595067551	-6.972975798629822	5.029392667157917	0.2854209445585216	0.2097759674134419	1.264462809917355
10087.92114257812	-1.02428391511	0.5288148674477666	9.142797170333345	-1.488836137901553	-7.340934325373775	3.956077558271264	0.2915811088295688	0.2118126272912423	1.264462809917355
10107.45239257812	-0.6342720779533154	0.3649186947950947	9.142402598443846	-1.488464278760056	-11.05915388120729	3.918891644121513	0.297741273100616	0.2118126272912423	1.243801652892562
10126.98364257812	-0.4957765561208194	0.189698913520935	9.525885204027315	-2.923245940419417	-11.44554067780557	2.469521578173584	0.2936344969199179	0.1995926680244399	1.262396694214876
10146.51489257812	-0.1688431210031852	0.2787407242089701	9.294770700106174	-1.488650208330805	-9.200044103290535	3.937484601196388	0.3080082135523614	0.2138492871690428	1.262396694214876
10166.04614257812	-0.1490196294914754	0.3884836531310896	9.300654316382515	-2.576199962617093	-4.355268386006517	3.996807855912091	0.3182751540041068	0.2016293279022403	1.260330578512397
10185.57739257812	-0.5007077846851955	0.3914378162851201	9.356926156173182	-2.927826322180564	-2.142653813067895	2.927559754288207	0.2997946611909651	0.1934826883910387	1.258264462809917
10205.10864257812	-0.449565116585347	0.4513072789707378	9.318837219511567	-3.641622197974066	-1.785452253145884	1.843379217696457	0.2956878850102669	0.2260692464358452	1.264462809917355
10224.63989257812	-0.5386474096657758	0.1558373375413992	9.954913655525859	-2.927640392609815	-4.001763590984654	2.908966797213332	0.297741273100616	0.2016293279022403	1.25
10244.17114257812	-0.3479974227962661	0.137480833295874	9.599914093208868	-2.912963085151905	-4.774759402766874	1.441236051422391	0.2895277207392197	0.219959266802444	1.270661157024793
10263.70239257812	-0.2272718311158708	0.02651544127253508	9.575727703862361	-3.257213605072272	-3.320464691302713	-0.3655960145119395	0.3039014373716633	0.2077393075356415	1.272727272727273
10283.23364257812	-0.1964281912020195	0.01315488484468036	9.880939706733983	-2.181248213048738	-1.822253238208113	0.7335169570476764	0.2956878850102669	0.1955193482688391	1.260330578512397
10302.76489257812	-0.3037354470399616	-0.0548744612095876	9.79118156799872	-2.177485921398886	-2.945057080112047	0.3572877920625034	0.3121149897330596	0.2016293279022403	1.270661157024793
10322.29614257812	-0.5657309187952125	0.1170803362562146	9.857697293173748	-2.181099469392139	-3.309541060541521	0.7186425913877763	0.2997946611909651	0.1792260692464358	1.264462809917355
10341.82739257812	-0.2606343170291812	-0.03427176250610194	9.687810567639374	-2.535967517807365	-5.179630023865889	-0.02643662506058523	0.3080082135523614	0.2077393075356415	1.258264462809917
10361.35864257812	-0.2897453631231167	0.0163156659235256	9.658178770770556	-2.532353969814113	-4.815146043436417	-0.3877914243858581	0.3162217659137577	0.1894093686354379	1.262396694214876
10380.88989257812	-0.3219052065351199	0.2059173165536445	9.730173551170664	-1.796765248318644	-4.100909587531645	-1.48289545799067	0.2936344969199179	0.1934826883910387	1.270661157024793
10400.42114257812	-0.2364789466586648	0.2735384739136984	9.882631555288826	-0.7210601576941581	5.555464641699391e-05	-0.3577523465262293	0.3121149897330596	0.1832993890020367	1.25
10419.95239257812	-0.3140750180790684	-0.03488425584556547	9.802500602635613	-1.079839241415835	0.7400582555593896	-0.7117280323295179	0.3182751540041068	0.2138492871690428	1.243801652892562
10439.48364257812	-0.1104364921954416	-0.0157077991431928	9.68121640651472	0.366117737450632	-1.126500606804082	-0.3798896870921822	0.2997946611909651	0.2057026476578411	1.258264462809917
10459.01489257812	-0.4765539915507464	0.2792475427319254	9.551799718358213	0.7357374651520675	-0.7730513664286365	-1.109978399264712	0.3121149897330596	0.1955193482688391	1.270661157024793
10478.54614257812	-0.5521312008050213	0.2381442450730431	9.737706693500709	0.3622810739724808	0.7399471462665556	0.003776660722940747	0.3162217659137577	0.2016293279022403	1.243801652892562
10498.07739257812	-0.6484829749195807	0.1603238381093356	9.616099163986021	0.72478526342986	-0.7510374409669995	-0.0147582270439686	0.3182751540041068	0.1975560081466395	1.256198347107438
10517.60864257812	-0.3893706906953324	0.2274368100085092	9.645689689844414	0.728361625508963	-0.01473150495417496	-0.3723944349542664	0.3100616016427105	0.2016293279022403	1.266528925619835
10537.13989257812	-0.5321570832488854	0.4579358764161938	9.738569441629515	1.079653311845087	1.11905152235737	0.7303209894043929	0.3121149897330596	0.2036659877800407	1.260330578512397
10556.67114257812	-0.4483892870971838	0.2283541305052439	9.612976236572791	-0.0001115577424492505	1.115465866750055	0.01115577424492505	0.3223819301848049	0.1894093686354379	1.270661157024793
10576.20239257812	-0.2588512516551121	0.1096380952981804	9.29504172183707	-0.0001859295707487508	1.859109777916759	0.01859295707487508	0.3305954825462012	0.2077393075356415	1.260330578512397
10595.73364257812	-0.2121098608010309	0.158084478341	9.40366202670103	-0.7286962987363107	3.361129105204341	0.4058617576890415	0.3203285420944559	0.2016293279022403	1.256198347107438
10615.26489257812	-0.7822830649797602	0.0103951423232109	9.742768832658671	-2.17040756906898	-0.7288012969196946	-0.3505474409281422	0.297741273100616	0.1934826883910387	1.237603305785124
10634.79614257812	-0.4190534848636598	0.02783937322741667	9.635116162121992	-2.17029601132653	-1.84426716366975	-0.3617032151730672	0.324435318275154	0.2036659877800407	1.268595041322314
10654.32739257812	-0.3854197143467759	0.3287142923612091	9.51399047822586	-1.452849401625625	-2.20880669874564	0.3574039306784349	0.2915811088295688	0.2016293279022403	1.262396694214876
10673.85864257812	-0.3456244711330312	0.02824808766698658	9.520815704434373	-2.173909559319783	-2.208751144099223	-0.000348415847794388	0.3059548254620124	0.1812627291242362	1.258264462809917
10693.38989257812	-0.3727931510101014	-0.02386978549326613	9.759771700336714	-1.463875975176132	-1.443148862117299	1.460061285729128	0.3264887063655031	0.1934826883910387	1.245867768595041
10712.92114257812	-0.3222056700059383	0.1958201666980799	9.740189000197942	-2.181248213048738	-1.822253238208113	0.7335169570476764	0.3162217659137577	0.1914460285132383	1.264462809917355
10732.45239257812	-0.1520794674620142	0.2541609721872821	9.735982248733807	-1.090531141738995	-1.840681508062436	0.3574619999864007	0.3100616016427105	0.2097759674134419	1.252066115702479
10751.98364257812	-0.1910198487272888	0.1949035822448433	9.70066162424296	-1.449235853632372	-1.844322718316167	-0.003950868646837944	0.3182751540041068	0.185336048879837	1.258264462809917
10771.51489257812	-0.422934274207222	-0.05008208199366845	9.431142473574067	-0.7429273752244232	-0.3277385500136609	1.828969406500283	0.3141683778234086	0.1832993890020367	1.260330578512397
10791.04614257812	-0.2563836658278399	-0.1328973852843349	9.546122194261331	-0.373419205265437	1.14117655711184	1.110036468572678	0.3182751540041068	0.1894093686354379	1.260330578512397
10810.57739257812	-0.3620987018558548	-0.2104119136000597	9.403290061861826	-0.3771071250869892	1.520336487849071	1.478828450727901	0.3100616016427105	0.1771894093686354	1.285123966942149
10830.10864257812	-0.3946883420961941	0.1957174360555639	9.822944736539801	-1.094553734787894	1.884876022924961	0.7597213048763987	0.3039014373716633	0.1832993890020367	1.239669421487603
10849.63989257812	-0.5017858255371869	-0.0122440835903571	9.726194184572895	-1.811740043089752	-0.3533381310826119	0.0145840191200714	0.3039014373716633	0.1771894093686354	1.260330578512397
10869.17114257812	-0.5788842789783611	0.1894940831303299	9.629475965945369	-1.453035331196374	-0.3496969208288809	0.37599688775331	0.2997946611909651	0.1832993890020367	1.276859504132231
10888.70239257812	-0.6401117944924495	-0.02030281355255864	9.670393149748312	-1.097683865897201	-3.313293380088085	1.072734415806996	0.3059548254620124	0.1832993890020367	1.252066115702479
10908.23364257812	-0.4799947320315353	0.04813503664313692	9.666491067717841	-0.3800513266255464	-5.536942693080734	1.773248604583623	0.3347022587268994	0.1812627291242362	1.270661157024793
10927.76489257812	-0.272611059106133	0.02518909088901698	9.753701970204434	-0.735216862353971	-4.432456011738289	1.057918119455062	0.3264887063655031	0.1894093686354379	1.239669421487603
10947.29614257812	-0.2202515533803718	0.1154519977403465	9.675051779345726	-0.3766608941171922	-2.94152697915115	1.434205353748201	0.3182751540041068	0.185336048879837	1.25
10966.82739257812	-0.4170850942516843	0.1884758195252887	9.569503141722809	0.3442505199203669	-1.45429471146416	1.80683206593433	0.3285420944558521	0.1975560081466395	1.245867768595041
10986.35864257812	-0.3828977138751823	-0.09047026081964228	9.429923795839409	-0.735216862353971	-4.432456011738289	1.057918119455062	0.324435318275154	0.175152749490835	1.258264462809917
11005.88989257812	-0.2126453324458752	0.2345780091758337	9.754844414862506	-0.7279897663674655	-3.703488050879343	0.3352085208045162	0.324435318275154	0.1629327902240326	1.25
11025.42114257812	-0.3137737659902164	0.1852131489964967	9.792458866340546	-0.7281013241099148	-2.588022184129287	0.3463642950494413	0.3203285420944559	0.1608961303462322	1.264462809917355
11044.95239257812	-0.3117612127683568	0.1058638745382313	9.725373758945228	-0.003687919821552229	0.3791599307372308	0.3687919821552229	0.3182751540041068	0.185336048879837	1.254132231404959
11064.48364257812	-0.4747165115323558	0.2465083279378716	9.823883717745193	0.3586303400650783	0.7472851214204346	0.3688500514631886	0.3182751540041068	0.1873727087576375	1.270661157024793
11084.01489257812	-0.2279926279986215	0.08628238361377903	9.599754266620716	0.003613547993252729	0.3644839804294728	-0.3613547993252729	0.2997946611909651	0.1792260692464358	1.260330578512397
11103.54614257812	-0.5051500700687123	0.1266681440111163	9.838335668957075	0.3549424202435261	1.126445052157665	0.7376420336184115	0.3182751540041068	0.1914460285132383	1.262396694214876
11123.07739257812	-0.5865039064194297	0.5003637369243845	9.550130213980989	-0.3621695162300315	-1.855413013016611	-0.0149324349678658	0.3162217659137577	0.185336048879837	1.254132231404959
11142.60864257812	-0.2311620838758368	0.09525759288014608	9.705402795861227	-0.358518782322629	-1.86275098817049	-0.3800058257081136	0.3388090349075976	0.1873727087576375	1.25
11162.13989257812	-0.3686166299039227	0.1374806229977316	9.620554330130755	0.3588906414641265	-1.855468567663028	0.3428199115583635	0.3203285420944559	0.1792260692464358	1.268595041322314
11181.67114257812	-0.3868029503777875	-0.01173295395548463	9.560098345926248	0.7175581674433545	-1.480005401825945	0.7079513716065771	0.3305954825462012	0.185336048879837	1.258264462809917
11201.20239257812	-0.3432207633664842	0.1090252865115035	9.440692112216139	-0.3657830642232843	-2.219896993446084	0.346422364357407	0.3141683778234086	0.1771894093686354	1.258264462809917
11220.73364257812	-0.2958792341887999	-0.0323342857210453	9.529307806293328	-0.3694337981306867	-2.212559018292205	0.7114957550976549	0.3182751540041068	0.1873727087576375	1.241735537190083
11240.26489257812	-0.1371603915015366	-0.2943485265854969	9.57201305005122	-1.08315530209589	-2.599001369536898	-0.3801219643240451	0.3429158110882957	0.1995926680244399	1.243801652892562
11259.79614257812	-0.2110688849966208	0.02508772718442594	9.702296166554024	-1.449198667718223	-2.216144673899519	-0.007669460061812957	0.3429158110882957	0.185336048879837	1.25
11279.32739257812	-0.1919204505217103	0.374612387664647	9.730681684057009	0.3585559682367788	1.490929032587138	0.3762872342931387	0.3285420944558521	0.1812627291242362	1.252066115702479
11298.85864257812	-0.3347880707327286	0.3084185237964178	9.492935691090956	-0.3697684713580345	1.133838581957961	0.7449630778324301	0.3347022587268994	0.1894093686354379	1.235537190082645
11318.38989257812	-0.3519176430415105	0.2262132954165783	9.730588101383683	-0.369694099529735	0.3901946707912577	0.73752589500248	0.3121149897330596	0.1771894093686354	1.260330578512397
11337.92114257812	-0.3343377698355179	0.2185641210865159	9.477925661183932	-0.373419205265437	1.14117655711184	1.110036468572678	0.3388090349075976	0.1832993890020367	1.264462809917355
11357.45239257812	-0.2258136763716631	0.3169869113064956	9.527122545722101	-0.735514349667169	-1.457880367071474	1.087666850774862	0.3388090349075976	0.1873727087576375	1.270661157024793
11376.98364257812	-0.3245849306134423	-0.04161579423167969	9.48616435378141	-0.369545355873136	-1.097093151542149	0.7226515293425799	0.3347022587268994	0.2057026476578411	1.254132231404959
11396.51489257812	0.1390215300609366	-0.1050497052802972	9.365948997968783	-1.086954779659892	-1.104375572049612	-0.000174207923897194	0.3080082135523614	0.1894093686354379	1.229338842975207
11416.04614257812	-0.1923423611697098	0.02447596988846049	9.74474537232366	-0.3696569136155852	0.01837271520790595	0.733807303587505	0.3223819301848049	0.1832993890020367	1.245867768595041
11435.57739257812	-0.2102865759072459	0.3453406737899904	9.676219196908196	-0.007264281900655208	-0.3571460052755938	0.7264281900655207	0.3347022587268994	0.1832993890020367	1.260330578512397
11455.10864257812	-0.4057037587901338	0.2454891179911901	9.856791959671124	-0.3658946219657335	-1.104431126696028	0.3575781386023321	0.324435318275154	0.185336048879837	1.260330578512397
11474.63989257812	-0.471577023140419	0.2575234291845979	9.719234104680632	-0.3621695162300315	-1.855413013016611	-0.0149324349678658	0.3285420944558521	0.1670061099796334	1.254132231404959
11494.17114257812	-0.2355933286068826	0.1038248237504413	9.853110953562751	0.3588534555499768	-1.483646612079676	0.3465385029733385	0.3305954825462012	0.1771894093686354	1.254132231404959
11513.70239257812	-0.1732546502833899	0.2039809964083706	9.77515500944633	1.075965392023534	1.4982114530946	1.099112971559616	0.3429158110882957	0.1914460285132383	1.245867768595041
11533.23364257812	-0.2680094728798201	0.04334360376885815	9.933649095994005	0.3586303400650783	0.7472851214204346	0.3688500514631886	0.3264887063655031	0.1894093686354379	1.260330578512397
11552.76489257812	-0.2950022909353877	0.1546159259308913	9.833409697846257	0.3514404299927226	-0.3535047950218628	1.087841058698759	0.3388090349075976	0.1955193482688391	1.260330578512397
11572.29614257812	-0.2826493780563877	0.2652767010951013	9.754979268546258	0.3552770934708738	-2.219952548092501	0.7041747108836364	0.3203285420944559	0.1792260692464358	1.247933884297521
11591.82739257812	-0.1868141487538652	0.1262634252362503	9.560471625128839	0.7139446194501018	-1.844489382255418	1.06930617093185	0.3162217659137577	0.2057026476578411	1.254132231404959
11611.35864257812	-0.08843483767480699	0.1147394024851457	9.614494589160234	-0.003501990250803478	-1.479949847179528	0.3501990250803478	0.3347022587268994	0.1894093686354379	1.241735537190083
11630.88989257812	-0.3939825289560827	0.1459456489708666	9.799417631869421	0.7174466097009052	-0.3645395350758898	0.7191071458515021	0.3223819301848049	0.1832993890020367	1.247933884297521
11650.42114257812	-0.3188564092170521	0.06690309435315313	9.628546973901738	0.3551655357284246	-1.104486681342445	0.7153304851285613	0.351129363449692	0.185336048879837	1.254132231404959
11669.95239257812	-0.2987781940804753	0.006728383913979649	9.62593980268251	0.3552770934708738	-2.219952548092501	0.7041747108836364	0.351129363449692	0.1812627291242362	1.239669421487603
11689.48364257812	0.01140183953042532	0.1836865947815042	9.619938682319157	0.358965013292426	-2.599112478829731	0.3353827287284135	0.3326488706365503	0.1670061099796334	1.264462809917355
11709.01489257812	-0.08597198355573672	-0.05446427468302156	9.532399451857891	0.3624298176290798	-0.7473406760668516	-0.01109770493695932	0.3490759753593429	0.1894093686354379	1.243801652892562
11728.54614257812	0.1685742022537127	0.111172325395367	9.71419325820958	0.717335051958456	0.7509263316741656	0.7302629200964272	0.3162217659137577	0.1832993890020367	1.247933884297521
11748.07739257812	-0.3217845479759724	0.3359563294877689	9.726151599199079	-0.003762291649851729	1.122803841903934	0.3762291649851729	0.3264887063655031	0.1914460285132383	1.252066115702479
11767.60864257812	-0.2342857999071008	0.2842475913633708	9.809526663570026	-0.3585559682367788	-1.490929032587138	-0.3762872342931387	0.3429158110882957	0.1771894093686354	1.256198347107438
11787.13989257812	-0.05839243368313798	0.0744531131091187	9.613081122771266	-0.003427618422503978	-2.223593758346232	0.3427618422503977	0.3552361396303901	0.185336048879837	1.235537190082645
11806.67114257812	-0.2756204255225186	-0.002450604252281018	9.520680850750619	-0.007338653728954708	0.3864979058911098	0.7338653728954707	0.3367556468172485	0.1995926680244399	1.239669421487603
11826.20239257812	-0.4247520387747715	-0.1006698258705095	9.491734625825716	-0.00383666347815123	1.866447753070638	0.3836663478151229	0.324435318275154	0.1670061099796334	1.247933884297521
11845.73364257812	-0.4277850637321664	0.2383494960599329	9.592835457738879	0.3549796061576758	0.7546230965743135	0.7339234422034364	0.3285420944558521	0.1894093686354379	1.268595041322314
11865.26489257812	-0.3654471740267073	0.1285054137313646	9.514905800890244	-1.087029151488191	-0.3607316608829078	0.007262974906052836	0.3305954825462012	0.2016293279022403	1.254132231404959
11884.79614257812	-0.3168280836345197	0.1875589196248386	9.560936121150656	-0.3695081699589862	-1.468915107125501	0.7189329379276049	0.3388090349075976	0.1894093686354379	1.258264462809917
11904.32739257812	-0.1520802560800479	0.0441607172007845	9.736008536001595	-1.456537321447177	-1.829646768008409	0.7261959128336578	0.3285420944558521	0.175152749490835	1.254132231404959
11923.85864257812	-0.1109467280632093	0.1141272245928956	9.698224268773643	-2.177634665055485	-1.45776925777864	0.3721621577224035	0.3182751540041068	0.1995926680244399	1.256198347107438
11943.38989257812	-0.3182199944639014	0.2037755351233385	9.940666482130046	-1.818929953162107	-1.454128047524909	0.7335750263556421	0.3449691991786448	0.1995926680244399	1.239669421487603
11962.92114257812	-0.2459029321607109	0.1038247186013702	9.863431072023696	-2.177634665055485	-1.45776925777864	0.3721621577224035	0.3264887063655031	0.1710794297352342	1.268595041322314
11982.45239257812	0.04535421173290143	-0.00866880487302856	9.821526275569953	-1.818967139076257	-1.082306091941557	0.7372936177706171	0.3203285420944559	0.1792260692464358	1.264462809917355
12001.98364257812	-0.3750012815043047	-0.02458374768639185	9.833376050143489	-1.094442177045445	0.7694101561749055	0.7485655306314736	0.3264887063655031	0.175152749490835	1.256198347107438
12021.51489257812	-0.2215732772047591	0.1550246403704612	9.719109240158637	-1.094293433388846	-0.7178776661585017	0.7336911649715735	0.3367556468172485	0.175152749490835	1.25
12041.04614257812	-0.3060831629261199	0.1076997773205546	9.536105430870663	-1.815279219254705	-1.461466022678788	0.3685016356153942	0.3490759753593429	0.1975560081466395	1.241735537190083
12060.57739257812	0.1157494118881015	0.1207589765104861	9.808352937063285	-1.094330619302996	-0.3460557105751498	0.7374097563865486	0.3326488706365503	0.1832993890020367	1.239669421487603
12080.10864257812	-0.07073824899983515	0.5204612994900533	10.0246082999945	-0.728361625508963	0.01473150495417496	0.3723944349542664	0.3388090349075976	0.1873727087576375	1.258264462809917
12099.63989257812	-0.1489108002028325	0.03518550793441745	9.630360006761086	-0.01091501580805769	-0.3498080301217149	1.091501580805769	0.3326488706365503	0.1812627291242362	1.241735537190083
12119.17114257812	-0.1526661992790454	0.01397126223310864	9.75553997596818	0.3441761480920674	-0.7106508002974568	1.81426924876428	0.3305954825462012	0.2057026476578411	1.243801652892562
12138.70239257812	-0.2391728658615928	0.2460007733714183	9.639095528719759	0.7101079559719506	0.02195837081521995	1.452972518746973	0.3388090349075976	0.1690427698574338	1.247933884297521
12158.23364257812	-0.1497972068726484	-0.005101096888823002	9.659906895754947	0.7102195137143998	-1.093507495934836	1.441816744502048	0.3367556468172485	0.1873727087576375	1.241735537190083
12177.76489257812	-0.2778230356904863	0.1335038851267427	9.927434523016212	0.3513660581644231	0.3901391161448408	1.095278241528709	0.3367556468172485	0.1894093686354379	1.241735537190083
12197.29614257812	-0.07397946911811208	0.08607997165181042	9.46598230393707	0.3477525101711704	0.02565513571536794	1.456633040853982	0.3531827515400411	0.1710794297352342	1.247933884297521
12216.82739257812	-0.2772725803030028	0.04701519903536242	9.57575267676676	-0.01456574971546017	-0.3424700549678359	1.456574971546016	0.3326488706365503	0.185336048879837	1.25
12236.35864257812	-0.1515400527270017	-0.1056646170483972	9.718001757566723	-0.3622810739724808	-0.7399471462665556	-0.003776660722940747	0.3490759753593429	0.1771894093686354	1.25
12255.88989257812	-0.06288361338474067	0.1230009650056005	9.762787112824689	-0.01084064397975819	-1.093451941288418	1.084064397975818	0.3223819301848049	0.2097759674134419	1.237603305785124
12275.42114257812	-0.1883014823653178	0.06578252070188056	9.610049412177261	-0.3768468236879409	-1.082417201234392	1.452798310823076	0.3347022587268994	0.185336048879837	1.260330578512397
12294.95239257812	-0.2259792861587283	0.2169333641420112	9.532642871957609	-0.7428158174819739	-1.443204416763716	1.817813632255358	0.3388090349075976	0.1771894093686354	1.272727272727273
12314.48364257812	-0.3222356374912168	0.2158104772111732	9.741187916373892	-1.094107503818097	-2.576987444075261	0.7150982078966984	0.3326488706365503	0.1934826883910387	1.245867768595041
12334.01489257812	-0.1009375879801993	0.1040301798864022	9.697919599339979	-1.097944167296249	-0.7105396910046227	1.098764555711821	0.3613963039014374	0.1812627291242362	1.260330578512397
12353.54614257812	-0.2285935549402582	0.06608808390264982	9.619785164675275	-1.811628485347302	-1.468803997832667	0.003428244875146355	0.3285420944558521	0.1812627291242362	1.258264462809917
12373.07739257812	-0.06030483241472472	0.1571681041859057	9.343494413824159	-1.094256247474696	-1.089699621741854	0.7299725735565985	0.3449691991786448	0.185336048879837	1.266528925619835
12392.60864257812	-0.05915897041183995	-0.04579473376649493	9.638632347061332	-1.449273039546522	-1.472500762732815	-0.0002322772318629276	0.3429158110882957	0.1832993890020367	1.258264462809917
12412.13989257812	-0.06021019825068742	0.0238653692322777	9.673673275022916	-1.811628485347302	-1.468803997832667	0.003428244875146355	0.3347022587268994	0.1731160896130346	1.258264462809917
12431.67114257812	-0.1458004906781405	0.2761911746807346	9.526683022604685	-1.094330619302996	-0.3460557105751498	0.7374097563865486	0.3593429158110883	0.1812627291242362	1.254132231404959
12451.20239257812	-0.2472002088260553	-0.01326140085375789	9.573340294201843	-0.7355515355813188	-1.086058411488122	1.091385442189837	0.3429158110882957	0.1812627291242362	1.241735537190083
12470.73364257812	0.2333299948503243	-0.1378899683317285	9.555666838322525	-1.449198667718223	-2.216144673899519	-0.007669460061812957	0.3449691991786448	0.1792260692464358	1.245867768595041
12490.26489257812	0.305744057171653	0.2588572451521678	9.808531427611568	-0.7284359973372625	0.7583754161208786	0.3798316177842165	0.3552361396303901	0.1507128309572301	1.264462809917355
12509.79614257812	-0.002272797172962043	0.1125984622474089	9.742426572432068	-0.3733448334371375	0.3975326459451367	1.102599285742728	0.3367556468172485	0.185336048879837	1.247933884297521
12529.32739257812	-0.2365459791915245	-0.2431498666052596	9.551532639717486	-1.460373984925329	0.0368009850622289	1.109862260648781	0.3490759753593429	0.1894093686354379	1.235537190082645
12548.85864257812	-0.1505787273439896	-0.11535378850789	9.685957578132989	-1.086991965574041	-0.7325536164662596	0.003544383491077821	0.3552361396303901	0.185336048879837	1.264462809917355
