Time Stamp	Accelerometer X	Accelerometer Y	Accelerometer Z	Gyroscope X	Gyroscope Y	Gyroscope Z	Magnetometer X	Magnetometer Y	Magnetometer Z
672.882080078125	0.04480296772738421	-9.465513707101479	-2.493432257579474	-51.44772962460824	6.087593999263533	-0.1545737710605523	0.09856262833675565	-0.4093686354378818	0.615702479338843
692.413330078125	0.1950946381071275	-9.790252733678695	-2.169821270237581	5.787218347974224	-4.870819735524304	0.9883101301139199	0.06570841889117043	-0.4256619144602851	0.6198347107438017
711.944580078125	0.2157138452147841	-9.790252523380552	-2.190461507159469	-2.521996742718301	1.111991320435576	-1.423514133967001	0.07802874743326489	-0.4215885947046843	0.609504132231405
731.475830078125	0.03292007119643607	-9.749355843646486	-2.097335706547869	-0.3624298176290798	0.7473406760668516	0.01109770493695932	0.06570841889117043	-0.4317718940936863	0.6198347107438017
751.007080078125	0.01073388005592878	-9.686529378781916	-2.357796001864293	-0.003613547993252729	-0.3644839804294728	0.3613547993252729	0.06981519507186859	-0.4134419551934826	0.621900826446281
770.538330078125	0.03601539697848886	-9.498355021643622	-2.200513232616296	-0.724636519773261	-0.7362503813664076	-0.0001161386159314638	0.07186858316221766	-0.4175152749490835	0.615702479338843
790.069580078125	0.1649370958825464	-9.743337005664644	-1.831236529418213	-0.3624298176290798	0.7473406760668516	0.01109770493695932	0.05338809034907598	-0.4114052953156823	0.6260330578512396
809.600830078125	-0.1566739561260244	-9.873991245814082	-2.444201462465856	0	0	0	0.07186858316221766	-0.4276985743380855	0.609504132231405
829.132080078125	-0.1053357107538321	-9.734058546477074	-2.48880964153893	0.3550911639001251	-0.3608427701757418	0.7227676679585114	0.06365503080082136	-0.4256619144602851	0.621900826446281
848.663330078125	-0.1997143625482142	-9.724574310557257	-2.342854581726195	0.7138330617076526	-0.7290235155053626	1.080461945176775	0.08624229979466119	-0.4256619144602851	0.6198347107438017
868.194580078125	-0.07395581057710279	-9.613912378753264	-2.534806314096573	-0.7172978660443063	-1.122748287257517	-0.7339815115114022	0.04722792607802875	-0.4195519348268839	0.6033057851239669
887.725830078125	0.0163575152538443	-9.508044403401257	-2.211917175128144	-0.003687919821552229	0.3791599307372308	0.3687919821552229	0.1108829568788501	-0.4073319755600814	0.6198347107438017
907.257080078125	0.279274881490425	-9.523034454984764	-1.975829383014166	-0.003650733907402479	0.007337975153878983	0.3650733907402479	0.0595482546201232	-0.4032586558044806	0.6136363636363636
926.788330078125	0.1643014697474293	-9.670209191448333	-2.14338232491431	-0.007524583299703459	2.245607683807869	0.7524583299703458	0.06981519507186859	-0.4195519348268839	0.609504132231405
946.319580078125	-0.06287572720440429	-9.776996485129423	-2.237475759853191	0.003464804336653728	1.85177180276288	-0.3464804336653728	0.07597535934291581	-0.4338085539714867	0.615702479338843
965.850830078125	-0.05848943370127624	-9.755578250230078	-2.383685543290793	-0.3587790837216773	0.7400027009129726	-0.3539756858032885	0.08008213552361397	-0.4256619144602851	0.6115702479338843
985.382080078125	-0.1398692944471039	-9.645224405204564	-2.337690185096538	-0.3694709840448365	-1.840737062708853	0.7152143465126299	0.06570841889117043	-0.4114052953156823	0.615702479338843
1004.913330078125	0.2230653425244137	-9.501208872583772	-2.102178084147121	-1.08319248801004	-2.227179413953546	-0.3764033729090701	0.08829568788501027	-0.4195519348268839	0.6033057851239669
1024.444580078125	-0.0203250525811074	-9.66990510033456	-1.989164913963087	-0.3623182598866305	-0.3681251906832038	-5.806930796573191e-05	0.07186858316221766	-0.4256619144602851	0.6136363636363636
1043.975830078125	-0.1003390268926636	-9.839109618695295	-1.988699103577881	-0.358667525979228	-0.3754631658370828	-0.3651314600482136	0.07597535934291581	-0.4297352342158859	0.6136363636363636
1063.507080078125	0.2034666071522924	-9.760879130354091	-2.11555357174308	0.7133496448237059	4.104661907078212	1.12880363357145	0.07597535934291581	-0.405295315682281	0.6239669421487604
1083.038330078125	-0.1569736309788091	-9.674088140683148	-2.434212300706365	1.068366436895531	4.487463048069173	1.859008484359912	0.07392197125256673	-0.4419551934826884	0.6053719008264463
1102.569580078125	0.09869396967448214	-9.554755616471917	-2.623132322482738	1.434818847573511	0.01456484101492398	1.445651474532954	0.08418891170431211	-0.4175152749490835	0.6322314049586777
1122.100830078125	0.2366043369260143	-9.550164597727257	-2.220144564200474	-0.7173722378726058	-0.3791043760908138	-0.7265443286814521	0.08624229979466119	-0.4175152749490835	0.6053719008264463
1141.632080078125	-0.18459261175309	-9.636351611133499	-2.180246274897	-0.3587047118933778	-0.003641210253730994	-0.3614128686332386	0.06570841889117043	-0.4093686354378818	0.6363636363636364
1161.163330078125	-0.3354355261383505	-9.435124153451401	-2.152149128721653	7.437182829950031e-05	-0.7436439111667036	-0.007437182829950031	0.08008213552361397	-0.4297352342158859	0.6301652892561984
1180.694580078125	0.1109609231878149	-9.667455968169275	-2.365364106260497	0.358667525979228	0.3754631658370828	0.3651314600482136	0.07186858316221766	-0.4114052953156823	0.6033057851239669
1200.225830078125	-0.06760743540626843	-9.778526404114693	-2.079752153124386	-0.3624298176290798	0.7473406760668516	0.01109770493695932	0.07186858316221766	-0.4175152749490835	0.615702479338843
1219.757080078125	-0.2449179482366895	-9.605856803263196	-2.169401725443683	-1.079653311845087	-1.11905152235737	-0.7303209894043929	0.06776180698151951	-0.4256619144602851	0.6074380165289256
1239.288330078125	0.1415742866358422	-9.667557647321079	-2.385809554528074	-0.7317520580173174	-2.580684208975409	0.7114376857896891	0.06365503080082136	-0.4175152749490835	0.628099173553719
1258.819580078125	0.1853410102670182	-9.740073073346998	-2.178033675567272	-1.090717071309743	0.01842826985432295	0.3760549570612757	0.06776180698151951	-0.4175152749490835	0.609504132231405
1278.350830078125	-0.1262506496241052	-9.817487710045127	-2.124978345863159	-0.7175581674433545	1.480005401825945	-0.7079513716065771	0.07186858316221766	-0.4276985743380855	0.6033057851239669
1297.882080078125	-0.01506812476883636	-9.808205360341926	-2.164395841038789	0.003613547993252729	0.3644839804294728	-0.3613547993252729	0.06981519507186859	-0.4134419551934826	0.6239669421487604
1317.413330078125	-0.1011852140427636	-9.836049885873827	-2.293826198574547	-0.3805347435094932	-0.7032572704971607	1.821590292978299	0.06776180698151951	-0.4317718940936863	0.6115702479338843
1336.944580078125	0.03916908049503131	-9.707335330639939	-2.305636016501043	7.437182829950031e-05	-0.7436439111667036	-0.007437182829950031	0.08418891170431211	-0.4195519348268839	0.6177685950413223
1356.475830078125	-0.2629686264087676	-9.635026522538835	-2.234379119707749	-0.7137586898793531	-0.01462039566134097	-1.087899128006725	0.06776180698151951	-0.4338085539714867	0.6239669421487604
1376.007080078125	-0.06240413362028516	-9.530177336537227	-1.919862212657162	-0.003613547993252729	-0.3644839804294728	0.3613547993252729	0.08213552361396304	-0.4175152749490835	0.615702479338843
1395.538330078125	0.04229910547056443	-9.549656622564518	-2.076636849018815	0.3550167920718256	0.3828011409909618	0.7302048507884614	0.08008213552361397	-0.4236252545824847	0.6260330578512396
1415.069580078125	-0.1663321611840627	-9.747114065449512	-2.122261293864578	-0.3550911639001251	0.3608427701757418	-0.7227676679585114	0.05749486652977413	-0.4114052953156823	0.6260330578512396
1434.600830078125	-0.4326137719521688	-9.593211786264536	-2.246207601594375	0.003687919821552229	-0.3791599307372308	-0.3687919821552229	0.06570841889117043	-0.4317718940936863	0.609504132231405
1454.132080078125	-0.1458525394683611	-9.583825654428104	-2.471582017721299	-0.3658574360515838	-1.47625308227938	0.3538595471873571	0.06981519507186859	-0.4114052953156823	0.6239669421487604
1473.663330078125	0.1400475221227074	-9.561384634513658	-2.001584070756913	-0.7244505902025123	-2.595360159283167	-0.01870909569080654	0.08213552361396304	-0.4419551934826884	0.6074380165289256
1493.194580078125	0.3264965407269955	-9.584432785164937	-1.883218024233181	-0.7172978660443063	-1.122748287257517	-0.7339815115114022	0.07392197125256673	-0.4134419551934826	0.6136363636363636
1512.725830078125	-0.0870847236012085	-9.698157393964392	-2.097175879959718	0.3621695162300315	1.855413013016611	0.0149324349678658	0.08418891170431211	-0.4032586558044806	0.615702479338843
1532.257080078125	0.1079271096123864	-9.538436901225328	-2.264236987079545	-3.718591414975016e-05	0.3718219555833518	0.003718591414975016	0.08213552361396304	-0.4276985743380855	0.5991735537190083
1551.788330078125	-0.2701087740853806	-9.644001836954272	-2.329707530487316	-0.003725105735701979	0.7509818863205826	0.3725105735701979	0.07392197125256673	-0.4175152749490835	0.6053719008264463
1571.319580078125	0.07474363999271318	-9.929166223069023	-2.158121333090439	-1.079690497759237	-0.7472295667740175	-0.7266023979894179	0.06981519507186859	-0.415478615071283	0.609504132231405
1590.850830078125	-0.115730485055294	-9.747419523501211	-2.142317164823535	-0.7245993338591113	-1.108072336949759	-0.003834730030906479	0.08418891170431211	-0.415478615071283	0.5929752066115702
1610.382080078125	0.0554169778421991	-9.73874851049769	-2.180565928073304	-1.079467382274338	-2.978161300274128	-0.748913946479268	0.06981519507186859	-0.4175152749490835	0.6074380165289256
1629.913330078125	0.08060780369089011	-9.700603476806613	-2.020260123029671	0.3587047118933778	0.003641210253730994	0.3614128686332386	0.08829568788501027	-0.4195519348268839	0.615702479338843
1649.444580078125	-0.06879903725510456	-9.755578355379152	-2.373365424829849	0.3622810739724808	0.7399471462665556	0.003776660722940747	0.07597535934291581	-0.4114052953156823	0.6074380165289256
1668.975830078125	0.009486286326703938	-9.906932767421033	-2.316209544223465	0.007301467814804958	-0.01467595030775797	-0.7301467814804957	0.0595482546201232	-0.4276985743380855	0.597107438016529
1688.507080078125	-0.07516712787678004	-9.507637371346826	-2.161095737440666	0.358667525979228	0.3754631658370828	0.3651314600482136	0.06160164271047228	-0.4297352342158859	0.621900826446281
1708.038330078125	-0.07190776954372929	-9.576583512152473	-2.269741015209024	-0.003613547993252729	-0.3644839804294728	0.3613547993252729	0.07597535934291581	-0.4236252545824847	0.6198347107438017
1727.569580078125	0.001481024667183469	-9.61952113535761	-2.049367488906116	0.3585931541509285	1.119107077003786	0.3725686428781636	0.09034907597535935	-0.415478615071283	0.5929752066115702
1747.100830078125	-0.1950678250939836	-9.736405263447056	-2.164405830200548	0.3623554458007803	-0.003696764900147988	-0.003660522107009284	0.07186858316221766	-0.4358452138492871	0.6136363636363636
1766.632080078125	0.005696976675044398	-9.624824644208402	-2.523232555834814	-0.365968993794033	-0.3607872155293249	0.3650153214322821	0.06776180698151951	-0.4317718940936863	0.6033057851239669
1786.163330078125	0.08368656849423639	-9.859608009520196	-2.122885616474546	0.0001115577424492505	-1.115465866750055	-0.01115577424492505	0.07392197125256673	-0.4114052953156823	0.6239669421487604
1805.694580078125	-0.006185919855903732	-9.908666780753409	-2.12713600480321	-0.3622810739724808	-0.7399471462665556	-0.003776660722940747	0.07392197125256673	-0.4175152749490835	0.6074380165289256
1825.225830078125	-0.03954761715118046	-9.759453729545548	-2.015079428293985	-0.362243888058331	-1.111769101849907	-0.007495252137915762	0.06570841889117043	-0.4236252545824847	0.6198347107438017
1844.757080078125	-0.1703730399884547	-9.788420616262933	-1.987565333718179	0.3624298176290798	-0.7473406760668516	-0.01109770493695932	0.07392197125256673	-0.4175152749490835	0.6239669421487604
1864.288330078125	0.1931570035984641	-9.760879235503165	-2.105233453282136	-0.3624298176290798	0.7473406760668516	0.01109770493695932	0.04928131416837783	-0.4276985743380855	0.615702479338843
1883.819580078125	-0.03457538044905491	-9.707846039678527	-2.180820651698171	-0.3588534555499768	1.483646612079676	-0.3465385029733385	0.06365503080082136	-0.4175152749490835	0.6033057851239669
1903.350830078125	-0.0826384951275235	-9.716719780091234	-2.245383495749217	-0.3623182598866305	-0.3681251906832038	-5.806930796573191e-05	0.06365503080082136	-0.4297352342158859	0.6322314049586777
1922.882080078125	0.4358715530491523	-9.562401531180775	-2.19571843497174	-0.01091501580805769	-0.3498080301217149	1.091501580805769	0.07186858316221766	-0.4175152749490835	0.6012396694214877
1942.413330078125	0.1666909823893707	-9.369436582360771	-2.223032746312356	0	0	0	0.05338809034907598	-0.4297352342158859	0.6136363636363636
1961.944580078125	-0.01239392101674947	-9.69734070112875	-2.253535966108351	-3.718591414975016e-05	0.3718219555833518	0.003718591414975016	0.08624229979466119	-0.415478615071283	0.6074380165289256
1981.475830078125	0.2669014645425503	-9.760368526464577	-2.230048818085009	-1.079727683673386	-0.3754076111906658	-0.7228838065744428	0.07802874743326489	-0.4236252545824847	0.6198347107438017
2001.007080078125	-0.1188092498586402	-9.588414990787628	-2.039691671378659	-0.007375839643104458	0.7583198614744615	0.7375839643104457	0.08008213552361397	-0.4215885947046843	0.6053719008264463
2020.538330078125	-0.1792252774161088	-9.707949506364542	-2.025824086129707	-0.365968993794033	-0.3607872155293249	0.3650153214322821	0.08624229979466119	-0.4195519348268839	0.621900826446281
2040.069580078125	-0.005223805854858021	-9.708355697226404	-2.159206471504733	-0.3623554458007803	0.003696764900147988	0.003660522107009284	0.08829568788501027	-0.3971486761710794	0.6074380165289256
2059.600830078125	-0.290653062479841	-9.69397782353515	-2.311564584005302	-0.3624298176290798	0.7473406760668516	0.01109770493695932	0.06570841889117043	-0.4032586558044806	0.5929752066115702
2079.132080078125	0.03732134844220336	-9.737932764003689	-2.244044948073445	-0.369694099529735	0.3901946707912577	0.73752589500248	0.06981519507186859	-0.4093686354378818	0.6136363636363636
2098.663330078125	-0.114243940061875	-9.89693887395334	-2.191868664604168	-0.003501990250803478	-1.479949847179528	0.3501990250803478	0.07597535934291581	-0.4195519348268839	0.6074380165289256
2118.194580078125	0.3121350177163041	-9.899076344271728	-2.404500590543471	0	0	0	0.07597535934291581	-0.4276985743380855	0.6198347107438017
2137.725830078125	-0.05161978201020315	-9.776690396183298	-2.279340599659895	-0.3661549233647818	1.498322562387434	0.3836082785071572	0.08624229979466119	-0.4358452138492871	0.6198347107438017
2157.257080078125	-0.1235015271588222	-9.756598827114686	-2.216615761372595	0.3514404299927226	-0.3535047950218628	1.087841058698759	0.06160164271047228	-0.4175152749490835	0.6260330578512396
2176.788330078125	-0.04464445550262178	-9.657768373945849	-2.178518149912608	0.3514032440785728	0.01831716056148896	1.091559650113734	0.07597535934291581	-0.4195519348268839	0.6074380165289256
2196.319580078125	-0.1400601400112457	-9.798619445270303	-1.997995332958477	1.090642699481444	0.7252156413123806	-0.3686177742313257	0.07597535934291581	-0.4215885947046843	0.609504132231405
2215.850830078125	-0.09009330139956045	-9.515796834119191	-2.330223286681319	-0.3515519877351718	1.468970661771918	-1.076685284453834	0.05544147843942505	-0.4175152749490835	0.6136363636363636
2235.382080078125	-0.3323133873431538	-10.04411466190762	-2.256220421894875	-0.36239263171493	0.3755187204834998	0.007379113521984299	0.07597535934291581	-0.4297352342158859	0.609504132231405
2254.913330078125	-0.03266850204370365	-9.927229482327464	-2.244383265209879	-0.007003980501606956	-2.959899694359057	0.7003980501606956	0.06365503080082136	-0.4093686354378818	0.6053719008264463
2274.444580078125	0.1154118833697018	-9.759350157710463	-2.180396112323392	-0.3620579584875823	-2.970878879766667	-0.02608820921279084	0.07392197125256673	-0.4338085539714867	0.6177685950413223
2293.975830078125	0.2328639215924407	-9.581373998685113	-2.095464053081354	0.3587047118933778	0.003641210253730994	0.3614128686332386	0.07392197125256673	-0.415478615071283	0.6053719008264463
2313.507080078125	-0.2136894627224199	-9.805759592946917	-2.210351242586005	-7.437182829950031e-05	0.7436439111667036	0.007437182829950031	0.06570841889117043	-0.4093686354378818	0.615702479338843
2333.038330078125	-0.05384210762901201	-9.557408948133382	-2.205263079032934	0.3548680484152266	1.870088963324369	0.7450792164483615	0.08008213552361397	-0.4276985743380855	0.6033057851239669
2352.569580078125	0.01267703489082765	-9.5792344253853	-2.089234496360922	-0.3587047118933778	-0.003641210253730994	-0.3614128686332386	0.07392197125256673	-0.4175152749490835	0.6115702479338843
2372.100830078125	0.05697923016684792	-9.728243382246053	-2.232641005561597	-0.3623182598866305	-0.3681251906832038	-5.806930796573191e-05	0.08418891170431211	-0.4175152749490835	0.6301652892561984
2391.632080078125	-0.3754878588310631	-9.594741074355378	-2.150404705631232	0.3587790837216773	-0.7400027009129726	0.3539756858032885	0.06776180698151951	-0.4032586558044806	0.6136363636363636
2411.163330078125	0.1013768482249391	-9.800554819073938	-2.045894940831303	-0.007189910072355707	-1.100789916442297	0.7189910072355706	0.06160164271047228	-0.4114052953156823	0.6260330578512396
2430.694580078125	0.1467515640267152	-9.682550327631361	-1.891718800890507	0.3660061797081828	-0.01103474005402697	-0.3687339128472572	0.08418891170431211	-0.4256619144602851	0.6239669421487604
2450.225830078125	-0.1352227569928733	-9.657055358094363	-2.159241433570891	0.003613547993252729	0.3644839804294728	-0.3613547993252729	0.05749486652977413	-0.4175152749490835	0.6033057851239669
2469.757080078125	0.009326985483907846	-9.660317608026871	-1.977566182796928	0.003576362079102979	0.7363059360128246	-0.3576362079102978	0.06160164271047228	-0.4338085539714867	0.6301652892561984
2489.288330078125	-0.1750392928935263	-9.69326270470224	-2.498690236882456	0.003613547993252729	0.3644839804294728	-0.3613547993252729	0.05749486652977413	-0.4419551934826884	0.628099173553719
2508.819580078125	-0.1958635406899304	-9.626662544823077	-2.137881977002321	-0.3622810739724808	-0.7399471462665556	-0.003776660722940747	0.08624229979466119	-0.415478615071283	0.6033057851239669
2528.350830078125	-0.07542342873771435	-9.757720241958529	-2.152552375409523	-1.441934385817567	-1.858998668623925	-0.7340976501273336	0.08008213552361397	-0.415478615071283	0.6115702479338843
2547.882080078125	0.06070939346598414	-9.760370629445999	-2.023646448866138	0.358816269635827	-1.111824656496325	0.3502570943883135	0.06776180698151951	-0.4338085539714867	0.6053719008264463
2567.413330078125	0.2049397456391394	-9.480402815576678	-2.164658187971314	-0.003613547993252729	-0.3644839804294728	0.3613547993252729	0.07186858316221766	-0.4236252545824847	0.6177685950413223
2586.944580078125	0.228567530545148	-9.662763165123737	-1.9522510181716	0.3548308625010768	2.241910918907721	0.7487978078633365	0.07186858316221766	-0.4134419551934826	0.6012396694214877
2606.475830078125	0.2041132739398805	-9.560670041426105	-2.13710913132935	0.003539176164953228	1.108127891596177	-0.3539176164953228	0.06776180698151951	-0.4195519348268839	0.609504132231405
2626.007080078125	-0.09299304990926952	-9.686734419470664	-2.23356500302435	0.3658574360515838	1.47625308227938	-0.3538595471873571	0.06981519507186859	-0.4358452138492871	0.6033057851239669
2645.538330078125	-0.1208218030804998	-9.509065716329362	-1.972606563983341	-0.007375839643104458	0.7583198614744615	0.7375839643104457	0.06776180698151951	-0.4134419551934826	0.6322314049586777
2665.069580078125	0.2778585235020004	-9.35015907740102	-2.261950783400011	-0.003613547993252729	-0.3644839804294728	0.3613547993252729	0.06570841889117043	-0.4399185336048879	0.6033057851239669
2684.600830078125	0.009968131945260437	-9.596776970671034	-2.332271064842015	-0.7174466097009052	0.3645395350758898	-0.7191071458515021	0.07597535934291581	-0.4073319755600814	0.640495867768595
2704.132080078125	-0.2526747952156121	-9.835031517119715	-2.24417349281293	-0.3695825417872857	-0.7252711959587976	0.726370120757555	0.06981519507186859	-0.4195519348268839	0.6136363636363636
2723.663330078125	0.07295742014650945	-9.579743767485963	-2.098580671550315	-0.7281013241099148	-2.588022184129287	0.3463642950494413	0.08008213552361397	-0.4093686354378818	0.609504132231405
2743.194580078125	0.1227483969366921	-9.460311351657138	-2.09161323122307	-0.369694099529735	0.3901946707912577	0.73752589500248	0.08418891170431211	-0.4175152749490835	0.6136363636363636
2762.725830078125	-0.1115090127211975	-9.616054580779855	-2.283032909293417	0.003390432508354228	2.595415713929583	-0.3390432508354227	0.06365503080082136	-0.4297352342158859	0.5991735537190083
2782.257080078125	-0.1739076260152472	-9.676230132411597	-2.203079132825095	-0.003725105735701979	0.7509818863205826	0.3725105735701979	0.07392197125256673	-0.4093686354378818	0.609504132231405
2801.788330078125	-0.1473501251142511	-9.707643207120274	-2.088329162858299	0.3514404299927226	-0.3535047950218628	1.087841058698759	0.07597535934291581	-0.4175152749490835	0.609504132231405
2821.319580078125	0.2221789358545978	-9.541495477407013	-2.072631195153259	-0.003613547993252729	-0.3644839804294728	0.3613547993252729	0.07186858316221766	-0.4012219959266802	0.6198347107438017
2840.850830078125	-0.1638992745502709	-9.896327432104586	-2.203357514990972	-0.3587790837216773	0.7400027009129726	-0.3539756858032885	0.07802874743326489	-0.4195519348268839	0.6074380165289256
2860.382080078125	0.08544439809122892	-9.76903964461717	-2.181479936374297	-0.007375839643104458	0.7583198614744615	0.7375839643104457	0.07392197125256673	-0.4175152749490835	0.5929752066115702
2879.913330078125	-0.01659015757376931	-9.775364150948851	-2.446994747541023	0.3550167920718256	0.3828011409909618	0.7302048507884614	0.08213552361396304	-0.4338085539714867	0.6177685950413223
2899.444580078125	-0.08155651118536389	-9.596369938616602	-2.281449627154537	-0.362243888058331	-1.111769101849907	-0.007495252137915762	0.07186858316221766	-0.4338085539714867	0.6177685950413223
2918.975830078125	0.2095799741491009	-9.838902475025124	-2.319332471636695	-1.072389029944431	-0.7619055170817756	-1.456749179469914	0.06981519507186859	-0.4358452138492871	0.6136363636363636
2938.507080078125	-0.2838283620166857	-9.685104503718728	-2.20572126611048	-0.3512916863361236	-1.133783027311544	-1.102715424358659	0.07802874743326489	-0.4256619144602851	0.6115702479338843
2958.038330078125	-0.03307306309496304	-9.657360290400705	-2.230897896834566	-0.3733448334371375	0.3975326459451367	1.102599285742728	0.06365503080082136	-0.4317718940936863	0.6074380165289256
2977.569580078125	0.1294469185144644	-9.71814549634699	-2.314897283815481	-0.3587790837216773	0.7400027009129726	-0.3539756858032885	0.07186858316221766	-0.4236252545824847	0.615702479338843
2997.100830078125	-0.08499725166615277	-9.827482444705391	-2.166758277794908	-0.358816269635827	1.111824656496325	-0.3502570943883135	0.06981519507186859	-0.4276985743380855	0.6177685950413223
3016.632080078125	-0.1806881638685185	-9.925089172984155	-2.310394537716052	-0.7318264298456169	-1.837040297808705	0.7188748686196392	0.07597535934291581	-0.4236252545824847	0.6239669421487604
3036.163330078125	0.1427658884846784	-9.69050569605662	-2.092196282822611	-0.007264281900655208	-0.3571460052755938	0.7264281900655207	0.06776180698151951	-0.4195519348268839	0.621900826446281
3055.694580078125	-0.02139126416259412	-9.59024984207924	-1.95362452791353	-0.7245993338591113	-1.108072336949759	-0.003834730030906479	0.07597535934291581	-0.415478615071283	0.5950413223140496
3075.225830078125	0.2422263948878625	-9.791680132319591	-2.074213162928749	0.3623554458007803	-0.003696764900147988	-0.003660522107009284	0.0513347022587269	-0.4236252545824847	0.6260330578512396
3094.757080078125	-0.04710730962169206	-9.488564696777683	-2.096423012610265	-0.0001859295707487508	1.859109777916759	0.01859295707487508	0.06776180698151951	-0.4297352342158859	0.6177685950413223
3114.288330078125	-0.1080390933731638	-9.614932640190657	-2.398696887561206	0.3585931541509285	1.119107077003786	0.3725686428781636	0.07186858316221766	-0.4134419551934826	0.6136363636363636
3133.819580078125	0.1982845980532175	-9.672554646629459	-1.942819935107251	-0.365968993794033	-0.3607872155293249	0.3650153214322821	0.07186858316221766	-0.4338085539714867	0.6301652892561984
3153.350830078125	0.05726944160322892	-9.781482880548289	-1.908981386774297	-0.3585931541509285	-1.119107077003786	-0.3725686428781636	0.09034907597535935	-0.415478615071283	0.6053719008264463
3172.882080078125	0.09232430181673937	-9.726815142412587	-2.410810060557979	0.3549796061576758	0.7546230965743135	0.7339234422034364	0.08829568788501027	-0.4215885947046843	0.5847107438016529
3192.413330078125	-0.2706805221597725	-9.894186702164994	-2.310649261340919	-7.437182829950031e-05	0.7436439111667036	0.007437182829950031	0.09240246406570843	-0.4358452138492871	0.6053719008264463
3211.944580078125	-0.2170442438375415	-9.813510972174138	-2.431858538748616	-0.3620579584875823	-2.970878879766667	-0.02608820921279084	0.08008213552361397	-0.4114052953156823	0.6136363636363636
3231.475830078125	-0.01541353946757243	-9.788317044427849	-2.152882017747586	-0.003501990250803478	-1.479949847179528	0.3501990250803478	0.09445585215605749	-0.415478615071283	0.6033057851239669
3251.007080078125	0.1207800063247166	-9.620947797955008	-2.026000210823887	0.3587047118933778	0.003641210253730994	0.3614128686332386	0.06365503080082136	-0.415478615071283	0.615702479338843
3270.538330078125	0.1810154403524807	-9.591471674286032	-2.033848011749357	-0.3624298176290798	0.7473406760668516	0.01109770493695932	0.07186858316221766	-0.4378818737270875	0.6033057851239669
3290.069580078125	0.2111627305426244	-9.701724050457885	-2.038757684754147	-0.0001859295707487508	1.859109777916759	0.01859295707487508	0.07186858316221766	-0.4256619144602851	0.609504132231405
3309.600830078125	0.08333642208729844	-9.766387890191774	-2.444547402909948	-0.3552399075567241	1.848130592509149	-0.7078933022986114	0.0595482546201232	-0.4236252545824847	0.6115702479338843
3329.132080078125	-0.3875261131146391	-9.915300109907065	-2.082462896178699	-0.728361625508963	0.01473150495417496	0.3723944349542664	0.08008213552361397	-0.4419551934826884	0.6177685950413223
3348.663330078125	-0.1792907327129013	-9.804637336910506	-2.356975576236625	-0.3657830642232843	-2.219896993446084	0.346422364357407	0.06981519507186859	-0.4276985743380855	0.6322314049586777
3368.194580078125	-0.001704203570704744	-9.810551025821196	-1.943193214309842	-0.3695081699589862	-1.468915107125501	0.7189329379276049	0.06776180698151951	-0.4134419551934826	0.609504132231405
3387.725830078125	0.09300409056174051	-10.03992867738504	-2.100136352058017	-1.449347411374822	-0.7288568515661117	0.007204905598087103	0.08213552361396304	-0.4114052953156823	0.609504132231405
3407.257080078125	-0.1572993302267041	-9.737526783439968	-2.090022325776532	-0.0001487436565990006	1.487287822333407	0.01487436565990006	0.07597535934291581	-0.4215885947046843	0.628099173553719
3426.788330078125	-0.09393939154964234	-9.687040403267718	-2.202020281678589	0.365968993794033	0.3607872155293249	-0.3650153214322821	0.07597535934291581	-0.4236252545824847	0.615702479338843
3446.319580078125	0.04183224359464717	-9.869807574571064	-2.061074786488239	3.718591414975016e-05	-0.3718219555833518	-0.003718591414975016	0.06981519507186859	-0.4317718940936863	0.6177685950413223
3465.850830078125	0.04501195150629987	-9.815446135679629	-2.500398383543329	-0.7209485999517089	-1.115410312103638	-0.3689081207711543	0.07392197125256673	-0.4317718940936863	0.615702479338843
3485.382080078125	-0.1074397436675944	-10.01473885045252	-2.418675211080188	-0.003650733907402479	0.007337975153878983	0.3650733907402479	0.07802874743326489	-0.4114052953156823	0.6074380165289256
3504.913330078125	0.03302495739491073	-9.819321930442312	-2.100831913163691	-0.3622810739724808	-0.7399471462665556	-0.003776660722940747	0.09034907597535935	-0.4317718940936863	0.6115702479338843
3524.444580078125	-0.08080653543536842	-9.886127446457436	-2.306448818821053	0	0	0	0.06365503080082136	-0.4195519348268839	0.6136363636363636
3543.975830078125	0.03115908712730897	-9.34659189516217	-2.371969570910299	0.0001487436565990006	-1.487287822333407	-0.01487436565990006	0.08829568788501027	-0.4338085539714867	0.609504132231405
3563.507080078125	0.06284339386502487	-9.499680635983642	-2.094779795500829	-0.003613547993252729	-0.3644839804294728	0.3613547993252729	0.09650924024640657	-0.4175152749490835	0.609504132231405
3583.038330078125	-0.04960091984407445	-9.509370964082919	-2.013302671864185	0.3549424202435261	1.126445052157665	0.7376420336184115	0.07802874743326489	-0.4338085539714867	0.6136363636363636
3602.569580078125	0.4926970026994396	-9.574027969127181	-2.089900089981318	-7.437182829950031e-05	0.7436439111667036	0.007437182829950031	0.06365503080082136	-0.4195519348268839	0.6260330578512396
3622.100830078125	0.02000723951354884	-9.626864325890621	-2.333574650451628	-0.0002603013990482511	2.602753689083463	0.02603013990482511	0.07597535934291581	-0.4338085539714867	0.615702479338843
3641.632080078125	-0.03023403817384455	-9.656442339009542	-2.325532060871849	-0.7210601576941581	5.555464641699391e-05	-0.3577523465262293	0.08624229979466119	-0.415478615071283	0.6033057851239669
3661.163330078125	0.216866016161938	-9.646546654774307	-2.562200538731266	-0.362243888058331	-1.111769101849907	-0.007495252137915762	0.06570841889117043	-0.4236252545824847	0.6053719008264463
3680.694580078125	-0.07084155796224259	-9.656238770407793	-2.305281401258582	-0.365968993794033	-0.3607872155293249	0.3650153214322821	0.08418891170431211	-0.4276985743380855	0.640495867768595
3700.225830078125	-0.06804275256083994	-9.698667156661338	-2.065241581305336	-0.365968993794033	-0.3607872155293249	0.3650153214322821	0.09240246406570843	-0.4195519348268839	0.6074380165289256
3719.757080078125	-0.1645451527198253	-9.886536266046075	-2.18182824267249	0.3587047118933778	0.003641210253730994	0.3614128686332386	0.06570841889117043	-0.4195519348268839	0.6012396694214877
3739.288330078125	-0.1176681195639573	-9.71804602532568	-2.077729347868089	-0.01441700605886117	-1.829757877301243	1.441700605886116	0.06776180698151951	-0.4175152749490835	0.6074380165289256
3758.819580078125	0.2915512984201615	-9.782398413510814	-2.051709947338716	-0.3658946219657335	-1.104431126696028	0.3575781386023321	0.07597535934291581	-0.4276985743380855	0.6177685950413223
3778.350830078125	0.307890675459232	-9.453782014934848	-1.9296891819744	-0.3587790837216773	0.7400027009129726	-0.3539756858032885	0.08829568788501027	-0.4093686354378818	0.5991735537190083
3797.882080078125	0.08389712950921933	-9.789539928125352	-2.129904316973978	-1.083452789409088	0.3755742751299168	-0.350373233004245	0.09034907597535935	-0.4114052953156823	0.621900826446281
3817.413330078125	-0.03172137178529719	-9.716923243543912	-2.275954273823428	-7.437182829950031e-05	0.7436439111667036	0.007437182829950031	0.07597535934291581	-0.4134419551934826	0.6239669421487604
3836.944580078125	0.1736142601067316	-9.777198055898824	-2.453808670224385	-0.7210973436083078	0.3718775102297688	-0.3540337551112543	0.07392197125256673	-0.4093686354378818	0.6053719008264463
3856.475830078125	-0.1365949523714139	-9.724165701266758	-2.446834920952871	-0.3549796061576758	-0.7546230965743135	-0.7339234422034364	0.06981519507186859	-0.4317718940936863	0.6198347107438017
3876.007080078125	0.1098955002243618	-9.377800454927458	-2.329850007478727	0.7211345295224576	-0.7436994658131205	0.3503151636962792	0.06981519507186859	-0.4358452138492871	0.6301652892561984
3895.538330078125	0.3982584159345006	-9.524563112181179	-1.941947197816685	0.3549424202435261	1.126445052157665	0.7376420336184115	0.07802874743326489	-0.3991853360488798	0.609504132231405
3915.069580078125	0.001630862093575828	-9.719472687923076	-2.054362069785861	-0.3587790837216773	0.7400027009129726	-0.3539756858032885	0.06981519507186859	-0.4114052953156823	0.6053719008264463
3934.600830078125	-0.06556412608109677	-9.667865734099555	-2.147862463963442	0.003576362079102979	0.7363059360128246	-0.3576362079102978	0.08418891170431211	-0.4338085539714867	0.615702479338843
3954.132080078125	-0.03208255884470615	-9.897040027359788	-2.263914705176462	0.3550911639001251	-0.3608427701757418	0.7227676679585114	0.09034907597535935	-0.4256619144602851	0.6074380165289256
3973.663330078125	-0.2039500300069162	-9.63594384303557	-2.201665666436127	-0.003687919821552229	0.3791599307372308	0.3687919821552229	0.08008213552361397	-0.4215885947046843	0.6074380165289256
3993.194580078125	-0.03095010334839332	-9.670007200082649	-1.96832988838689	0.007264281900655208	0.3571460052755938	-0.7264281900655207	0.06365503080082136	-0.4175152749490835	0.5991735537190083
4012.725830078125	-0.03714390938463348	-9.678676530701031	-2.095203020512218	3.718591414975016e-05	-0.3718219555833518	-0.003718591414975016	0.08418891170431211	-0.4195519348268839	0.6136363636363636
4032.257080078125	0.08463369875264286	-9.649301770736646	-2.154456625088095	-0.003613547993252729	-0.3644839804294728	0.3613547993252729	0.08418891170431211	-0.4195519348268839	0.621900826446281
4051.788330078125	0.196839061197548	-9.269688703546127	-2.227968706584934	-0.007338653728954708	0.3864979058911098	0.7338653728954707	0.07802874743326489	-0.415478615071283	0.6136363636363636
4071.319580078125	-0.02171302032032088	-9.937020543236905	-2.276232655989304	-0.3552027216425743	1.476308636925797	-0.7116118937135864	0.08829568788501027	-0.4338085539714867	0.6239669421487604
4090.850830078125	0.006017155596703885	-9.698054453023733	-2.200571853223463	-0.3587418978075275	0.3681807453296208	-0.3576942772182636	0.07802874743326489	-0.415478615071283	0.6033057851239669
4110.382080078125	0.02895095663310571	-9.347305857355297	-2.298365221103523	-0.7245993338591113	-1.108072336949759	-0.003834730030906479	0.07802874743326489	-0.4317718940936863	0.6115702479338843
4129.913330078125	0.07322239580581384	-9.686324758689453	-2.440746526860461	0.01084064397975819	1.093451941288418	-1.084064397975818	0.07186858316221766	-0.4195519348268839	0.6136363636363636
4149.444580078125	-0.1567583382556243	-9.677351862702652	-2.108055391479192	0.007078352329906457	2.216255783192353	-0.7078352329906457	0.06570841889117043	-0.4276985743380855	0.6466942148760331
4168.975830078125	-0.2234273182018563	-9.555574832885267	-2.219089393271458	-0.003427618422503978	-2.223593758346232	0.3427618422503977	0.07186858316221766	-0.415478615071283	0.6301652892561984
4188.507080078125	0.1875089212415056	-9.782705448798579	-1.91696404138352	-0.3693222403882375	-3.32802488504226	0.7003399808527299	0.07802874743326489	-0.4236252545824847	0.609504132231405
4208.038330078125	0.3564884731645113	-9.731402060343475	-2.216282438817041	-0.7245249620308118	-1.851716248116463	-0.01127191286085651	0.08213552361396304	-0.4215885947046843	0.6115702479338843
4227.569580078125	0.04377066672134418	-9.6891808177601	-2.125688890711473	0.3622810739724808	0.7399471462665556	0.003776660722940747	0.08624229979466119	-0.4032586558044806	0.6074380165289256
4247.100830078125	-0.02388960609317839	-9.537724305970128	-2.203679796894054	-0.003650733907402479	0.007337975153878983	0.3650733907402479	0.07186858316221766	-0.4032586558044806	0.6012396694214877
4266.632080078125	0.07253629811654355	-9.719879930275651	-2.084543270551451	0.3549052343293763	1.498267007741017	0.7413606250333865	0.06365503080082136	-0.4317718940936863	0.615702479338843
4286.163330078125	0.1231687303486244	-9.530175443853945	-2.105624344954146	-0.3588534555499768	1.483646612079676	-0.3465385029733385	0.07597535934291581	-0.4195519348268839	0.6115702479338843
4305.694580078125	0.08576063392272017	-9.558937395031654	-2.192021130757339	-0.365820250137434	-1.848075037862732	0.3501409557723821	0.06160164271047228	-0.4134419551934826	0.5929752066115702
4325.225830078125	0.1237089337016705	-9.680000778103127	-2.123631123389018	-0.7317520580173174	-2.580684208975409	0.7114376857896891	0.07392197125256673	-0.4358452138492871	0.6033057851239669
4344.757080078125	0.3105033670046947	-9.722937244668483	-2.016778900156488	0	0	0	0.07392197125256673	-0.4134419551934826	0.6033057851239669
4364.288330078125	0.04638414688484047	-9.748335792507236	-2.212804896161349	0.003464804336653728	1.85177180276288	-0.3464804336653728	0.07186858316221766	-0.4276985743380855	0.6260330578512396
4383.819580078125	-0.127166235161166	-9.627783749368778	-2.094458827961136	-0.3624670035432295	1.119162631650203	0.01481629635193433	0.07597535934291581	-0.4134419551934826	0.609504132231405
4403.350830078125	0.07020750906319276	-9.8506329054029	-2.006916968773091	-0.7209857858658586	-0.7435883565202867	-0.3651895293561793	0.07186858316221766	-0.4134419551934826	0.609504132231405
4422.882080078125	0.07846986020168117	-9.677961411868123	-2.282328673389372	-1.075928206109385	-1.870033408677952	-1.102831562974591	0.08213552361396304	-0.4317718940936863	0.6301652892561984
4442.413330078125	-0.1127558178323887	-9.626457714432474	-2.241472738920376	-0.003613547993252729	-0.3644839804294728	0.3613547993252729	0.07802874743326489	-0.415478615071283	0.6074380165289256
4461.944580078125	-0.09557735120552099	-9.857570010223117	-2.147421626482635	-0.7245621479449615	-1.479894292533111	-0.007553321445881495	0.07186858316221766	-0.4236252545824847	0.6053719008264463
4481.475830078125	0.01644741770967972	-9.568015334940537	-2.214913923655991	-0.3587790837216773	0.7400027009129726	-0.3539756858032885	0.07597535934291581	-0.4338085539714867	0.6239669421487604
4501.007080078125	0.01255637633168012	-9.709273438319423	-2.085212544389337	-0.358518782322629	-1.86275098817049	-0.3800058257081136	0.06776180698151951	-0.4134419551934826	0.5950413223140496
4520.538330078125	-0.05815427103697752	-9.838803214301956	-2.061524298767416	0.358816269635827	-1.111824656496325	0.3502570943883135	0.0595482546201232	-0.4195519348268839	0.6074380165289256
4540.069580078125	0.1982396468252998	-9.642569180859818	-1.941321560843327	0.3623554458007803	-0.003696764900147988	-0.003660522107009284	0.07802874743326489	-0.4297352342158859	0.6136363636363636
4559.600830078125	0.3446174059040679	-9.531907038757685	-2.153913530135593	-0.36239263171493	0.3755187204834998	0.007379113521984299	0.06570841889117043	-0.415478615071283	0.609504132231405
4579.132080078125	0.1666294701827465	-9.749456471307578	-2.220982339424882	-0.7211345295224576	0.7436994658131205	-0.3503151636962792	0.07392197125256673	-0.4215885947046843	0.6198347107438017
4598.663330078125	-0.02697467984079381	-9.725388479815191	-2.434177338640207	0.7172234942160068	1.866392198424221	0.7414186943413522	0.08418891170431211	-0.415478615071283	0.6260330578512396
4618.194580078125	-0.1870460024557566	-9.613811540794028	-2.431799918141448	-0.003725105735701979	0.7509818863205826	0.3725105735701979	0.07802874743326489	-0.4114052953156823	0.628099173553719
4637.725830078125	-0.08953811430387507	-9.67561732362492	-2.348729523204165	-0.003390432508354228	-2.595415713929583	0.3390432508354227	0.05749486652977413	-0.4338085539714867	0.5991735537190083
4657.257080078125	-0.07450626596458634	-9.527423692661884	-2.183124467847123	-0.3621695162300315	-1.855413013016611	-0.0149324349678658	0.09034907597535935	-0.415478615071283	0.6012396694214877
4676.788330078125	-0.07751090067277008	-9.62839519121753	-2.082969977574332	0.3550167920718256	0.3828011409909618	0.7302048507884614	0.06365503080082136	-0.4195519348268839	0.5929752066115702
4696.319580078125	-0.02952980226980044	-10.12621463606724	-2.349006591006653	0.358667525979228	0.3754631658370828	0.3651314600482136	0.09445585215605749	-0.4175152749490835	0.5950413223140496
4715.850830078125	-0.03819513722348097	-9.609016427702258	-2.060162092550635	-0.0001115577424492505	1.115465866750055	0.01115577424492505	0.06776180698151951	-0.4297352342158859	0.628099173553719
4735.382080078125	-0.2018467857111876	-9.565263794046617	-2.271773809627081	0.358667525979228	0.3754631658370828	0.3651314600482136	0.08008213552361397	-0.4175152749490835	0.6115702479338843
4754.913330078125	-0.1952634023663273	-9.816468500098445	-2.157886587789091	-1.083415603494938	0.003752319546564981	-0.35409182441922	0.06981519507186859	-0.4276985743380855	0.6198347107438017
4774.444580078125	-0.04966716375890055	-9.816059049615378	-2.344427874703315	-0.003725105735701979	0.7509818863205826	0.3725105735701979	0.06570841889117043	-0.415478615071283	0.5867768595041323
4793.975830078125	-0.1106233946694153	-9.785768230943111	-2.312553511019491	-0.003613547993252729	-0.3644839804294728	0.3613547993252729	0.07186858316221766	-0.4195519348268839	0.6033057851239669
4813.507080078125	0.1688376006769497	-9.748742509114454	-2.294586689231657	-0.003501990250803478	-1.479949847179528	0.3501990250803478	0.08829568788501027	-0.4358452138492871	0.6198347107438017
4833.038330078125	0.1638511688502186	-9.580354788738429	-2.128372295007285	-0.3477896960853201	0.3461668198679838	-1.452914449439007	0.07597535934291581	-0.4236252545824847	0.615702479338843
4852.569580078125	0.03412271369774321	-9.498966989237729	-2.137423789924774	-0.0001487436565990006	1.487287822333407	0.01487436565990006	0.08829568788501027	-0.4236252545824847	0.6136363636363636
4872.100830078125	0.0003682846217117524	-9.929880921305646	-2.012276154057059	-1.090642699481444	-0.7252156413123806	0.3686177742313257	0.06776180698151951	-0.4317718940936863	0.6198347107438017
4891.632080078125	0.2386618413757915	-9.659499337955163	-2.288728045859716	-0.01098938763635719	0.3938358810449887	1.098938763635719	0.08008213552361397	-0.4093686354378818	0.6136363636363636
4911.163330078125	-0.00502349687431243	-9.701624263989363	-1.832550104189586	-0.358816269635827	1.111824656496325	-0.3502570943883135	0.08624229979466119	-0.4195519348268839	0.6012396694214877
4930.694580078125	-0.2022631760329517	-9.778731760250652	-1.924560798901613	-0.365968993794033	-0.3607872155293249	0.3650153214322821	0.06776180698151951	-0.4399185336048879	0.6177685950413223
4950.225830078125	0.1081660608765805	-9.908359640316574	-2.27220202921935	-0.007227095986505457	-0.7289679608589457	0.7227095986505457	0.08008213552361397	-0.4338085539714867	0.621900826446281
4969.757080078125	0.1783057487888799	-9.81901447455826	-2.276858292962662	-0.7282500677665138	-1.10073436179588	0.3612386607093414	0.05338809034907598	-0.4175152749490835	0.6115702479338843
4989.288330078125	0.3882894953712064	-9.471119729829978	-2.276316512373548	-0.358667525979228	-0.3754631658370828	-0.3651314600482136	0.06776180698151951	-0.4236252545824847	0.6260330578512396
5008.819580078125	0.0005039269234985197	-9.80983706362807	-2.016797564116617	0.3584444104943295	2.606394899337194	0.3874430085380637	0.07802874743326489	-0.4215885947046843	0.5929752066115702
5028.350830078125	0.02964651773877973	-9.460414292597795	-1.988217257959325	-0.3623554458007803	0.003696764900147988	0.003660522107009284	0.08624229979466119	-0.405295315682281	0.609504132231405
5047.882080078125	-0.03728349477658846	-9.515388329977766	-2.423883507447051	-0.3587418978075275	0.3681807453296208	-0.3576942772182636	0.07186858316221766	-0.4236252545824847	0.6074380165289256
5067.413330078125	0.1001261000235797	-9.527625894325711	-2.337536667452656	3.718591414975016e-05	-0.3718219555833518	-0.003718591414975016	0.07597535934291581	-0.4073319755600814	0.6012396694214877
5086.944580078125	-0.3275801019052224	-9.622584232949356	-2.413996603159256	-0.36239263171493	0.3755187204834998	0.007379113521984299	0.07392197125256673	-0.4093686354378818	0.621900826446281
5106.475830078125	-0.06634564655243799	-9.77811842571862	-2.121811781585401	-0.3623182598866305	-0.3681251906832038	-5.806930796573191e-05	0.08008213552361397	-0.4134419551934826	0.6033057851239669
5126.007080078125	-0.07661108749638225	-10.01810425162383	-2.112963750120593	-0.362243888058331	-1.111769101849907	-0.007495252137915762	0.06776180698151951	-0.4317718940936863	0.6074380165289256
5145.538330078125	0.1910095966928514	-9.591573563735979	-2.033653223095047	-0.007227095986505457	-0.7289679608589457	0.7227095986505457	0.07597535934291581	-0.4195519348268839	0.6115702479338843
5165.069580078125	0.001345382365396695	-9.73956499303519	-2.044846078846557	-0.003762291649851729	1.122803841903934	0.3762291649851729	0.08418891170431211	-0.4195519348268839	0.6177685950413223
5184.600830078125	0.1266820236885085	-9.979039479007383	-2.222734122950283	0.7281385100240645	2.216200228545936	-0.3500828864644163	0.06776180698151951	-0.4114052953156823	0.615702479338843
5204.132080078125	-0.07435642853819399	-9.62737524522735	-2.188119048726868	0.358667525979228	0.3754631658370828	0.3651314600482136	0.07186858316221766	-0.415478615071283	0.615702479338843
5223.663330078125	0.08556505665037645	-9.639000631683043	-2.185501888345882	-0.007413025557254208	1.130141817057813	0.7413025557254208	0.06776180698151951	-0.4338085539714867	0.621900826446281
5243.194580078125	-0.3213563283837038	-9.633905212844065	-2.288122387209877	-0.3625041894573793	1.490984587233555	0.01853488776690934	0.08829568788501027	-0.4215885947046843	0.6053719008264463
5262.725830078125	-0.1863062787401985	-9.966905696792665	-2.123124041993385	-0.007227095986505457	-0.7289679608589457	0.7227095986505457	0.08213552361396304	-0.4215885947046843	0.5991735537190083
5282.257080078125	0.1712468287697322	-9.531296858697786	-2.041560958991074	-0.003427618422503978	-2.223593758346232	0.3427618422503977	0.08418891170431211	-0.4256619144602851	0.6239669421487604
5301.788330078125	0.1405128067625574	-9.661234192480107	-2.017093558751912	0.3585931541509285	1.119107077003786	0.3725686428781636	0.07802874743326489	-0.4134419551934826	0.6136363636363636
5321.319580078125	0.01079381502648573	-9.726509999808103	-2.359793834216191	0.003576362079102979	0.7363059360128246	-0.3576362079102978	0.07392197125256673	-0.4256619144602851	0.5991735537190083
5340.850830078125	-0.1890443605530105	-9.754457676578806	-2.365187981566316	-0.3623554458007803	0.003696764900147988	0.003660522107009284	0.06981519507186859	-0.4276985743380855	0.5805785123966942
5360.382080078125	-0.03903659266537913	-9.679288498295138	-2.032113577820696	-1.086954779659892	-1.104375572049612	-0.000174207923897194	0.07597535934291581	-0.4175152749490835	0.615702479338843
5379.913330078125	-0.04055941408834574	-9.856447543888565	-2.314686197055142	-0.369545355873136	-1.097093151542149	0.7226515293425799	0.08213552361396304	-0.4276985743380855	0.615702479338843
5399.444580078125	0.1814499688890186	-9.881331176725885	-2.048332296300619	-0.7247108916015605	0.007393529800295976	0.007321044214018567	0.07392197125256673	-0.4256619144602851	0.6033057851239669
5418.975830078125	0.03009129830975496	-9.686937146879846	-2.336376610325166	-0.7282872536806635	-0.7289124062125286	0.3649572521243164	0.08624229979466119	-0.3971486761710794	0.6053719008264463
5438.507080078125	-0.3268995245421876	-9.725697512935309	-2.103349181927083	-0.7282500677665138	-1.10073436179588	0.3612386607093414	0.06981519507186859	-0.4093686354378818	0.5991735537190083
5458.038330078125	0.1884804986589551	-9.729057972100271	-2.282683288631834	-0.7282500677665138	-1.10073436179588	0.3612386607093414	0.05338809034907598	-0.4338085539714867	0.615702479338843
5477.569580078125	0.3279838743384481	-9.523951880630568	-1.932795811281601	-0.7175209815292047	1.108183446242593	-0.7116699630215522	0.06365503080082136	-0.4358452138492871	0.609504132231405
5497.100830078125	-0.1460583687751421	-9.727225539237297	-2.131387707495262	-0.003650733907402479	0.007337975153878983	0.3650733907402479	0.08213552361396304	-0.4480651731160896	0.5909090909090909
5516.632080078125	0.2310556204412949	-9.778625349390648	-2.368520681376496	-0.007264281900655208	-0.3571460052755938	0.7264281900655207	0.07186858316221766	-0.4317718940936863	0.6033057851239669
5536.163330078125	0.05760933597572949	-9.938039648034515	-2.253644532524316	0.3623182598866305	0.3681251906832038	5.806930796573191e-05	0.09034907597535935	-0.4073319755600814	0.609504132231405
5555.694580078125	-0.007010814319095377	-9.568933496629841	-2.099639522696821	0.3587047118933778	0.003641210253730994	0.3614128686332386	0.07392197125256673	-0.4256619144602851	0.628099173553719
5575.225830078125	-0.07135258244804391	-9.736404001658203	-2.288247251731871	-0.3622810739724808	-0.7399471462665556	-0.003776660722940747	0.07802874743326489	-0.4297352342158859	0.609504132231405
5594.757080078125	0.3739390130129862	-9.512426385792468	-2.131300433766206	-0.3623554458007803	0.003696764900147988	0.003660522107009284	0.06776180698151951	-0.4378818737270875	0.6260330578512396
5614.288330078125	0.1384805380898567	-9.498557959350947	-2.282684602995224	-0.3587047118933778	-0.003641210253730994	-0.3614128686332386	0.06981519507186859	-0.4256619144602851	0.6115702479338843
5633.819580078125	-0.1536496059669995	-9.856346705929329	-2.211679801100017	0.007078352329906457	2.216255783192353	-0.7078352329906457	0.05338809034907598	-0.4338085539714867	0.5929752066115702
5653.350830078125	-0.3591256118690169	-9.842783947837649	-2.362479604366105	-0.003687919821552229	0.3791599307372308	0.3687919821552229	0.07597535934291581	-0.4256619144602851	0.6074380165289256
5672.882080078125	-0.03331359159522447	-9.707438061282454	-2.222880280159185	-0.3622067021441813	-1.483591057433259	-0.01121384355289078	0.08624229979466119	-0.405295315682281	0.6012396694214877
5692.413330078125	-0.01789058871124831	-9.399117957016637	-2.070313709625057	-0.007227095986505457	-0.7289679608589457	0.7227095986505457	0.06981519507186859	-0.4215885947046843	0.6239669421487604
5711.944580078125	0.1552489233392296	-9.596469514786982	-2.508297444640986	0.3513660581644231	0.3901391161448408	1.095278241528709	0.06160164271047228	-0.4215885947046843	0.5909090909090909
5731.475830078125	-0.3109268548887615	-9.713866349747367	-2.302438170374617	-0.003687919821552229	0.3791599307372308	0.3687919821552229	0.06160164271047228	-0.4317718940936863	0.6260330578512396
5751.007080078125	0.1296882356327595	-9.458067470478742	-2.32294118775865	0.3587790837216773	-0.7400027009129726	0.3539756858032885	0.08418891170431211	-0.4236252545824847	0.6074380165289256
5770.538330078125	-0.01586305174674952	-9.488462386731451	-2.137898275108349	-1.083304045752489	-1.11171354720349	-0.3652475986641451	0.08213552361396304	-0.4114052953156823	0.5867768595041323
5790.069580078125	-0.1515715974483475	-9.839008149841634	-1.947613418388417	-0.724636519773261	-0.7362503813664076	-0.0001161386159314638	0.08418891170431211	-0.4215885947046843	0.621900826446281
5809.600830078125	0.06476525601301535	-9.729059233889126	-2.158841867100512	-7.437182829950031e-05	0.7436439111667036	0.007437182829950031	0.06365503080082136	-0.4073319755600814	0.609504132231405
5829.132080078125	-0.1567883057409027	-9.65736155218956	-2.107056475303243	-0.007413025557254208	1.130141817057813	0.7413025557254208	0.07597535934291581	-0.4236252545824847	0.5991735537190083
5848.663330078125	0.2270155302549366	-9.609931645217571	-2.233851008497885	0.7174466097009052	-0.3645395350758898	0.7191071458515021	0.07802874743326489	-0.4114052953156823	0.5929752066115702
5868.194580078125	0.1051724668208678	-9.735994235727921	-2.505748894028926	0.003501990250803478	1.479949847179528	-0.3501990250803478	0.09240246406570843	-0.4236252545824847	0.628099173553719
5887.725830078125	-0.2288553761274281	-9.653996571614536	-2.371487462419064	0.7172606801301565	1.494570242840869	0.7377001029263772	0.07597535934291581	-0.4256619144602851	0.6177685950413223
5907.257080078125	0.1317449514645031	-9.777402465693143	-2.391498382150104	-1.083415603494938	0.003752319546564981	-0.35409182441922	0.07186858316221766	-0.4338085539714867	0.621900826446281
5926.788330078125	-0.04348755284726599	-9.58739430875395	-2.217081571757801	-0.3587047118933778	-0.003641210253730994	-0.3614128686332386	0.06365503080082136	-0.4419551934826884	0.597107438016529
5946.319580078125	0.001670292995258024	-9.886126605264865	-2.389009766508601	-0.358667525979228	-0.3754631658370828	-0.3651314600482136	0.05749486652977413	-0.4256619144602851	0.6177685950413223
5965.850830078125	-0.0330580793523238	-9.667355445657252	-2.231397354922541	0.0001115577424492505	-1.115465866750055	-0.01115577424492505	0.06365503080082136	-0.4175152749490835	0.6053719008264463
5985.382080078125	0.2113425354542953	-9.821665913536444	-2.044751181809842	-0.3550539779859753	-0.01097918540760998	-0.7264862593734864	0.07186858316221766	-0.4338085539714867	0.609504132231405
6004.913330078125	-0.2553324379889925	-9.535890821616441	-2.155585400366918	-0.00379947756400148	1.494625797487286	0.3799477564001479	0.07392197125256673	-0.4134419551934826	0.6136363636363636
6024.444580078125	-0.03419999826504035	-9.747724666105695	-2.193333391165322	0.3622810739724808	0.7399471462665556	0.003776660722940747	0.06365503080082136	-0.4093686354378818	0.609504132231405
6043.975830078125	-0.06577468709607973	-9.737933815494399	-2.14084376346401	-0.00379947756400148	1.494625797487286	0.3799477564001479	0.06570841889117043	-0.4378818737270875	0.615702479338843
6063.507080078125	-0.05708805945549081	-9.918458472557274	-2.097064684816973	-1.076188507508433	0.7327202804055106	-1.076801423069766	0.07392197125256673	-0.4399185336048879	0.6115702479338843
6083.038330078125	-0.3337242250053429	-9.734570832751729	-2.209192499821904	-0.003687919821552229	0.3791599307372308	0.3687919821552229	0.08008213552361397	-0.4256619144602851	0.615702479338843
6102.569580078125	-0.07202842810287682	-9.706622525086598	-2.26571906323744	-0.3693594263023872	-2.956202929458909	0.7040585722677049	0.08624229979466119	-0.4276985743380855	0.597107438016529
6122.100830078125	0.4328826907016414	-9.46336793000647	-2.096089690054712	-0.006966794587457206	-3.331721649942408	0.6966794587457206	0.08418891170431211	-0.4012219959266802	0.609504132231405
6141.632080078125	0.1529848009646376	-9.840534914354768	-2.099493365487919	0.01080345806560844	1.46527389687177	-1.080345806560844	0.08008213552361397	-0.4276985743380855	0.5950413223140496
6161.163330078125	-0.2943035753575791	-9.785158156032285	-2.189880821414029	0.003316060680054727	3.339059625096287	-0.3316060680054727	0.07597535934291581	-0.405295315682281	0.6012396694214877
6180.694580078125	-0.1467042469446966	-9.717434373178786	-2.10985843517678	-0.007338653728954708	0.3864979058911098	0.7338653728954707	0.08008213552361397	-0.4338085539714867	0.6115702479338843
6200.225830078125	0.1061085564268032	-9.799024900088668	-2.203618547560108	-0.01091501580805769	-0.3498080301217149	1.091501580805769	0.08008213552361397	-0.415478615071283	0.609504132231405
6219.757080078125	-0.06885424051745964	-9.788929537767311	-2.038191982751346	-0.7137215039652034	-0.3864423512446928	-1.0916177194217	0.06570841889117043	-0.4338085539714867	0.6198347107438017
6239.288330078125	-0.09767980688321595	-9.718249804225573	-2.077339770559469	0.003613547993252729	0.3644839804294728	-0.3613547993252729	0.06776180698151951	-0.4236252545824847	0.6301652892561984
6258.819580078125	0.08064723459257232	-9.867257394148403	-2.354907819752411	-0.36239263171493	0.3755187204834998	0.007379113521984299	0.06570841889117043	-0.4439918533604887	0.6363636363636364
6278.350830078125	0.1387052942294453	-9.648485288199147	-2.290176474314842	0.003501990250803478	1.479949847179528	-0.3501990250803478	0.08213552361396304	-0.415478615071283	0.6053719008264463
6297.882080078125	-0.2813055729270584	-9.894288801913081	-2.289814235764721	-0.003539176164953228	-1.108127891596177	0.3539176164953228	0.07802874743326489	-0.4338085539714867	0.615702479338843
6317.413330078125	-0.06596947575038981	-9.607996797159291	-2.134350808320341	0.00379947756400148	-1.494625797487286	-0.3799477564001479	0.06981519507186859	-0.4358452138492871	0.5950413223140496
6336.944580078125	-0.009248912298577116	-9.549657148309873	-2.025036256714097	-3.718591414975016e-05	0.3718219555833518	0.003718591414975016	0.05544147843942505	-0.4256619144602851	0.6177685950413223
6356.475830078125	-0.08287271468351579	-9.420128844414338	-1.904242843882808	-0.7248224493440097	1.122859396550351	0.01847681845894361	0.07597535934291581	-0.415478615071283	0.6260330578512396
6376.007080078125	0.3604291974786304	-9.693461226148576	-2.014306582621014	-0.7174094237867555	-0.007282420507461989	-0.7228257372664771	0.06981519507186859	-0.4276985743380855	0.6033057851239669
6395.538330078125	-0.1074026786200131	-9.478060199420471	-2.086577379332898	-0.0001115577424492505	1.115465866750055	0.01115577424492505	0.08418891170431211	-0.4093686354378818	0.609504132231405
6415.069580078125	-0.06888815109290633	-9.485607168853374	-2.37039496356979	0	0	0	0.06365503080082136	-0.4215885947046843	0.6198347107438017
6434.600830078125	-0.05679153907484066	-9.625029264300865	-2.440282030838645	-0.3587047118933778	-0.003641210253730994	-0.3614128686332386	0.08418891170431211	-0.4195519348268839	0.597107438016529
6454.132080078125	-0.09072577306254295	-9.936001333290223	-2.309140897915236	-0.7245621479449615	-1.479894292533111	-0.007553321445881495	0.09034907597535935	-0.4338085539714867	0.6136363636363636
6473.663330078125	-0.1684511778404642	-10.01779921416842	-2.051627405317862	-3.718591414975016e-05	0.3718219555833518	0.003718591414975016	0.08213552361396304	-0.4276985743380855	0.6198347107438017
6493.194580078125	-0.07805189264384987	-9.688570111954846	-2.064936911871672	0.3587047118933778	0.003641210253730994	0.3614128686332386	0.06160164271047228	-0.4114052953156823	0.6033057851239669
6512.725830078125	0.04285350394821618	-9.919477367056743	-2.095116798273873	-0.36239263171493	0.3755187204834998	0.007379113521984299	0.09034907597535935	-0.4297352342158859	0.6053719008264463
6532.257080078125	-0.007086521650325206	-9.728957975333605	-2.09711594498916	-0.72478526342986	0.7510374409669995	0.0147582270439686	0.09856262833675565	-0.4338085539714867	0.6074380165289256
6551.788330078125	0.06608697983740273	-9.76863187651924	-2.202899327913424	-0.003650733907402479	0.007337975153878983	0.3650733907402479	0.06160164271047228	-0.4215885947046843	0.6115702479338843
6571.319580078125	-0.1062962475188105	-9.514369120031082	-2.456791749372983	-0.3623182598866305	-0.3681251906832038	-5.806930796573191e-05	0.07802874743326489	-0.4317718940936863	0.615702479338843
6590.850830078125	0.06864131364837572	-9.577805975253693	-2.288043788279191	0.0001115577424492505	-1.115465866750055	-0.01115577424492505	0.06776180698151951	-0.4399185336048879	0.615702479338843
6610.382080078125	0.03838756002369008	-9.817588022259006	-2.279585334123003	-0.007189910072355707	-1.100789916442297	0.7189910072355706	0.07392197125256673	-0.4175152749490835	0.6074380165289256
6629.913330078125	0.170580446531303	-9.648178988954879	-2.352681551043434	0	0	0	0.07597535934291581	-0.4114052953156823	0.5950413223140496
6649.444580078125	0.2554057794661214	-9.600752131305955	-2.180192648870712	0.358667525979228	0.3754631658370828	0.3651314600482136	0.07392197125256673	-0.4297352342158859	0.6012396694214877
6668.975830078125	-0.1010590351573806	-9.569342421367553	-1.964698828087315	0.003427618422503978	2.223593758346232	-0.3427618422503977	0.07597535934291581	-0.4175152749490835	0.6053719008264463
6688.507080078125	-0.2715803353361604	-9.504477641758692	-2.280655488794658	-0.3587047118933778	-0.003641210253730994	-0.3614128686332386	0.08624229979466119	-0.4399185336048879	0.6260330578512396
6708.038330078125	-0.2596343493625207	-9.753948439627216	-2.345521687915979	-0.003650733907402479	0.007337975153878983	0.3650733907402479	0.08624229979466119	-0.4338085539714867	0.615702479338843
6727.569580078125	-0.1250629908654373	-9.557103700379825	-2.164566971152089	-0.365820250137434	-1.848075037862732	0.3501409557723821	0.07186858316221766	-0.4195519348268839	0.6115702479338843
6747.100830078125	0.0545463435330561	-9.579030015590979	-2.151544784435203	3.718591414975016e-05	-0.3718219555833518	-0.003718591414975016	0.06981519507186859	-0.4317718940936863	0.6136363636363636
6766.632080078125	-0.08284432443430462	-9.860119664900425	-1.905189185523181	-1.079690497759237	-0.7472295667740175	-0.7266023979894179	0.06570841889117043	-0.4297352342158859	0.615702479338843
6786.163330078125	-0.01412178312846353	-9.807899376544871	-2.195940562384549	-0.007152724158205957	-1.472611872025649	0.7152724158205956	0.1006160164271047	-0.4134419551934826	0.621900826446281
6805.694580078125	0.08628585353312708	-9.69876757402429	-2.209528451104236	-0.003613547993252729	-0.3644839804294728	0.3613547993252729	0.07597535934291581	-0.4114052953156823	0.6033057851239669
6825.225830078125	0.09148915531911034	-9.450418506446821	-2.049638510637011	-0.003725105735701979	0.7509818863205826	0.3725105735701979	0.06776180698151951	-0.4256619144602851	0.5867768595041323
6844.757080078125	-0.1949321827921968	-9.616361405769476	-2.168927240260107	-0.7175209815292047	1.108183446242593	-0.7116699630215522	0.07392197125256673	-0.4276985743380855	0.5950413223140496
6864.288330078125	-0.1162848835329457	-9.377598779008986	-2.123837215568476	0.3549424202435261	1.126445052157665	0.7376420336184115	0.08418891170431211	-0.4256619144602851	0.6177685950413223
6883.819580078125	0.3781447129864097	-9.581066542801061	-2.271490432880325	0	0	0	0.06160164271047228	-0.4195519348268839	0.6136363636363636
6903.350830078125	-0.03272685977819331	-9.467248351328282	-2.242438007393557	-0.003650733907402479	0.007337975153878983	0.3650733907402479	0.06981519507186859	-0.4236252545824847	0.615702479338843
6922.882080078125	0.1872187098051246	-9.729465950496344	-2.24062366017082	0.0001115577424492505	-1.115465866750055	-0.01115577424492505	0.08213552361396304	-0.4236252545824847	0.6115702479338843
6942.413330078125	0.1330816590315297	-9.826970263579806	-2.436055301050991	-0.3696569136155852	0.01837271520790595	0.733807303587505	0.07186858316221766	-0.4175152749490835	0.6033057851239669
6961.944580078125	-0.03409432344853205	-9.607690497915025	-2.196855885048932	0.3513660581644231	0.3901391161448408	1.095278241528709	0.07186858316221766	-0.4297352342158859	0.621900826446281
6981.475830078125	0.1037458567980057	-9.626455506301978	-2.458195226600191	-0.007375839643104458	0.7583198614744615	0.7375839643104457	0.08213552361396304	-0.4215885947046843	0.6074380165289256
7001.007080078125	-0.1301464227103067	-9.885414010009665	-2.328452576323111	-7.437182829950031e-05	0.7436439111667036	0.007437182829950031	0.07597535934291581	-0.4317718940936863	0.628099173553719
7020.538330078125	-0.01254454706117548	-9.807389403549783	-2.248515097960817	-0.003650733907402479	0.007337975153878983	0.3650733907402479	0.06776180698151951	-0.4215885947046843	0.6136363636363636
7040.069580078125	-0.18851835232457	-9.684287600584943	-2.382721589181002	-0.362243888058331	-1.111769101849907	-0.007495252137915762	0.06776180698151951	-0.4215885947046843	0.615702479338843
7059.600830078125	-0.2224762448532816	-9.628600652502561	-1.917458504890615	-0.003576362079102979	-0.7363059360128246	0.3576362079102978	0.07186858316221766	-0.4236252545824847	0.6053719008264463
7079.132080078125	0.1680568688236422	-9.648994945747022	-2.268562294121404	-0.358518782322629	-1.86275098817049	-0.3800058257081136	0.06570841889117043	-0.4256619144602851	0.6136363636363636
7098.663330078125	-0.06717606134186516	-9.575053593167205	-2.427464621937829	0.7282872536806635	0.7289124062125286	-0.3649572521243164	0.08008213552361397	-0.4215885947046843	0.6012396694214877
7118.194580078125	-0.01249880721522413	-9.627374614332924	-2.250039759492529	-0.0001115577424492505	1.115465866750055	0.01115577424492505	0.07802874743326489	-0.4073319755600814	0.5950413223140496
7137.725830078125	-0.1109538256255121	-9.775875070285583	-2.301539145816263	0.007227095986505457	0.7289679608589457	-0.7227095986505457	0.07597535934291581	-0.4134419551934826	0.609504132231405
7157.257080078125	-0.1587259402495661	-9.627988054014027	-2.042468658347798	7.437182829950031e-05	-0.7436439111667036	-0.007437182829950031	0.08008213552361397	-0.4215885947046843	0.6136363636363636
7176.788330078125	-0.1105926385661032	-9.595758286469708	-2.313578714463228	-0.003613547993252729	-0.3644839804294728	0.3613547993252729	0.08829568788501027	-0.4256619144602851	0.6033057851239669
7196.319580078125	0.04528717920004163	-9.85869047872532	-2.176239306668054	-0.36239263171493	0.3755187204834998	0.007379113521984299	0.09445585215605749	-0.4317718940936863	0.597107438016529
7215.850830078125	0.1103347604691016	-9.740991760781657	-2.011158682303385	-0.7245993338591113	-1.108072336949759	-0.003834730030906479	0.09034907597535935	-0.4215885947046843	0.621900826446281
7235.382080078125	0.1978185247953339	-9.782705343649507	-1.927284159844463	0.3551283498142748	-0.7326647257590937	0.7190490765435364	0.09034907597535935	-0.4215885947046843	0.5950413223140496
7254.913330078125	0.03222924179896391	-9.709579211818335	-2.074308059965464	0.3622067021441813	1.483591057433259	0.01121384355289078	0.07392197125256673	-0.4032586558044806	0.6053719008264463
7274.444580078125	0.02230606108162117	-9.476121040250277	-2.410202036054039	0.003427618422503978	2.223593758346232	-0.3427618422503977	0.07802874743326489	-0.4215885947046843	0.6033057851239669
7293.975830078125	-0.4194059971246987	-9.842274605736986	-2.353133429176712	-0.0001115577424492505	1.115465866750055	0.01115577424492505	0.06981519507186859	-0.4195519348268839	0.6115702479338843
7313.507080078125	0.1094735895763623	-9.727936872703644	-2.315786319212076	-0.003390432508354228	-2.595415713929583	0.3390432508354227	0.06570841889117043	-0.4236252545824847	0.6322314049586777
7333.038330078125	0.1933076296428901	-9.650830533082132	-2.11025432142967	-0.3768096377737912	-1.454239156817743	1.449079719408101	0.08418891170431211	-0.4134419551934826	0.6136363636363636
7352.569580078125	0.1963572155789916	-9.579844500296126	-2.211907185966384	-0.36239263171493	0.3755187204834998	0.007379113521984299	0.07186858316221766	-0.4175152749490835	0.6177685950413223
7372.100830078125	-0.02304972788734751	-9.887452745350242	-2.231675737088417	0.362243888058331	1.111769101849907	0.007495252137915762	0.06981519507186859	-0.4256619144602851	0.6136363636363636
7391.632080078125	-0.2486134123423454	-9.667051669990693	-2.046219588588487	-0.7207626703809601	-2.974520090020397	-0.3875010778460294	0.06981519507186859	-0.4195519348268839	0.6177685950413223
7411.163330078125	-0.1398795464815412	-9.708561053362363	-2.00401511728196	-0.3841854774168956	-0.6959192953432817	2.186663683718546	0.06981519507186859	-0.4236252545824847	0.628099173553719
7430.694580078125	0.08579060140799864	-9.578927705544746	-2.193020046933288	0.3621695162300315	1.855413013016611	0.0149324349678658	0.07186858316221766	-0.4134419551934826	0.5950413223140496
7450.225830078125	-0.05232480653228092	-9.516918354112105	-2.255839782257303	-0.7211717154366073	1.115521421396473	-0.3465965722813042	0.08008213552361397	-0.4276985743380855	0.6053719008264463
7469.757080078125	-0.05989632827329717	-9.729366479475033	-2.003455724223428	-1.090531141738995	-1.840681508062436	0.3574619999864007	0.06776180698151951	-0.4215885947046843	0.5888429752066116
7489.288330078125	0.2561415600915113	-9.670514228903746	-2.204718669717041	-0.007189910072355707	-1.100789916442297	0.7189910072355706	0.07802874743326489	-0.4236252545824847	0.6136363636363636
7508.819580078125	0.07973164905551161	-9.677553433472051	-2.324388301850387	0.006966794587457206	3.331721649942408	-0.6966794587457206	0.07186858316221766	-0.4276985743380855	0.6239669421487604
7528.350830078125	0.103144929856369	-9.646649806013107	-2.438164328545633	0.3657830642232843	2.219896993446084	-0.346422364357407	0.08213552361396304	-0.4175152749490835	0.6074380165289256
7547.882080078125	0.01285131947626299	-9.835844740036009	-2.428377315875433	-0.00379947756400148	1.494625797487286	0.3799477564001479	0.06981519507186859	-0.4175152749490835	0.615702479338843
7567.413330078125	0.05942788916131261	-9.677451649171175	-2.314262972043753	-0.7392766413170208	-0.3350765251675399	1.463896015760035	0.08008213552361397	-0.4195519348268839	0.5909090909090909
7586.944580078125	0.2331793688058983	-9.581272004086093	-2.105978960196607	-0.003613547993252729	-0.3644839804294728	0.3613547993252729	0.0595482546201232	-0.4297352342158859	0.6136363636363636
7606.475830078125	0.2037520868804716	-9.740786825241981	-2.125069562682384	-0.3661921092789315	1.870144517970786	0.3873268699221322	0.08008213552361397	-0.4215885947046843	0.5888429752066116
7626.007080078125	0.1565753788718188	-9.709373960831444	-2.219179295727294	-0.3588534555499768	1.483646612079676	-0.3465385029733385	0.08213552361396304	-0.3991853360488798	0.6053719008264463
7645.538330078125	0.2090902423502079	-9.582394154973432	-1.969674745006931	-0.735811836980367	1.51669527759534	1.117415582094662	0.07392197125256673	-0.415478615071283	0.6074380165289256
7665.069580078125	0.2056455587792509	-9.530174602661376	-2.188185292641694	-0.0001859295707487508	1.859109777916759	0.01859295707487508	0.06160164271047228	-0.4114052953156823	0.5929752066115702
7684.600830078125	0.1078419388647528	-9.551797773100397	-1.928064628825093	-0.36239263171493	0.3755187204834998	0.007379113521984299	0.07802874743326489	-0.4073319755600814	0.597107438016529
7704.132080078125	0.003913911300975281	-9.768734502012686	-2.130463710032509	-0.3552027216425743	1.476308636925797	-0.7116118937135864	0.06365503080082136	-0.4338085539714867	0.5847107438016529
7723.663330078125	0.008621172343796444	-9.610545820942173	-1.954039078126548	2.532391155728263	4.443324087853065	0.3840728329708831	0.08624229979466119	-0.4093686354378818	0.6074380165289256
7743.194580078125	0.2594750485197245	-9.999436400978622	-2.315834950657484	-0.3622067021441813	-1.483591057433259	-0.01121384355289078	0.06160164271047228	-0.4215885947046843	0.6033057851239669
7762.725830078125	0.06127404397807326	-10.06685472578042	-1.375801465935776	2.906330963791796	-1.903359847425701	-0.7780239154114451	0.08008213552361397	-0.4276985743380855	0.5950413223140496
7782.257080078125	-0.4513623770840218	-10.13927383525717	-1.621254097199275	3.996564618217592	2.91189730530355	-1.105737184078046	0.07597535934291581	-0.4276985743380855	0.6012396694214877
7801.788330078125	0.284325979995915	-9.804734599801321	-1.810865999863832	3.645644791022967	-1.940105277841513	-2.245638522586455	0.07597535934291581	-0.4175152749490835	0.6012396694214877
7821.319580078125	-0.07553856697062636	-9.751090803320501	-1.815381100979122	6.887809229495832	5.871574781076938	-0.375125848133824	0.07597535934291581	-0.4358452138492871	0.5847107438016529
7840.850830078125	-0.2490897376346664	-9.840539015168543	-1.69700874551112	7.261637479816916	0.6403567125482279	-1.526066822271227	0.1026694045174538	-0.4399185336048879	0.5785123966942149
7860.382080078125	0.007709529896903957	-9.704173918666667	-1.590317663230132	7.986534300989225	-1.226146595168827	-1.551980823560121	0.08624229979466119	-0.4317718940936863	0.5764462809917356
7879.913330078125	0.1352905781437666	-9.616256046400181	-1.509685938125555	7.627829589095847	-1.229787805422558	-1.913393692193359	0.09856262833675565	-0.4317718940936863	0.5702479338842975
7899.444580078125	0.06755380937998062	-9.834824268300473	-1.585126979332687	9.435993270106495	-1.612755610352771	-1.570341503403133	0.08829568788501027	-0.45010183299389	0.5619834710743802
7918.975830078125	0.2470535258717975	-9.713452693301452	-1.901784195726584	9.066113241006013	0.636548838355246	-0.8142226513257778	0.108829568788501	-0.4521384928716904	0.5723140495867769
7938.507080078125	-0.1633085996430715	-9.93946978055126	-1.889713345230951	9.420906917592939	3.250281712846318	-0.06170625204746624	0.1273100616016427	-0.4521384928716904	0.5371900826446281
7958.038330078125	0.04809071630964614	-9.974450668393214	-1.603023876988205	10.50804762682358	2.495547506979171	-0.08012500119844411	0.1232032854209446	-0.4562118126272912	0.5433884297520661
7977.569580078125	0.4346791625822825	-9.749453737431729	-1.489305419409414	13.0585808943464	8.017647585812895	-1.510263347683875	0.1108829568788501	-0.4643584521384928	0.5165289256198348
7997.100830078125	0.7707960547017014	-9.540775942313118	-0.6932018233900429	16.34086621988655	16.12043187362203	-3.651839379958996	0.1416837782340863	-0.4684317718940936	0.5061983471074381
8016.632080078125	0.04774135852074184	-9.671230294078294	-0.9247119506913946	20.31496864594748	24.65368636359913	-2.511357348370929	0.1375770020533881	-0.4786150712830957	0.5103305785123967
8036.163330078125	-0.5857026704972473	-10.13937719679411	-0.4765776500917558	22.85603714831409	15.32492214456042	-2.995019179234617	0.1437371663244353	-0.4887983706720977	0.5165289256198348
8055.694580078125	-0.5593257631259558	-10.26084866341072	-0.3558078958014765	25.74504409042262	4.16270328332032	-2.040640926319198	0.1375770020533881	-0.4969450101832993	0.481404958677686
8075.225830078125	-0.162733697096545	-10.18261722872788	-0.5755434301151672	26.81434017517189	-0.6453825581943029	-0.274597227333662	0.1642710472279261	-0.515274949083503	0.4710743801652892
8094.757080078125	0.1531898416533851	-9.907135284532071	-0.4396613884461675	28.97003325086881	1.228236506090963	1.547399550800397	0.1478439425051335	-0.5274949083503054	0.4607438016528926
8114.288330078125	-0.2190938621069824	-10.27084034874792	-0.6968712631005886	30.41174452120148	5.318166908214999	2.303808749417581	0.1683778234086242	-0.5193482688391038	0.4483471074380165
8133.819580078125	-0.2046913309585416	-9.702850197009928	-0.5102889680486147	30.78166173621611	2.69704050392363	1.54397130592525	0.1765913757700205	-0.5743380855397148	0.4545454545454546
8153.350830078125	-0.1452665962693636	-9.553636199460428	-0.4911134576878823	31.14442622707254	-1.396697772393387	1.499406278253516	0.1991786447638604	-0.5560081466395111	0.4421487603305785
8172.882080078125	-0.3301036796128832	-9.623400189741499	-0.3298773462372274	31.86962053555805	-6.237776724777257	1.443743545644822	0.1950718685831622	-0.5906313645621181	0.4421487603305785
8192.413330078125	0.2440102488799653	-9.437770019528813	-0.4670082959988412	32.97512647206815	-8.144666673163854	-0.4111979314523201	0.1950718685831622	-0.6008146639511202	0.4173553719008264
8211.944580078125	0.3482206016997874	-10.0407420054504	-0.274020056659577	35.51861857317522	-5.210644333105835	-1.137219636362081	0.1909650924024641	-0.6313645621181262	0.4214876033057852
8231.475830078125	0.1062631255613975	-9.972308256068482	0.1245624812867512	35.89539102503486	-3.384583220704739	-2.582580764355206	0.2197125256673511	-0.6415478615071283	0.3946280991735537
8251.007080078125	0.1059476783479399	-9.972410250667499	0.1350773884020048	36.99396735287166	-8.995016774617097	-3.744561374121603	0.2258726899383984	-0.670061099796334	0.4152892561983471
8270.538330078125	0.002143463815444452	-10.55264028003301	0.2618845394851849	38.07440156891388	-15.68422631951011	-3.092330804431685	0.242299794661191	-0.6985743380855397	0.4008264462809917
8290.069580078125	0.4608786308960042	-10.45431590934363	-0.02928769653347175	40.98401140747159	-13.87670458625618	-4.198242196433628	0.2546201232032854	-0.6965376782077393	0.384297520661157
8309.600830078125	0.3932932767946778	-10.35283517383639	-0.1097758931559259	41.7153916063474	-7.577800821447251	-4.872493968073567	0.2484599589322382	-0.7026476578411405	0.3863636363636364
8329.132080078125	0.6653696528740003	-10.09153047890407	0.4876782375333289	44.61423517275365	-7.607374940648434	-4.901778144929642	0.2607802874743327	-0.7169042769857433	0.3966942148760331
8348.663330078125	0.4056170108064329	-10.01218383317259	0.8127663064522361	46.0379902608625	-6.455330307421818	-2.349750723931018	0.2669404517453799	-0.7515274949083502	0.3863636363636364
8368.194580078125	0.09800629474914456	-10.00831129803111	0.7331235083618484	47.09972457639793	-8.645986509545221	0.1724698964398385	0.2772073921971253	-0.7413441955193482	0.3966942148760331
8387.725830078125	0.2986914460967745	-9.773423099095377	1.043618463440851	49.26622111016045	-5.307093548388184	0.9141208680130537	0.2689938398357289	-0.7902240325865579	0.4214876033057852
8407.257080078125	0.253966551554721	-10.18455081499731	1.201114948175966	52.52306285609123	1.731590698748048	1.316902796674743	0.2833675564681725	-0.7820773930753564	0.3863636363636364
8426.788330078125	0.5076649729780032	-10.43585499207045	1.077834234066564	55.41676825202408	16.58223277803481	1.801435667157917	0.3018480492813142	-0.7902240325865579	0.4235537190082645
8446.319580078125	-0.1618772579120076	-10.12234031339155	1.395908597066919	55.7645579481094	16.23606595816683	3.254350116596925	0.2792607802874744	-0.8167006109979633	0.4297520661157025
8465.850830078125	-0.4776754063945882	-10.34111504806758	1.58918021315294	55.03284307600624	13.28355979360807	3.962069210971639	0.3203285420944559	-0.810590631364562	0.4400826446280992
8485.382080078125	-0.2722640671713297	-10.24136538171873	1.408802239044321	55.01548186840881	4.396522735377022	5.698189970713478	0.3039014373716633	-0.8289205702647657	0.4545454545454546
8504.913330078125	0.1676333809395753	-10.4191318734962	1.745553968680823	56.7979788543252	5.180386623274018	8.607911668930365	0.2936344969199179	-0.8268839103869653	0.4669421487603306
8524.444580078125	0.4802825776138155	-10.0647086332382	1.990580746206156	60.0366784884614	11.14029487942959	10.82490477704837	0.3141683778234086	-0.8370672097759674	0.4772727272727273
8543.975830078125	0.218142000140374	-9.86613408662128	2.395266661987533	62.9272909391991	20.42094560011996	11.61873216704717	0.2915811088295688	-0.8513238289205702	0.4979338842975207
8563.507080078125	-0.784204138509717	-10.21689267145148	2.473471283657232	63.29005543005553	16.32720732380294	11.57416713937543	0.3018480492813142	-0.8574338085539714	0.5227272727272727
8583.038330078125	-0.5740618797026279	-10.32561334110385	3.135395990087597	63.65371238285155	3.309742113485478	11.4403559177443	0.3141683778234086	-0.855397148676171	0.5351239669421488
8602.569580078125	-0.2335736778227203	-10.08552215582935	2.785789260757341	63.66175756894935	-4.141372948489315	10.6358373079643	0.2854209445585216	-0.8716904276985743	0.5619834710743802
8622.100830078125	0.1619111684874543	-10.18098205552239	2.936294383751524	66.55650417047839	0.2982543744636011	11.01624961882817	0.2813141683778234	-0.8716904276985743	0.5805785123966942
8641.632080078125	-0.07151346052690725	-9.909789352237032	3.050448684230242	66.53359574735192	10.38147502613737	13.30709193147399	0.2854209445585216	-0.855397148676171	0.609504132231405
8661.163330078125	-0.8370928069360534	-9.883993340909324	3.236426897868444	65.42462500650517	10.43659317176109	15.5085138422365	0.2751540041067762	-0.8737270875763746	0.6136363636363636
8680.694580078125	-0.9234890669938908	-9.585261464994691	3.449635566463019	65.41825318654411	1.155720232485054	16.14569583834262	0.2833675564681725	-0.8472505091649694	0.6342975206611571
8700.225830078125	-0.7701620058026516	-9.619019048542857	3.672066860088383	65.41139794969911	-3.291467284207409	16.83121952284342	0.271047227926078	-0.8635437881873727	0.6487603305785125
8719.757080078125	-0.2544901939290607	-9.255618496037064	3.816339797635355	66.13979676112223	-3.678020744744936	16.45510649647418	0.2587268993839836	-0.8492871690427698	0.6818181818181819
8739.288330078125	0.03612580350319906	-9.4316526568673	4.129139883226698	66.89319292118491	1.461389302390661	13.57925860614782	0.271047227926078	-0.8594704684317718	0.7231404958677686
8758.819580078125	-0.04065089378024842	-8.883143788988948	4.355029792674947	66.54853335620889	7.005725525271691	11.81333104577822	0.2484599589322382	-0.8329938900203665	0.731404958677686
8778.350830078125	-0.8192298198559826	-9.168217641753435	4.640993995199419	64.7479314444121	4.771263690810684	10.71410193560267	0.2607802874743327	-0.8248472505091649	0.737603305785124
8797.882080078125	-0.6187449774888982	-8.940060876054742	4.624832582963274	65.82087826306876	-0.04416012585781764	12.11507224384796	0.2402464065708419	-0.8370672097759674	0.7623966942148761
8817.413330078125	-0.7622687279039085	-9.059800222022265	4.742290930130282	65.07090972142859	-2.959976414647183	14.64815829192391	0.2546201232032854	-0.8167006109979633	0.7913223140495868
8836.944580078125	-0.7153010036741716	-8.741280657854649	4.843366789139047	64.34984956373444	-2.959920860000766	14.29040594539769	0.2464065708418891	-0.8146639511201629	0.8264462809917356
8856.475830078125	-0.6061617881440743	-8.842658978166584	4.872059604802473	64.70076939092907	1.892081723144296	15.43030728390609	0.242299794661191	-0.7861507128309572	0.8305785123966942
8876.007080078125	-0.8592695346601571	-8.634497149540119	5.308984488671896	63.27269422245811	7.440170265571891	13.31028789911727	0.2238193018480493	-0.7820773930753564	0.8533057851239669
8895.538330078125	-1.282583134141562	-8.361368546705771	5.419437804718722	63.64592749815279	8.15810348637681	12.21884438761947	0.215605749486653	-0.7841140529531567	0.8698347107438017
8915.069580078125	-1.493455653247805	-8.046217327883458	6.115188441593502	62.20108609671082	-1.129996318760272	11.77544829993288	0.2320328542094456	-0.7637474541751527	0.8739669421487604
8934.600830078125	-1.182871058585645	-8.139128308942691	6.095701952854836	64.72338032674233	-5.216563283862662	13.16921370258008	0.2299794661190965	-0.745417515274949	0.8884297520661157
8954.132080078125	-1.082328568240302	-8.119952903731031	6.077618941343379	66.1688167028107	-1.877614768059209	13.55311232762707	0.2299794661190965	-0.7209775967413441	0.9090909090909092
8973.663330078125	-0.8279282767670763	-8.137696809488022	6.597609225569204	68.6899209835894	5.934120845505659	15.06587265555347	0.2135523613963039	-0.7209775967413441	0.9586776859504132
8993.194580078125	-0.9174529845643793	-7.576643131675816	6.581766152145974	69.03692977547759	13.39621509288806	16.59687752470695	0.215605749486653	-0.7026476578411405	0.9545454545454546
9012.725830078125	-1.275004514838243	-7.592251459797699	6.500150494608087	69.76532858690068	13.00966163235054	16.22076449833771	0.2073921971252567	-0.7026476578411405	0.9772727272727273
9032.257080078125	-1.563212072795754	-7.408771903537294	6.440402426525115	68.31985502491816	10.04253507213043	15.8405844647057	0.1971252566735113	-0.6720977596741343	1.008264462809917
9051.788330078125	-1.272895750216279	-7.384902959236597	6.76319167387595	67.95794581008718	5.584368370030361	15.79962188983301	0.1663244353182751	-0.6415478615071283	1.012396694214876
9071.319580078125	-1.067028589769574	-7.238339244025495	6.900952992319123	66.15749264194699	1.862618713235946	14.68551841399756	0.1724845995893224	-0.6293279022403258	1.03099173553719
9090.850830078125	-1.164775429185649	-6.80661072210336	6.825847639521645	65.0703147468022	2.989174874686445	14.70765575456351	0.1786447638603696	-0.625254582484725	1.051652892561983
9110.382080078125	-1.120967697416724	-6.625779555498074	6.69892324722413	63.9942377970362	2.6064292883419	13.61969855724882	0.1683778234086242	-0.5947046843177188	1.06198347107438
9129.913330078125	-1.259393032244225	-6.4272037470923	6.979767741474184	63.9942377970362	2.6064292883419	13.61969855724882	0.1581108829568789	-0.5621181262729124	1.076446280991736
9149.444580078125	-1.43925787888562	-6.44536004750635	6.975262629520654	62.53036182186008	1.163280426224601	15.07975984297795	0.1375770020533881	-0.5336048879837066	1.090909090909091
9168.975830078125	-0.9507302997300561	-6.290736130246052	7.024343324335201	61.81324988538653	-1.818577638949675	14.32718537439168	0.1663244353182751	-0.5030549898167006	1.105371900826446
9188.507080078125	-1.115773070429111	-6.020766626105412	7.192435680970357	60.37109238408406	-1.446644574073489	13.61539927275419	0.1581108829568789	-0.4969450101832993	1.115702479338843
9208.038330078125	-1.36887135352879	-5.959268404307642	7.295711784292989	58.21141390125239	0.03347193704529012	12.19194320809516	0.1540041067761807	-0.4806517311608961	1.136363636363636
9227.569580078125	-1.441757798052271	-5.479501688036901	7.391926601742372	57.48670300965082	0.04086546684558607	12.19926425230917	0.1581108829568789	-0.460285132382892	1.142561983471075
9247.100830078125	-1.74335451298499	-5.34701795919848	7.445150432833008	54.95788821600167	-3.666152684994654	11.45755521142799	0.1457905544147844	-0.4378818737270875	1.167355371900826
9266.632080078125	-1.296034591941428	-5.002384518061062	7.534486398047592	53.88210875354888	-7.023473916006013	10.3398492827935	0.1560574948665298	-0.4195519348268839	1.171487603305785
9286.163330078125	-1.565657577318084	-5.286229283332847	7.188585910602785	52.07744706278903	-5.160556263896273	9.646598068922929	0.1581108829568789	-0.4175152749490835	1.175619834710744
9305.694580078125	-1.251997372324712	-5.044812483718324	7.733245744157063	51.34137492440962	-1.04110729721747	10.79004379092242	0.1293634496919918	-0.3767820773930753	1.167355371900826
9325.225830078125	-1.665286847980468	-4.791776080847018	7.84289493268225	50.25777339134393	0.8217548002458546	10.45454492357807	0.1314168377823409	-0.3747454175152749	1.196280991735537
9344.757080078125	-1.886539157645534	-4.49998099430539	7.884638588184451	48.08751456593156	-1.394334319007247	10.08912311699003	0.1519507186858316	-0.3258655804480651	1.200413223140496
9364.288330078125	-1.872859000615911	-4.292224410199144	8.095300020530356	46.2795740004058	-3.242298247577145	9.723759379709952	0.1293634496919918	-0.3380855397148676	1.221074380165289
9383.819580078125	-1.775485177529749	-4.054073540734619	8.182839250991622	45.91710699686257	-2.123135615926942	9.738575676061886	0.1437371663244353	-0.3075356415478615	1.225206611570248
9403.350830078125	-1.737190674434029	-3.985024984733669	8.239689147800952	44.83380295111009	-3.234849163130432	9.373328077397741	0.1478439425051335	-0.285132382892057	1.231404958677686
9422.882080078125	-1.754680645184186	-4.037346741942887	8.489354839472856	43.75046171944344	-3.974740754750571	9.011799070148571	0.1293634496919918	-0.2627291242362525	1.245867768595041
9442.413330078125	-1.500184142310856	-3.76839287268051	8.339471410361861	42.30100275032618	-3.588131739566627	9.030159749991583	0.1314168377823409	-0.2484725050916497	1.237603305785124
9461.944580078125	-1.483079017161117	-3.529528882215428	8.435967238703901	41.94200055111961	-0.6171973051535439	8.698495612678144	0.1232032854209446	-0.2443991853360488	1.241735537190083
9481.475830078125	-1.978724662688352	-3.146454307602567	8.624155422945051	40.13011176437325	0.5167523860972515	8.727953997458116	0.1293634496919918	-0.2382892057026476	1.247933884297521
9501.007080078125	-1.48056490286986	-3.382049318594588	8.685496762328663	39.77535527370047	-2.468802443977173	7.97171900676483	0.1437371663244353	-0.1873727087576375	1.256198347107438
9520.538330078125	-1.691552560209016	-3.060268661134248	8.718418673633844	39.77535527370047	-2.468802443977173	7.97171900676483	0.1129363449691992	-0.1914460285132383	1.256198347107438
9540.069580078125	-1.630054548709387	-2.820384304082701	8.668484956979571	38.69205122794799	-3.580515991180663	7.606471408100685	0.1540041067761807	-0.1547861507128309	1.252066115702479
9559.600830078125	-1.348866479869342	-2.882800161824421	8.628882662311392	37.96711722086152	-1.342190727880257	7.636104000804553	0.1375770020533881	-0.1405295315682281	1.262396694214876
9579.132080078125	-1.585055215091626	-2.66250118621296	8.835173836387519	36.5174723221735	0.9035280652204462	7.67305763772244	0.1293634496919918	-0.1283095723014256	1.254132231404959
9598.663330078125	-1.654007244245257	-2.491462342305967	8.800241474841901	35.78937099806359	-1.684494118908841	8.019421932771882	0.1170431211498973	-0.1323828920570265	1.260330578512397
9618.194580078125	-1.730996079779755	-2.433022065795454	9.033202659325157	35.07214750384758	-3.550886317333062	7.27800323843053	0.1334702258726899	-0.09164969450101833	1.268595041322314
9637.725830078125	-2.009644798551466	-2.169785151531641	8.988159951715547	34.72096737525391	-5.800135211394662	6.164132039826945	0.1211498973305955	-0.08553971486761711	1.276859504132231
9657.257080078125	-1.81515424185811	-2.153566538200789	9.171808061937009	33.27925610492124	-9.890065613518697	5.407722841209761	0.1375770020533881	-0.06924643584521384	1.264462809917355
9676.788330078125	-2.072728720916753	-2.053515619763083	9.424290697225089	32.55156382586697	-16.56812930906485	5.713182630694478	0.1273100616016427	-0.06109979633401221	1.270661157024793
9696.319580078125	-1.499352150285362	-2.218123861925601	9.311738342845381	34.00541724717464	-24.39851541106972	5.255376731811717	0.1375770020533881	-0.05295315682281058	1.28099173553719
9715.850830078125	-1.053529814887689	-1.997307973480353	8.784327162922965	34.35998780827667	-19.55385080307853	6.030204679579879	0.1457905544147844	-0.0285132382892057	1.266528925619835
9735.382080078125	-1.022761093687034	-1.960692753625474	9.092036456234458	31.46770199140223	-12.10251352251807	5.403713903254958	0.1642710472279261	-0.02443991853360489	1.264462809917355
9754.913330078125	-1.372540004621302	-1.547121268160888	9.084666820710055	28.93084201165528	-8.358416612383515	5.466523472153773	0.1704312114989733	0.006109979633401222	1.268595041322314
9774.444580078125	-1.379859957209586	-1.436154719497766	8.995331906986182	27.12644062229448	-9.098252649357237	4.747242118378374	0.1642710472279261	0.01221995926680244	1.258264462809917
9793.975830078125	-1.447505246281469	-1.294693362964342	8.916841542715627	26.06135306016485	-9.87483411674677	2.560346157427964	0.1909650924024641	0.02240325865580448	1.274793388429752
9813.507080078125	-1.071197224695416	-1.299687102651518	9.039907489847199	24.26432751044716	-11.37299001519495	1.103480839342119	0.1806981519507187	0.02647657841140529	1.276859504132231
9833.038330078125	-0.9193914076910764	-1.090603221820115	8.979713589702541	23.17364762505157	-11.72638370092398	1.47581720498842	0.1704312114989733	0.03665987780040733	1.28099173553719
9852.569580078125	-1.125784576366222	-1.307337013025078	8.859485878874052	21.36902312020587	-10.23528800439759	0.7788473997028704	0.1909650924024641	0.0570264765784114	1.247933884297521
9872.100830078125	-1.13567226927205	-0.957200700397963	8.855742309068345	21.00242196587129	-4.275101975009938	1.207078775189728	0.1786447638603696	0.04276985743380855	1.270661157024793
9891.632080078125	-1.122584364385694	-1.126302277818041	8.752812146189804	19.54912633327587	-2.022045206755355	1.609105802847863	0.2032854209445585	0.08350305498981669	1.268595041322314
9911.163330078125	-1.434515918649318	-1.047160147029946	9.150530621643936	18.11102861093645	-5.747491628449918	0.4913418049054063	0.188911704312115	0.06924643584521384	1.28099173553719
9930.694580078125	-1.217227203221347	-0.8002367957082356	9.240906774044898	17.75597463295048	-5.758470813857528	-0.2351444544680801	0.2053388090349076	0.07535641547861506	1.268595041322314
9950.225830078125	-1.136913554057006	-0.8309353824784319	9.230451801900202	17.3936191871497	-5.754774048957381	-0.2314839323610709	0.2032854209445585	0.1079429735234216	1.289256198347108
9969.757080078125	-1.084809560574146	-0.7807550912523071	9.160318685804848	17.02705521872927	-0.1664099751530765	0.1930288517108115	0.1950718685831622	0.1038696537678208	1.266528925619835
9989.288330078125	-1.110255110047704	-0.6489824855820908	9.008503668256783	15.93630096150538	0.2238402502845983	0.5728024001870623	0.1848049281314169	0.09164969450101833	1.268595041322314
10008.81958007812	-1.316466107957077	-0.3556573749061216	8.882203598569236	14.10973486730112	2.130785753317613	2.069991530757975	0.1950718685831622	0.1221995926680244	1.276859504132231
10028.35083007812	-1.226879099335116	-0.3266909087850209	8.895969977837204	12.29456720578886	-0.4461461361112305	2.427337392128444	0.188911704312115	0.1344195519348269	1.270661157024793
10047.88208007812	-1.040780227137766	-0.2565189401078777	8.692674237925534	10.84171780416324	-2.654952834856871	2.784741322806879	0.1827515400410678	0.1425661914460285	1.256198347107438
10067.41333007812	-1.44091791984644	-0.4958967940836824	9.030597328214675	9.041190264194741	-5.633058580484582	1.678075029801382	0.1704312114989733	0.1262729124236252	1.28099173553719
10086.94458007812	-0.8431154828589928	-0.322607339457741	9.10384942863309	7.950807866112345	-8.961027910880425	2.020662664127883	0.188911704312115	0.1486761710794297	1.272727272727273
10106.47583007812	-0.8585353312708343	0.2090735762224302	8.95117770902781	7.950436006970848	-5.242808355046907	2.057848578277633	0.1950718685831622	0.1425661914460285	1.241735537190083
10126.00708007812	-1.309215553755754	-0.2799796957143605	9.307185125191799	5.776266146252016	-4.848805810062667	2.083530302334664	0.1971252566735113	0.164969450101833	1.28099173553719
10145.53833007812	-1.223368171849333	-0.07222237556461766	9.445605728311097	4.700412311970931	-7.462483129907322	0.9732615565301226	0.188911704312115	0.1507128309572301	1.256198347107438
10165.06958007812	-0.8798571970464678	-0.2344871603783579	9.328573234882258	5.055280360386158	-5.592394166582954	1.718340772978484	0.2258726899383984	0.1384928716904277	1.270661157024793
10184.60083007812	-0.8175642585689266	-0.3143457769372862	9.252141952297546	4.696129417522982	-1.134171909836464	1.401551001324946	0.1950718685831622	0.1405295315682281	1.268595041322314
10204.13208007812	-1.023996858145754	-0.3644256508004604	9.466561938191798	3.242647855356812	2.977994636334877	1.822170986057956	0.2073921971252567	0.1710794297352342	1.276859504132231
10223.66333007812	-1.493961946025405	-0.1997143625482141	9.465398200846817	1.793560745381039	-0.3536159043146968	1.803345751751218	0.2073921971252567	0.1629327902240326	1.278925619834711
10243.19458007812	-1.23312337692551	-0.4420432252059148	9.437445897516984	1.076746296220679	-6.310049614155787	1.021022551845141	0.2197125256673511	0.1547861507128309	1.247933884297521
10262.72583007812	-0.8784006195383273	-0.3640162003173925	9.280020651277574	2.522554531430548	-6.689320654185853	1.367735262742376	0.1930184804928131	0.1547861507128309	1.268595041322314
10282.25708007812	-1.127122072551282	-0.1344361367915811	9.570735751709394	2.869786438803621	-1.458158140303559	2.876428583406009	0.2361396303901437	0.175152749490835	1.260330578512397
10301.78833007812	-1.273834994294349	-0.1618733148218394	9.461166476478283	2.851644327009058	-2.53693413128422	4.690639762862323	0.215605749486653	0.1547861507128309	1.272727272727273
10321.31958007812	-1.165912616390164	-0.2936450792994864	9.530420546338801	3.583768244167873	-3.674469478142329	3.942016162922883	0.2238193018480493	0.175152749490835	1.264462809917355
10340.85083007812	-1.136696684097754	-0.4141985945249405	9.556556136591798	3.228565522525299	-2.198160841216532	3.230404269209297	0.215605749486653	0.1527494908350305	1.266528925619835
10360.38208007812	-0.8752698059447604	0.003662762744527446	9.508993531492015	2.866210076724518	-2.194464076316384	3.234064791316306	0.1971252566735113	0.1690427698574338	1.270661157024793
10379.91333007812	-0.8173631609703473	-0.09761408871374559	9.578772032344904	2.511416400137592	-4.808196950807456	2.481548392037995	0.2299794661190965	0.1588594704684318	1.270661157024793
10399.44458007812	-0.7831544879069369	-0.03988661775657622	9.771816263564558	2.870195483859268	-5.548199651720429	2.835524077841284	0.2320328542094456	0.1670061099796334	1.266528925619835
10418.97583007812	-0.9185223506180006	-0.3369888933664869	9.617411687266683	2.877459765759924	-5.191053646444836	2.109095887775763	0.2197125256673511	0.1731160896130346	1.266528925619835
10438.50708007812	-0.5654375528866969	-0.4294914754333654	9.514585096223229	2.891728028162186	-1.874007946810185	0.6822696475495463	0.2135523613963039	0.1873727087576375	1.264462809917355
10458.03833007812	-0.9765938167614456	-0.1257653340862007	9.553127225381512	3.601575682735088	0.7507041130884976	2.161272306201345	0.2217659137577002	0.1731160896130346	1.260330578512397
10477.56958007812	-1.044735935194525	-0.2844646190462296	9.491197839817481	3.246447332920814	1.483368838847591	1.442223229657808	0.2320328542094456	0.1731160896130346	1.258264462809917
10497.10083007812	-0.8269519676414249	-0.1573811362040607	9.565065588047494	2.152079527703668	1.509135083855793	2.183351577459332	0.2258726899383984	0.164969450101833	1.262396694214876
10516.63208007812	-1.069770614672554	-0.07589249874412579	9.659020489085131	1.800862213195844	-0.3682918546224548	1.073198970270722	0.2361396303901437	0.1710794297352342	1.266528925619835
10536.16333007812	-0.9942785761659128	-0.04815007296031176	9.809285872197087	1.446031350694767	-2.610202773530176	0.3244011624073856	0.242299794661191	0.1812627291242362	1.268595041322314
10555.69458007812	-0.9937226004521937	0.002029692520457399	9.790753348406453	0.7359233947228162	-2.632161144345396	-1.128571356339587	0.2299794661190965	0.1873727087576375	1.260330578512397
10575.22583007812	-0.9842008263139759	-0.4548916005081855	9.473360877132521	1.076262879336732	-1.476364191572214	1.069364240239816	0.2032854209445585	0.175152749490835	1.266528925619835
10594.75708007812	-0.7480657171179798	-0.2885412485348134	9.602190570599321	1.453258446681272	-1.88123481267123	-0.3983084362431601	0.2361396303901437	0.1771894093686354	1.260330578512397
10614.28833007812	-1.03336879485758	-0.007455910337284052	9.778959828585984	1.094442177045445	-0.7694101561749055	-0.7485655306314736	0.2361396303901437	0.1710794297352342	1.28305785123967
10633.81958007812	-1.037624966385156	-0.04549873913120055	9.58749887950521	1.815427962911304	-0.02582179965461892	-0.3833760012752943	0.2443531827515401	0.1995926680244399	1.268595041322314
10653.35083007812	-1.260761284532598	-0.1109794819988733	9.358709484419931	2.17044475498313	0.3569793413363428	0.3468288495131672	0.2299794661190965	0.1629327902240326	1.264462809917355
10672.88208007812	-0.7979757752312426	-0.1180121673247684	9.599192507708084	1.800899399109993	-0.7401138102058066	1.069480378855747	0.2217659137577002	0.1934826883910387	1.264462809917355
10692.41333007812	-0.8598783477821302	-0.08802733244955541	9.662611592737669	1.08714070923064	-0.7547342058671476	-0.01841874915097788	0.2238193018480493	0.1812627291242362	1.28305785123967
10711.94458007812	-0.8290993745470376	0.01192453556312454	9.636645818234584	1.80801493735405	1.104320017403194	0.3579265544501265	0.2135523613963039	0.185336048879837	1.285123966942149
10731.47583007812	-1.044780097804409	-0.0444788982900921	9.492669926813617	1.804512947103246	-0.3756298297763337	0.7081255795304743	0.2320328542094456	0.1914460285132383	1.247933884297521
10751.00708007812	-0.836285262069602	-0.1770655680691713	9.542842068986728	1.449458969117271	-0.3866090151839437	-0.01836067984301215	0.2238193018480493	0.1690427698574338	1.272727272727273
10770.53833007812	-0.9409727287997787	0.0424188176880716	9.699090959992619	1.804512947103246	-0.3756298297763337	0.7081255795304743	0.2299794661190965	0.1832993890020367	1.256198347107438
10790.06958007812	-0.8981870460024558	0.0629195217925393	9.606234866748524	1.815427962911304	-0.02582179965461892	-0.3833760012752943	0.2443531827515401	0.185336048879837	1.25
10809.60083007812	-1.152808150525101	-0.0527413020031161	9.426938350836711	1.083415603494938	-0.003752319546564981	0.35409182441922	0.2258726899383984	0.1832993890020367	1.28305785123967
10829.13208007812	-0.8878632473240219	-0.1570757833014337	9.595441577467394	1.090865814966342	-1.50571609218773	-0.3909293227211758	0.2381930184804928	0.2016293279022403	1.260330578512397
10848.66333007812	-0.7518652788040766	-0.06976977347998475	9.72884262680255	0.362541375371529	-1.862806542816907	-0.02225347918188436	0.2258726899383984	0.175152749490835	1.256198347107438
10868.19458007812	-1.035656575773181	0.1151377071666715	9.521885859106026	1.442157501302466	-0.3719330648761858	0.7117861016374836	0.2176591375770021	0.2016293279022403	1.270661157024793
10887.72583007812	-0.9283800760385509	-0.006842891252464772	9.612669201285026	0.7247108916015605	-0.007393529800295976	-0.007321044214018567	0.2320328542094456	0.185336048879837	1.260330578512397
10907.25708007812	-1.139384294356413	-0.09506758850857347	9.646143145213758	0.7175953533575042	-1.851827357409297	0.7042327801916021	0.2320328542094456	0.1975560081466395	1.247933884297521
10926.78833007812	-0.895348809699371	-0.1461627818027966	9.51162698997903	1.801048142766592	-2.227401632539214	1.054606013195847	0.2258726899383984	0.1832993890020367	1.254132231404959
10946.31958007812	-0.9102095279253589	-0.05763441402919938	9.673650930845296	2.159566925089222	-0.3646506443687237	1.434611838903961	0.2402464065708419	0.1914460285132383	1.262396694214876
10965.85083007812	-1.207464900582868	0.1262530154782061	9.582163352762253	1.43489321940181	-0.7290790701517795	1.438214291703004	0.2381930184804928	0.1914460285132383	1.274793388429752
10985.38208007812	-0.7244111191988273	0.002440404792379207	9.480370639960904	-0.3657086923949848	-2.963540904612787	0.338985181527457	0.2299794661190965	0.2097759674134419	1.272727272727273
11004.91333007812	-0.7108721247972266	-0.04651532035110327	9.362404159907552	-0.7245249620308118	-1.851716248116463	-0.01127191286085651	0.2217659137577002	0.1955193482688391	1.262396694214876
11024.44458007812	-0.6859920144537914	-0.08180408467339254	9.866400481793043	0.3513660581644231	0.3901391161448408	1.095278241528709	0.2279260780287475	0.2118126272912423	1.243801652892562
11043.97583007812	-0.6910580967019206	0.2098912153997123	9.701936556730683	-0.3584815964084793	-2.234572943753842	-0.3837244171230887	0.2484599589322382	0.175152749490835	1.254132231404959
11063.50708007812	-0.5887585653776179	0.1096347305279036	9.625285512587263	0.00383666347815123	-1.866447753070638	-0.3836663478151229	0.2320328542094456	0.1914460285132383	1.274793388429752
11083.03833007812	-0.8187747872505701	0.001929485455649038	9.625826241685665	1.087066337402341	-0.01109029470044396	-0.01098156632102785	0.2361396303901437	0.1873727087576375	1.235537190082645
11102.56958007812	-0.9838688181218116	-0.04478425119271907	9.462293937393717	1.083378417580789	0.3680696360367868	0.357810415834195	0.215605749486653	0.185336048879837	1.270661157024793
11122.10083007812	-0.6820465584314703	-0.1171950538928421	9.401551947715676	0.3550539779859753	0.01097918540760998	0.7264862593734864	0.242299794661191	0.2097759674134419	1.274793388429752
11141.63208007812	-0.710512514973885	-0.2863990465082228	9.350417165796163	0.3587790837216773	-0.7400027009129726	0.3539756858032885	0.2381930184804928	0.1914460285132383	1.258264462809917
11161.16333007812	-0.9426154201638591	-0.0547789858529811	9.420514005461968	-1.079653311845087	-1.11905152235737	-0.7303209894043929	0.2320328542094456	0.2057026476578411	1.254132231404959
11180.69458007812	-0.6743654187837775	-0.04804481874008807	9.478847292792583	-1.797025549717692	-1.498155898448183	-1.456865318085845	0.242299794661191	0.1894093686354379	1.274793388429752
11200.22583007812	-1.012348969788832	0.006007166434944398	9.411632326294392	-1.800676283625095	-1.490817923294304	-1.091791927345597	0.2402464065708419	0.1934826883910387	1.256198347107438
11219.75708007812	-0.815795388319463	0.04955949111004033	9.859846277315429	-2.163068915340025	-1.115299202810804	-1.084412813823613	0.2484599589322382	0.2097759674134419	1.262396694214876
11239.28833007812	-0.4869393024358045	0.1192229588790898	9.564643414526817	-1.797025549717692	-1.498155898448183	-1.456865318085845	0.2361396303901437	0.1812627291242362	1.264462809917355
11258.81958007812	-0.7452708548067453	-0.04763757638751429	9.509028493558173	-1.072351844030281	-1.133727472665127	-1.460467770884889	0.2587268993839836	0.1934826883910387	1.260330578512397
11278.35083007812	-0.6529804635654526	-0.1377970165528297	9.432682118848417	-0.7213204590932063	2.60280924372988	-0.3317222066214042	0.2340862422997947	0.185336048879837	1.262396694214876
11297.88208007812	-1.005118919656383	-0.04498845068889729	9.503963988546111	-1.431354043236857	1.837206961747956	-1.792131908198327	0.2340862422997947	0.1792260692464358	1.264462809917355
11317.41333007812	-0.8342466844526322	0.006926905360315639	9.141556148421069	-1.793523559466889	-0.01820605126865497	-1.807064343166193	0.2340862422997947	0.1914460285132383	1.274793388429752
11336.94458007812	-0.7359533327392411	-0.2279582442523546	9.531777757974702	-1.442008757645867	-1.115354757457222	-0.7266604672973836	0.2340862422997947	0.1832993890020367	1.278925619834711
11356.47583007812	-0.8284527077594496	0.2121336244911113	9.615090258648314	-1.445808235209868	0.3792710400300648	-0.3467127108972357	0.2381930184804928	0.1894093686354379	1.274793388429752
11376.00708007812	-0.976278369547988	-0.1256633394871827	9.54261231826626	-0.7286219269080112	2.617485194037638	0.3984245748590916	0.2340862422997947	0.1975560081466395	1.266528925619835
11395.53833007812	-1.11825958308919	-0.1515705985321716	9.275319436306344	-2.17439297620373	2.62493427848435	0.04799327254688081	0.2258726899383984	0.2057026476578411	1.268595041322314
11415.06958007812	-0.8977816963331627	0.003050584852277383	9.592723211105424	-2.174132674804682	0.02218058940088793	0.0219631326420557	0.2361396303901437	0.1792260692464358	1.266528925619835
11434.60083007812	-0.8786040829910075	0.1225846798329076	9.620136099700245	-3.623442900265354	-1.078498217748576	0.02544944682516779	0.2505133470225873	0.1955193482688391	1.239669421487603
11454.13208007812	-0.7221091431586203	-0.3401486229546206	9.736971438620674	-3.249949323171617	-2.963318686027119	-1.09202420457746	0.2402464065708419	0.1832993890020367	1.270661157024793
11473.66333007812	-0.7462424322241947	-0.1012850530858229	9.874747740806487	-3.619829352272101	-0.7140142373191027	-0.3359053525001051	0.2238193018480493	0.185336048879837	1.264462809917355
11493.19458007812	-0.7530521489447108	-0.1201535281587898	9.768404964823691	-2.174318604375431	1.881290367317647	0.04055608971693078	0.2525667351129364	0.1873727087576375	1.266528925619835
11512.72583007812	-0.8493889393166311	-0.207969090379044	9.64629797722103	-1.087103523316491	0.3829122502837958	0.01470015773600287	0.2464065708418891	0.1812627291242362	1.268595041322314
11532.25708007812	-0.8552467940705388	-0.08986313008280754	9.84155980235129	-0.7248968211723092	1.866503307717055	0.02591400128889364	0.242299794661191	0.1995926680244399	1.264462809917355
11551.78833007812	-1.316495286824322	-0.1256668094065308	9.883176227477398	-1.804401389360797	-0.7398360369737216	-0.7192813537753994	0.2340862422997947	0.185336048879837	1.285123966942149
11571.31958007812	-0.9997515853194022	-0.11658634591994	9.658386177313403	-1.086880407831592	-1.848019483216315	-0.007611390753847227	0.242299794661191	0.1792260692464358	1.260330578512397
11590.85083007812	-0.8521522569065196	-0.04886256306644134	9.738408563550653	-1.804178273875898	-2.970767770473832	-0.7415929022652494	0.2464065708418891	0.1894093686354379	1.274793388429752
11610.38208007812	-0.6407072011078507	0.09617133830846163	10.02357337026169	-0.01464012154375966	0.4011738561988677	1.464012154375967	0.2299794661190965	0.1832993890020367	1.254132231404959
11629.91333007812	-0.9211295218372277	0.06883478793929637	10.03765072790759	-0.3660433656223325	0.3828566956373787	0.3724525042622321	0.242299794661191	0.1731160896130346	1.262396694214876
11649.44458007812	-1.026603240746947	0.2513982854918203	9.886774691564915	0.7137586898793531	0.01462039566134097	1.087899128006725	0.2320328542094456	0.1731160896130346	1.268595041322314
11668.97583007812	-0.697718764614078	-0.1189290672252185	9.590625487135931	0.7211345295224576	-0.7436994658131205	0.3503151636962792	0.2361396303901437	0.1873727087576375	1.260330578512397
11688.50708007812	-1.132173959674805	-0.06273624696152044	9.405798655826848	0.7174094237867555	0.007282420507461989	0.7228257372664771	0.2320328542094456	0.1771894093686354	1.247933884297521
11708.03833007812	-0.6449988604469414	-0.05854963154451105	9.499962014898045	1.076039763851834	0.7545675419278965	1.091675788729666	0.2402464065708419	0.1792260692464358	1.272727272727273
11727.56958007812	-1.188333815704697	-0.1442279337445188	9.611127190156575	0.717483795615055	-0.7363614906592416	0.7153885544365272	0.2238193018480493	0.1894093686354379	1.262396694214876
11747.10083007812	-0.825104235588597	-0.126783702840313	9.503474519619896	-0.003427618422503978	-2.223593758346232	0.3427618422503977	0.2279260780287475	0.1670061099796334	1.260330578512397
11766.63208007812	-0.6048274464311486	-0.1888942076794047	9.494248214371616	-0.369396612216537	-2.584380973875557	0.7077771636826798	0.2320328542094456	0.1955193482688391	1.256198347107438
11786.16333007812	-0.6596797737612585	-0.08996312684947359	9.655992458708617	-1.086843221917442	-2.219841438799667	-0.01132998216882224	0.2381930184804928	0.1771894093686354	1.266528925619835
11805.69458007812	-0.6246801168101032	-0.06864657110193335	9.489337227003437	0.003725105735701979	-0.7509818863205826	-0.3725105735701979	0.2566735112936345	0.175152749490835	1.256198347107438
11825.22583007812	-0.9137906424161365	-0.3354589743812175	9.459688080537878	-1.086917593745742	-1.476197527632963	-0.00389279933887221	0.2464065708418891	0.1812627291242362	1.268595041322314
11844.75708007812	-0.6671960922399197	-0.2690600698242407	9.573203074663988	-0.3621695162300315	-1.855413013016611	-0.0149324349678658	0.2484599589322382	0.185336048879837	1.274793388429752
11864.28833007812	-0.5799071165679974	-0.1808366343569858	9.663570552266579	-0.003650733907402479	0.007337975153878983	0.3650733907402479	0.2505133470225873	0.1934826883910387	1.258264462809917
11883.81958007812	-1.029494314458286	-0.276203161674846	9.649810481942881	-0.3623182598866305	-0.3681251906832038	-5.806930796573191e-05	0.2279260780287475	0.1710794297352342	1.260330578512397
11903.35083007812	-0.8408363767417616	-0.0885370951465029	9.69454589139205	-0.358518782322629	-1.86275098817049	-0.3800058257081136	0.2279260780287475	0.1914460285132383	1.256198347107438
11922.88208007812	-1.017937905793267	-0.2657999228731563	9.597930193108898	-1.075853834281085	-2.613677319844656	-1.110268745804541	0.2279260780287475	0.175152749490835	1.245867768595041
11942.41333007812	-0.9874901521323051	-0.3659551491894452	9.583005071076828	-1.438283651910165	-1.866336643777804	-1.099171040867581	0.2361396303901437	0.1792260692464358	1.28305785123967
11961.94458007812	-0.8485624676173722	-0.127701864529617	9.618748920579065	-1.075816648366935	-2.985499275428007	-1.113987337219516	0.2484599589322382	0.1894093686354379	1.264462809917355
11981.47583007812	-0.5595284379606023	-0.2309141949405947	9.650947932020074	0.00379947756400148	-1.494625797487286	-0.3799477564001479	0.2320328542094456	0.1792260692464358	1.266528925619835
12001.00708007812	-0.7512801242231127	-0.2495805734988064	9.709337474103755	-0.3622067021441813	-1.483591057433259	-0.01121384355289078	0.2402464065708419	0.164969450101833	1.264462809917355
12020.53833007812	-0.8633979500662834	0.01416799614523505	9.446598335542777	0.7211717154366073	-1.115521421396473	0.3465965722813042	0.2484599589322382	0.1894093686354379	1.264462809917355
12040.06958007812	-0.9829382488421117	-0.2444833671256161	9.431274961403718	0.7210973436083078	-0.3718775102297688	0.3540337551112543	0.2443531827515401	0.1731160896130346	1.274793388429752
12059.60083007812	-0.7844959271821653	0.08301298354443323	9.483197572738842	-0.003725105735701979	0.7509818863205826	0.3725105735701979	0.2443531827515401	0.1812627291242362	1.28099173553719
12079.13208007812	-0.86258567349163	0.3144306322377063	9.419522449720999	-0.7247108916015605	0.007393529800295976	0.007321044214018567	0.2443531827515401	0.1771894093686354	1.247933884297521
12098.66333007812	-0.9651422942949006	-0.04539600848868452	9.504743143163351	-1.086917593745742	-1.476197527632963	-0.00389279933887221	0.2607802874743327	0.1894093686354379	1.272727272727273
12118.19458007812	-0.443913879756254	-0.02019882112118878	9.463795991875131	-1.094293433388846	-0.7178776661585017	0.7336911649715735	0.2381930184804928	0.175152749490835	1.258264462809917
12137.72583007812	-0.7249071599419893	-0.08771998171457654	9.496905331399642	-0.7319751735022159	-0.3497524754752979	0.7337492342795393	0.2484599589322382	0.1608961303462322	1.254132231404959
12157.25708007812	-1.05530026237322	-0.1145470848340077	9.510008745773993	-1.456797622846225	0.7731069210750534	0.7522260527384829	0.242299794661191	0.1731160896130346	1.258264462809917
12176.78833007812	-0.940542143353409	0.03589137364906443	9.351404778446964	-1.094367805217146	0.02576624500820193	0.7411283478015236	0.2546201232032854	0.1873727087576375	1.252066115702479
12196.31958007812	-0.5199019590060574	-0.1381016334119586	9.330065300201912	-1.82258068706951	-1.44679007237103	1.09864841709589	0.242299794661191	0.1710794297352342	1.247933884297521
12215.85083007812	-0.507574281904134	-0.08078235114900334	9.585809396804466	-1.460299613097029	-0.7068429261044747	1.102425077818831	0.2217659137577002	0.175152749490835	1.237603305785124
12235.38208007812	-0.7519401975172728	-0.01979399719725152	9.731339917242423	-1.822729430726109	0.04049774996237689	1.11352278275579	0.2505133470225873	0.1812627291242362	1.243801652892562
12254.91333007812	-0.6900975599369422	-0.009798211046277953	9.669918664564737	-1.453109703024673	0.3939469903378227	0.38343407058326	0.2238193018480493	0.1710794297352342	1.262396694214876
12274.44458007812	-1.004813724477363	-0.1082231042476808	9.827124149245437	-1.815465148825454	0.3976437552379707	0.3870945926902693	0.242299794661191	0.1812627291242362	1.258264462809917
12293.97583007812	-1.334154810451713	0.005289944620612943	9.805160348390418	-1.453035331196374	-0.3496969208288809	0.37599688775331	0.2443531827515401	0.1975560081466395	1.270661157024793
12313.50708007812	-0.5990492420986387	-0.1836925882785599	9.968308069954626	-0.3658946219657335	-1.104431126696028	0.3575781386023321	0.2525667351129364	0.1771894093686354	1.262396694214876
12333.03833007812	-0.9540771946648414	-0.1984849596082987	9.802573155494709	-1.808089309182349	-0.3606761062364908	-0.3504893716201765	0.242299794661191	0.1771894093686354	1.254132231404959
12352.56958007812	-0.8465893452971948	-0.04039722164609295	9.886311509906488	0.3513288722502733	0.7619610717281925	1.098996832943684	0.2443531827515401	0.1812627291242362	1.274793388429752
12372.10083007812	-0.7746831529895327	-0.2171475527999489	9.489438432984421	0.3552027216425743	-1.476308636925797	0.7116118937135864	0.4661190965092403	1.215885947046843	-7.369834710743802
12391.63208007812	-0.6077776664950109	-0.4665147788333869	9.259255549833693	-0.007301467814804958	0.01467595030775797	0.7301467814804957	0.2464065708418891	0.1914460285132383	1.264462809917355
12411.16333007812	-0.8470909063665923	-0.2672260597251982	9.569696878886408	-1.449347411374822	-0.7288568515661117	0.007204905598087103	0.2566735112936345	0.1792260692464358	1.247933884297521
12430.69458007812	-0.5634541785320822	-0.2788501843920399	9.448472617736071	-1.452960959368074	-1.093340831995585	0.3685597049233599	0.2238193018480493	0.185336048879837	1.264462809917355
12450.22583007812	-0.8717856914721211	-0.2152107069093192	9.392856382404039	-1.808089309182349	-0.3606761062364908	-0.3504893716201765	0.2484599589322382	0.185336048879837	1.272727272727273
12469.75708007812	-0.7386425202339673	-0.3288277482089828	9.62141734113224	-2.53283738669806	0.01853937914715693	-0.3394497359911829	0.2443531827515401	0.1792260692464358	1.260330578512397
12489.28833007812	-0.8490734921031735	-0.2078670957800261	9.635783070105777	-1.453109703024673	0.3939469903378227	0.38343407058326	0.2566735112936345	0.1894093686354379	1.260330578512397
12508.81958007812	-0.9701752545856168	-0.2670233323160161	9.672508486187223	-1.815390776997154	-0.3460001559287329	0.3796574098603193	0.2402464065708419	0.1710794297352342	1.254132231404959
12528.35083007812	-0.7716737865731471	-0.1895078576586509	9.722459552438236	-1.083043744353441	-3.714467236286953	-0.3912777385689702	0.2443531827515401	0.1731160896130346	1.25
12547.88208007812	-0.3815704697245594	0.006625548122392471	9.719015657485311	-1.449161481804073	-2.58796662948287	-0.01138805147678797	0.2402464065708419	0.1670061099796334	1.264462809917355
12567.41333007812	-0.5139281774012039	-0.05283677735972261	9.797605913373463	-0.724487776116662	-2.223538203699815	-0.01499050427583152	0.2566735112936345	0.1710794297352342	1.254132231404959
12586.94458007812	-0.738096007936652	-0.1319843758995174	9.936533597888396	-1.449198667718223	-2.216144673899519	-0.007669460061812957	0.2525667351129364	0.1568228105906314	1.270661157024793
12606.47583007812	-0.7032122778364422	-0.3140386365004497	10.10707592788141	-1.079467382274338	-2.978161300274128	-0.748913946479268	0.2607802874743327	0.1670061099796334	1.264462809917355
12626.00708007812	-0.8685665526587862	-0.3275031853596742	9.618885088626209	-1.079541754102638	-2.234517389107425	-0.7414767636493179	0.2607802874743327	0.1792260692464358	1.245867768595041
12645.53833007812	-0.676254158974355	-0.3319888447350414	9.875138632478498	-0.7208742281234094	-1.859054223270342	-0.3763453036011044	0.2484599589322382	0.1690427698574338	1.252066115702479
12665.06958007812	-0.6398176399659001	-0.356874370255641	9.327254665530004	0.7174094237867555	0.007282420507461989	0.7228257372664771	0.2587268993839836	0.1731160896130346	1.266528925619835
12684.60083007812	-0.6887166897600315	-0.2993517296890768	9.623889658667714	-0.01087782989390794	-0.7216299857050666	1.087782989390794	0.271047227926078	0.1792260692464358	1.260330578512397
12704.13208007812	-0.7057863270982564	-0.4215375790951029	9.859544236608542	-0.3621695162300315	-1.855413013016611	-0.0149324349678658	0.2628336755646817	0.1873727087576375	1.268595041322314
12723.66333007812	-0.7825843170686122	-0.2097022625188513	9.752810568953738	0.00383666347815123	-1.866447753070638	-0.3836663478151229	0.2566735112936345	0.1690427698574338	1.274793388429752
12743.19458007812	-0.7833398131448431	-0.05661320625016595	9.444660438161437	0.7211345295224576	-0.7436994658131205	0.3503151636962792	0.2525667351129364	0.1873727087576375	1.258264462809917
12762.72583007812	-0.7193150694654196	-0.309245205793819	9.643835648847316	1.445696677467419	0.7361948267199907	0.3578684851421607	0.2607802874743327	0.1832993890020367	1.268595041322314
12782.25708007812	-0.7637079558153089	-0.3102655723802832	9.790265193843627	1.442194687216616	-0.7437550204595376	0.7080675102225086	0.2464065708418891	0.1588594704684318	1.262396694214876
12801.78833007812	-0.9530709180539116	-0.2381595968374314	9.76903060179705	1.442157501302466	-0.3719330648761858	0.7117861016374836	0.2751540041067762	0.1731160896130346	1.243801652892562
12821.31958007812	-0.7372450890783501	-0.2083759121353332	9.574836302611665	1.083564347151537	-1.491040141879972	0.33921745875932	0.2731006160164271	0.1710794297352342	1.264462809917355
12840.85083007812	-1.037234600458503	-0.09537252081491583	9.574486681950084	0.7139074335359521	-1.472667426672066	1.073024762346825	0.2648870636550308	0.1425661914460285	1.25
12860.38208007812	-0.8682653005699342	-0.1074057805176121	9.608843352331141	0.0001487436565990006	-1.487287822333407	-0.01487436565990006	0.2648870636550308	0.164969450101833	1.258264462809917
12879.91333007812	-0.842924637294851	-0.1692122993920018	9.764154576495029	0.7248596352581596	-1.494681352133703	-0.02219540987391863	0.2669404517453799	0.1588594704684318	1.28099173553719
12899.44458007812	-0.5799520677959151	-0.1508511685873459	9.665068926530504	0.7175953533575042	-1.851827357409297	0.7042327801916021	0.2525667351129364	0.1710794297352342	1.262396694214876
12918.97583007812	-0.5911930292474771	-0.1611524127900176	9.706434308249234	1.076076949765984	0.3827455863445448	1.087957197314691	0.2607802874743327	0.1710794297352342	1.258264462809917
12938.50708007812	-0.7784385520657455	-0.2383617985012577	9.614618402191516	1.438581139223363	-1.10823900088901	1.069422309547782	0.2628336755646817	0.1710794297352342	1.252066115702479
