Time Stamp	Accelerometer X	Accelerometer Y	Accelerometer Z	Gyroscope X	Gyroscope Y	Gyroscope Z	Magnetometer X	Magnetometer Y	Magnetometer Z
946.319580078125	-0.02088102829482645	-9.720084865815329	-1.970632390172452	-51.79555650660771	6.805582774714868	-1.603769629084584	0.1006160164271047	-0.4195519348268839	0.6446280991735538
965.850830078125	-0.4211228185839417	-9.679496378008807	-1.629239380535277	6.160116950441564	-0.8064889144692193	-0.06966605864910785	0.1006160164271047	-0.4276985743380855	0.6363636363636364
985.382080078125	-0.396919342513373	-9.895003920745991	-2.102688582887567	-1.804587318931546	1.119273740943037	-0.7006883967005243	0.1108829568788501	-0.4175152749490835	0.6363636363636364
1004.913330078125	-0.5707402205449194	-9.804539337976191	-1.975325981836024	-0.3549796061576758	-0.7546230965743135	-0.7339234422034364	0.1190965092402464	-0.4215885947046843	0.6136363636363636
1024.444580078125	-0.4555625567312098	-9.933965226676426	-2.14791477562634	0.003650733907402479	-0.007337975153878983	-0.3650733907402479	0.1108829568788501	-0.4358452138492871	0.6301652892561984
1043.975830078125	-0.479486073399835	-9.835033830399279	-2.017130886672171	-0.3585559682367788	-1.490929032587138	-0.3762872342931387	0.1129363449691992	-0.4582484725050916	0.628099173553719
1063.507080078125	-0.3553055461140452	-9.934882126576875	-2.156481796198493	0.0001115577424492505	-1.115465866750055	-0.01115577424492505	0.1293634496919918	-0.415478615071283	0.609504132231405
1083.038330078125	-0.2450535905384763	-9.725900660940775	-2.164880315384124	0.00379947756400148	-1.494625797487286	-0.3799477564001479	0.1190965092402464	-0.4297352342158859	0.6508264462809917
1102.569580078125	-0.1337961469700113	-9.766594087520303	-2.206795100999626	-0.7246737056874109	-0.3644284257830558	0.003602452799043552	0.1026694045174538	-0.4399185336048879	0.6260330578512396
1122.100830078125	-0.1959037602096463	-9.670008882467787	-1.803207993011793	-0.7247108916015605	0.007393529800295976	0.007321044214018567	0.09856262833675565	-0.4032586558044806	0.628099173553719
1141.632080078125	-0.3124086681739786	-9.637678802709585	-1.91971106086738	-1.079727683673386	-0.3754076111906658	-0.7228838065744428	0.1149897330595483	-0.4073319755600814	0.6239669421487604
1161.163330078125	-0.03162594900322625	-9.640225723511042	-1.945801699892459	-0.3658946219657335	-1.104431126696028	0.3575781386023321	0.1108829568788501	-0.4439918533604887	0.621900826446281
1180.694580078125	-0.3161238477304756	-9.615546710766187	-2.129205075650813	-0.7208742281234094	-1.859054223270342	-0.3763453036011044	0.1252566735112936	-0.4134419551934826	0.6322314049586777
1200.225830078125	-0.1499336377924689	-9.668478542886232	-2.002212073584372	-0.3658574360515838	-1.47625308227938	0.3538595471873571	0.1047227926078029	-0.4236252545824847	0.6363636363636364
1219.757080078125	-0.2484785586585923	-9.757008067299612	-2.050714711380258	-0.3512916863361236	-1.133783027311544	-1.102715424358659	0.1252566735112936	-0.4215885947046843	0.6322314049586777
1239.288330078125	-0.4276675596451535	-9.804945844285267	-2.077748011828219	-0.3587418978075275	0.3681807453296208	-0.3576942772182636	0.1232032854209446	-0.4317718940936863	0.6322314049586777
1258.819580078125	-0.4471598315827328	-9.714581678878416	-2.094672280575575	0.3660805515364823	-0.7546786512207306	-0.3761710956772072	0.1252566735112936	-0.4134419551934826	0.6260330578512396
1278.350830078125	-0.4890740914528789	-9.684800622903099	-2.03086361823737	7.437182829950031e-05	-0.7436439111667036	-0.007437182829950031	0.108829568788501	-0.4399185336048879	0.6301652892561984
1297.882080078125	-0.278776474893162	-9.756804393548789	-2.040784170227934	0.003725105735701979	-0.7509818863205826	-0.3725105735701979	0.1129363449691992	-0.4114052953156823	0.621900826446281
1317.413330078125	-0.2903328835581815	-9.767207632350479	-1.988903881393951	-0.007189910072355707	-1.100789916442297	0.7189910072355706	0.1252566735112936	-0.4093686354378818	0.6239669421487604
1336.944580078125	-0.2503057866425455	-9.660932204347757	-1.656473778581818	-7.437182829950031e-05	0.7436439111667036	0.007437182829950031	0.1108829568788501	-0.4114052953156823	0.6198347107438017
1356.475830078125	-0.4804024475549293	-9.855330124709427	-1.986585081502359	-0.3551655357284246	1.104486681342445	-0.7153304851285613	0.1006160164271047	-0.4317718940936863	0.6301652892561984
1376.007080078125	-0.3867595763859371	-9.795052263031453	-2.108014120468765	-1.072426215858581	-0.3900835614984237	-1.453030588054939	0.1252566735112936	-0.4175152749490835	0.6322314049586777
1395.538330078125	-0.5364921165798268	-9.91346578436081	-2.116929447339111	-3.718591414975016e-05	0.3718219555833518	0.003718591414975016	0.1108829568788501	-0.4256619144602851	0.628099173553719
1415.069580078125	-0.3990367819337072	-9.745688559491899	-2.032107268876427	0.7247480775157102	-0.3792154853836477	-0.01103963562899358	0.1314168377823409	-0.4134419551934826	0.6342975206611571
1434.600830078125	-0.2395655976423476	-9.667459543237694	-2.014480078588416	0.358518782322629	1.86275098817049	0.3800058257081136	0.1108829568788501	-0.4317718940936863	0.6322314049586777
1454.132080078125	-0.4377216509560811	-9.764863333809133	-2.075944968130631	0.365968993794033	0.3607872155293249	-0.3650153214322821	0.1190965092402464	-0.4317718940936863	0.615702479338843
1473.663330078125	-0.3138266033984706	-9.884803935098837	-2.205779886717648	-0.0001115577424492505	1.115465866750055	0.01115577424492505	0.1252566735112936	-0.4419551934826884	0.615702479338843
1493.194580078125	-0.268306781878504	-9.793419192807383	-2.389773937383202	-0.36239263171493	0.3755187204834998	0.007379113521984299	0.1006160164271047	-0.4297352342158859	0.6384297520661157
1512.725830078125	-0.3759681272135523	-9.484896361132382	-2.134395759548259	-1.44558511972497	-1.851660693470046	-0.3690242593870858	0.1108829568788501	-0.4297352342158859	0.6322314049586777
1532.257080078125	-0.1963848172101691	-9.77016442423129	-1.787172759661031	-0.7318636157597666	-1.465218342225353	0.7225934600346142	0.1129363449691992	-0.415478615071283	0.609504132231405
1551.788330078125	-0.394945431575162	-9.59769902287597	-1.835152280827933	-0.0001487436565990006	1.487287822333407	0.01487436565990006	0.1149897330595483	-0.4256619144602851	0.6136363636363636
1571.319580078125	-0.4947071900671982	-9.716621991455062	-1.843093664426728	0.7280269522816153	3.331666095295991	-0.3389271122194913	0.1232032854209446	-0.4215885947046843	0.6363636363636364
1590.850830078125	-0.5472362486701928	-9.62360638707003	-2.092125044326905	-0.3625785612856788	2.234628498400259	0.02597207059685937	0.1129363449691992	-0.4195519348268839	0.6301652892561984
1610.382080078125	-0.540036166023023	-9.654611693680778	-1.998794465899236	-0.7172978660443063	-1.122748287257517	-0.7339815115114022	0.1211498973305955	-0.4256619144602851	0.6177685950413223
1629.913330078125	-0.1231663644945235	-9.839823791186564	-1.894454516849218	-1.086843221917442	-2.219841438799667	-0.01132998216882224	0.1170431211498973	-0.4297352342158859	0.6446280991735538
1649.444580078125	-0.2508822664251393	-9.837785266144129	-1.970591119162025	0.00379947756400148	-1.494625797487286	-0.3799477564001479	0.1129363449691992	-0.4175152749490835	0.615702479338843
1668.975830078125	-0.2738791569042326	-9.655220927399036	-2.204028103192247	3.718591414975016e-05	-0.3718219555833518	-0.003718591414975016	0.1190965092402464	-0.4256619144602851	0.6301652892561984
1688.507080078125	-0.4021163353550872	-9.796684281764811	-1.929455488163763	-0.3585559682367788	-1.490929032587138	-0.3762872342931387	0.1211498973305955	-0.4195519348268839	0.6301652892561984
1708.038330078125	-0.3992071234289744	-9.772410303242035	-2.359762552367523	-0.7318636157597666	-1.465218342225353	0.7225934600346142	0.1252566735112936	-0.4399185336048879	0.621900826446281
1727.569580078125	-0.2119860477697488	-9.538542155445553	-1.933798407675041	0.3697312854438847	-0.7620166263746095	-0.741244486417455	0.1211498973305955	-0.4215885947046843	0.6322314049586777
1747.100830078125	-0.3409952832755409	-9.936921808259092	-1.966823890815308	0.365968993794033	0.3607872155293249	-0.3650153214322821	0.1108829568788501	-0.4195519348268839	0.6425619834710744
1766.632080078125	-0.3855719176272692	-9.534668253366149	-2.147602745757695	0.007115538244056207	1.844433827609001	-0.7115538244056206	0.1190965092402464	-0.405295315682281	0.6115702479338843
1786.163330078125	-0.3989460908598382	-9.595659236044682	-2.035130304672062	0.3622810739724808	0.7399471462665556	0.003776660722940747	0.1252566735112936	-0.4358452138492871	0.6301652892561984
1805.694580078125	-0.2170844633572574	-9.856857309818846	-2.097184554758087	0.003613547993252729	0.3644839804294728	-0.3613547993252729	0.1047227926078029	-0.4215885947046843	0.6342975206611571
1825.225830078125	-0.3517244316232678	-9.657057566224857	-1.942518945891077	0	0	0	0.1047227926078029	-0.4195519348268839	0.615702479338843
1844.757080078125	-0.5215351869537341	-9.715296377115042	-1.948827101542195	-0.003725105735701979	0.7509818863205826	0.3725105735701979	0.108829568788501	-0.4236252545824847	0.609504132231405
1864.288330078125	-0.3229887677133468	-9.667766368227316	-1.900374409555106	-0.3622067021441813	-1.483591057433259	-0.01121384355289078	0.1108829568788501	-0.4195519348268839	0.6198347107438017
1883.819580078125	-0.2901073388005593	-9.70713470621218	-1.996422039981357	-0.007264281900655208	-0.3571460052755938	0.7264281900655207	0.1252566735112936	-0.4297352342158859	0.6487603305785125
1903.350830078125	-0.3636309866952252	-9.574240685698124	-2.212300443492495	-0.007375839643104458	0.7583198614744615	0.7375839643104457	0.1006160164271047	-0.4317718940936863	0.6239669421487604
1922.882080078125	-0.1513957356268449	-9.675617954519346	-2.286808812438504	-0.3550539779859753	-0.01097918540760998	-0.7264862593734864	0.1047227926078029	-0.415478615071283	0.6198347107438017
1942.413330078125	-0.4070877834391791	-9.638291716645334	-1.763740552027366	0.3623554458007803	-0.003696764900147988	-0.003660522107009284	0.1108829568788501	-0.4317718940936863	0.628099173553719
1961.944580078125	-0.3291675900069478	-9.686430854102248	-2.027746999768409	-0.362243888058331	-1.111769101849907	-0.007495252137915762	0.106776180698152	-0.4175152749490835	0.6549586776859504
1981.475830078125	-0.4328401053278246	-9.86328496738933	-2.238663155739181	0.003725105735701979	-0.7509818863205826	-0.3725105735701979	0.1211498973305955	-0.405295315682281	0.6384297520661157
2001.007080078125	-0.3441032269461319	-9.547926710045916	-1.863225768462271	-0.3477525101711704	-0.02565513571536794	-1.456633040853982	0.1006160164271047	-0.405295315682281	0.640495867768595
2020.538330078125	-0.5078155990224292	-9.674193710350584	-2.07281336591903	-0.7136843180510536	-0.7582643068280446	-1.095336310836675	0.1232032854209446	-0.4256619144602851	0.6425619834710744
2040.069580078125	-0.3689644104567597	-9.805965159381021	-2.034519651441344	0.3513660581644231	0.3901391161448408	1.095278241528709	0.1211498973305955	-0.4399185336048879	0.6425619834710744
2059.600830078125	-0.4913579292783121	-9.845539063799988	-1.954735690722934	0.3588534555499768	-1.483646612079676	0.3465385029733385	0.1334702258726899	-0.4134419551934826	0.6239669421487604
2079.132080078125	-0.1841825303755951	-9.769552351488111	-1.860582320813496	0.003650733907402479	-0.007337975153878983	-0.3650733907402479	0.1108829568788501	-0.4419551934826884	0.6177685950413223
2098.663330078125	-0.3678422069948843	-9.642268980261679	-2.405259766837192	0.003576362079102979	0.7363059360128246	-0.3576362079102978	0.1170431211498973	-0.4215885947046843	0.621900826446281
2118.194580078125	-0.1449322222230985	-9.846861418518802	-2.168925925896718	0.3659318078798833	0.7326091711126765	-0.3612967300173071	0.1129363449691992	-0.4215885947046843	0.6136363636363636
2137.725830078125	-0.3251874347911464	-9.815143937249138	-2.160418840295122	-0.3623182598866305	-0.3681251906832038	-5.806930796573191e-05	0.09856262833675565	-0.4338085539714867	0.6239669421487604
2157.257080078125	-0.2944242339167267	-9.915197168966408	-2.185858869442444	-0.003576362079102979	-0.7363059360128246	0.3576362079102978	0.1273100616016427	-0.4338085539714867	0.628099173553719
2176.788330078125	-0.277755214539593	-9.806474186034469	-2.074826182013568	-0.7245993338591113	-1.108072336949759	-0.003834730030906479	0.108829568788501	-0.4175152749490835	0.640495867768595
2196.319580078125	-0.3008830156122712	-9.817285508381302	-1.970566146257626	0.3587418978075275	-0.3681807453296208	0.3576942772182636	0.1273100616016427	-0.4175152749490835	0.6260330578512396
2215.850830078125	-0.3586248394176529	-9.825955364745042	-2.045838686078237	0.003725105735701979	-0.7509818863205826	-0.3725105735701979	0.1170431211498973	-0.4032586558044806	0.6177685950413223
2235.382080078125	-0.473597462542615	-9.763129846222112	-2.213417915246168	-0.3551283498142748	0.7326647257590937	-0.7190490765435364	0.09240246406570843	-0.4276985743380855	0.6177685950413223
2254.913330078125	-0.4375110899410982	-9.69479525241429	-2.082963668630063	-0.7136471321369039	-1.130086262411396	-1.09905490225165	0.09856262833675565	-0.4358452138492871	0.6198347107438017
2274.444580078125	-0.3359023880142677	-9.755275105457947	-2.136587066191078	0.003650733907402479	-0.007337975153878983	-0.3650733907402479	0.1149897330595483	-0.415478615071283	0.6239669421487604
2293.975830078125	-0.1646602909527374	-9.879906827408053	-1.844656968242089	0.7246737056874109	0.3644284257830558	-0.003602452799043552	0.1108829568788501	-0.4215885947046843	0.6342975206611571
2313.507080078125	-0.3219675073597778	-9.717436160712994	-1.93441642134074	0.3660433656223325	-0.3828566956373787	-0.3724525042622321	0.108829568788501	-0.4317718940936863	0.621900826446281
2333.038330078125	-0.3596910509991396	-9.746300106489722	-2.010298300028679	-0.3624670035432295	1.119162631650203	0.01481629635193433	0.108829568788501	-0.4134419551934826	0.6239669421487604
2352.569580078125	-0.3836350717366395	-9.774042006528179	-2.212164275445352	-0.3587418978075275	0.3681807453296208	-0.3576942772182636	0.1232032854209446	-0.4297352342158859	0.6342975206611571
2372.100830078125	-0.1006237180028091	-9.649201668820908	-1.979209399906365	-0.003613547993252729	-0.3644839804294728	0.3613547993252729	0.1149897330595483	-0.4236252545824847	0.6136363636363636
2391.632080078125	-0.108335613753814	-9.908361848447067	-2.055479541539535	-0.3585559682367788	-1.490929032587138	-0.3762872342931387	0.1273100616016427	-0.4399185336048879	0.6074380165289256
2411.163330078125	-0.1162407209230616	-9.617584499765124	-2.125309302564612	-1.079690497759237	-0.7472295667740175	-0.7266023979894179	0.108829568788501	-0.4338085539714867	0.6384297520661157
2430.694580078125	-0.4211725015200613	-9.576179108824819	-1.960916615997958	0.728212881852364	1.472556317379232	-0.3575200692943664	0.1006160164271047	-0.415478615071283	0.6301652892561984
2450.225830078125	-0.444726944948941	-9.863795045533491	-2.175768501701969	0.3660061797081828	-0.01103474005402697	-0.3687339128472572	0.1190965092402464	-0.4256619144602851	0.6136363636363636
2469.757080078125	-0.3158296932039265	-9.95211826746927	-2.472343559869121	-0.3587047118933778	-0.003641210253730994	-0.3614128686332386	0.1129363449691992	-0.4195519348268839	0.6301652892561984
2489.288330078125	-0.46241643606161	-9.712847980993255	-2.252785464613	-0.3548308625010768	-2.241910918907721	-0.7487978078633365	0.1190965092402464	-0.4338085539714867	0.6301652892561984
2508.819580078125	-0.2646665210352032	-9.76557550846805	-2.177782632159896	-0.7209114140375591	-1.48723226768699	-0.3726267121861294	0.1026694045174538	-0.415478615071283	0.6198347107438017
2528.350830078125	-0.1213328275663011	-9.589230947579772	-1.95557241445663	-0.3623182598866305	-0.3681251906832038	-5.806930796573191e-05	0.1006160164271047	-0.4175152749490835	0.6301652892561984
2547.882080078125	-0.06309496301775733	-9.490400704709076	-1.896834566074756	0.003650733907402479	-0.007337975153878983	-0.3650733907402479	0.106776180698152	-0.4134419551934826	0.6301652892561984
2567.413330078125	-0.05894998663292434	-9.729060495677979	-2.035000445569189	-0.7137586898793531	-0.01462039566134097	-1.087899128006725	0.1211498973305955	-0.4338085539714867	0.6322314049586777
2586.944580078125	-0.2331612305911245	-9.588722131224463	-1.894625646962519	0.7209485999517089	1.115410312103638	0.3689081207711543	0.108829568788501	-0.4297352342158859	0.6322314049586777
2606.475830078125	-0.2780399056497385	-9.616566236160082	-2.065336478342052	-0.003687919821552229	0.3791599307372308	0.3687919821552229	0.1170431211498973	-0.4093686354378818	0.6301652892561984
2626.007080078125	-0.3064459272215961	-9.825750849801651	-2.118469092613462	-3.718591414975016e-05	0.3718219555833518	0.003718591414975016	0.1129363449691992	-0.4175152749490835	0.615702479338843
2645.538330078125	-0.7390328861606211	-9.612287299858602	-2.0322371279793	-1.079504568188488	-2.606339344690777	-0.745195355064293	0.1273100616016427	-0.4439918533604887	0.628099173553719
2665.069580078125	-0.2292867501918313	-9.857469382562025	-2.023774993605622	0.0001487436565990006	-1.487287822333407	-0.01487436565990006	0.1129363449691992	-0.4114052953156823	0.6363636363636364
2684.600830078125	-0.2621531953619796	-9.828096199833706	-1.928226821267346	0.003725105735701979	-0.7509818863205826	-0.3725105735701979	0.1273100616016427	-0.4256619144602851	0.6342975206611571
2704.132080078125	-0.1783995943348835	-9.837682535501614	-2.053346855503884	-0.3587047118933778	-0.003641210253730994	-0.3614128686332386	0.108829568788501	-0.4256619144602851	0.6239669421487604
2723.663330078125	-0.318272043254122	-9.656241293985499	-2.057598558195936	-0.7173722378726058	-0.3791043760908138	-0.7265443286814521	0.1108829568788501	-0.4236252545824847	0.6260330578512396
2743.194580078125	-0.2931119735087431	-9.808106204767828	-1.896267549708566	-0.358667525979228	-0.3754631658370828	-0.3651314600482136	0.1170431211498973	-0.4012219959266802	0.6260330578512396
2762.725830078125	-0.3467829510244543	-9.79545982083124	-2.107234965851525	-0.3588534555499768	1.483646612079676	-0.3465385029733385	0.1273100616016427	-0.4338085539714867	0.6363636363636364
2782.257080078125	-0.2693225219058374	-9.607080948749555	-2.022582603138752	-0.003613547993252729	-0.3644839804294728	0.3613547993252729	0.135523613963039	-0.4175152749490835	0.6342975206611571
2801.788330078125	-0.3876759505410314	-9.815348557341599	-2.077468315298953	-0.3621695162300315	-1.855413013016611	-0.0149324349678658	0.1273100616016427	-0.4175152749490835	0.621900826446281
2821.319580078125	-0.2118354217253228	-9.428493453024521	-1.938819275822575	0.3588534555499768	-1.483646612079676	0.3465385029733385	0.108829568788501	-0.4317718940936863	0.6239669421487604
2840.850830078125	-0.5366561491308247	-9.593518821552301	-2.111461695639179	0.3623554458007803	-0.003696764900147988	-0.003660522107009284	0.1293634496919918	-0.4134419551934826	0.6033057851239669
2860.382080078125	-0.0714062084743317	-9.349754674073369	-1.953126384188944	-3.718591414975016e-05	0.3718219555833518	0.003718591414975016	0.1026694045174538	-0.4195519348268839	0.628099173553719
2879.913330078125	-0.0682982648037406	-9.738749772286543	-2.056724506541981	0.3621695162300315	1.855413013016611	0.0149324349678658	0.135523613963039	-0.415478615071283	0.6363636363636364
2899.444580078125	-0.4718356898554543	-9.955893539719929	-1.938810338151526	-0.36239263171493	0.3755187204834998	0.007379113521984299	0.1170431211498973	-0.4236252545824847	0.621900826446281
2918.975830078125	-0.2504761281378126	-9.687653948097893	-1.984129062072914	0.7210973436083078	-0.3718775102297688	0.3540337551112543	0.1170431211498973	-0.4195519348268839	0.6239669421487604
2938.507080078125	-0.5834834993505732	-9.865326331456686	-1.883883354980898	-3.718591414975016e-05	0.3718219555833518	0.003718591414975016	0.1047227926078029	-0.4215885947046843	0.6260330578512396
2958.038330078125	-0.3554104323125199	-9.864916039781049	-2.152985589582671	0.3587418978075275	-0.3681807453296208	0.3576942772182636	0.1232032854209446	-0.415478615071283	0.6239669421487604
2977.569580078125	-0.3566872049089895	-9.855328862920574	-2.110426503033682	0.003725105735701979	-0.7509818863205826	-0.3725105735701979	0.1129363449691992	-0.4317718940936863	0.6342975206611571
2997.100830078125	-0.2215149194702696	-9.638289823962053	-1.94950268432435	-0.3624298176290798	0.7473406760668516	0.01109770493695932	0.108829568788501	-0.4297352342158859	0.628099173553719
3016.632080078125	-0.280878930570857	-9.617484187551245	-1.970702314304769	-0.7209485999517089	-1.115410312103638	-0.3689081207711543	0.1108829568788501	-0.4093686354378818	0.6322314049586777
3036.163330078125	-0.0804256329251184	-9.789337621312455	-1.985812235829388	-0.3585931541509285	-1.119107077003786	-0.3725686428781636	0.1211498973305955	-0.415478615071283	0.6363636363636364
3055.694580078125	-0.2579317230278832	-9.696731257112349	-2.068942565737228	0.3623182598866305	0.3681251906832038	5.806930796573191e-05	0.108829568788501	-0.415478615071283	0.6363636363636364
3075.225830078125	-0.225029790046221	-9.609426298781612	-1.832340331792637	0.7247480775157102	-0.3792154853836477	-0.01103963562899358	0.1170431211498973	-0.4195519348268839	0.6322314049586777
3094.757080078125	-0.3658698732927406	-9.764964592364654	-2.137670890241982	0.0001115577424492505	-1.115465866750055	-0.01115577424492505	0.106776180698152	-0.4338085539714867	0.6301652892561984
3114.288330078125	-0.2348638569257619	-9.64593931373933	-2.171204769141271	0	0	0	0.1273100616016427	-0.4317718940936863	0.6322314049586777
3133.819580078125	-0.2515273559766601	-9.61799384509912	-1.949088134111331	0.3623182598866305	0.3681251906832038	5.806930796573191e-05	0.108829568788501	-0.415478615071283	0.6425619834710744
3153.350830078125	-0.4312415765736282	-9.526101443092141	-1.958614114212395	0.003576362079102979	0.7363059360128246	-0.3576362079102978	0.1170431211498973	-0.4256619144602851	0.6301652892561984
3172.882080078125	-0.4053299538421866	-9.547723351742308	-1.822334871927117	-0.724636519773261	-0.7362503813664076	-0.0001161386159314638	0.09240246406570843	-0.4338085539714867	0.615702479338843
3192.413330078125	-0.3718334028631566	-9.786892800259087	-1.938886571228112	-0.7208742281234094	-1.859054223270342	-0.3763453036011044	0.1211498973305955	-0.4175152749490835	0.6322314049586777
3211.944580078125	-0.402271693107715	-9.833401180771496	-2.257610229742834	-0.7136099462227541	-1.501908217994748	-1.102773493666625	0.108829568788501	-0.4317718940936863	0.621900826446281
3231.475830078125	-0.5169391210536568	-9.83381031580735	-2.10202929821144	0.36239263171493	-0.3755187204834998	-0.007379113521984299	0.1170431211498973	-0.4195519348268839	0.628099173553719
3251.007080078125	-0.1366359605091634	-9.977512293897963	-2.112134649694555	-0.3585559682367788	-1.490929032587138	-0.3762872342931387	0.1211498973305955	-0.4399185336048879	0.609504132231405
3270.538330078125	-0.3960928708141141	-9.814736694896563	-2.130237639529531	-0.3622810739724808	-0.7399471462665556	-0.003776660722940747	0.09856262833675565	-0.4175152749490835	0.6074380165289256
3290.069580078125	-0.2783553528631961	-9.6166682307591	-2.054821571226798	-0.3586303400650783	-0.7472851214204346	-0.3688500514631886	0.1170431211498973	-0.4175152749490835	0.621900826446281
3309.600830078125	-0.3333283387524537	-9.647776162863295	-1.889055374918214	3.718591414975016e-05	-0.3718219555833518	-0.003718591414975016	0.1232032854209446	-0.4195519348268839	0.621900826446281
3329.132080078125	-0.1801266678285639	-9.738240955931238	-1.99577773904787	-0.358816269635827	1.111824656496325	-0.3502570943883135	0.1211498973305955	-0.4195519348268839	0.6322314049586777
3348.663330078125	-0.4357532603441056	-9.60422688751126	-2.141557988529814	0.3587047118933778	0.003641210253730994	0.3614128686332386	0.1232032854209446	-0.4093686354378818	0.628099173553719
3368.194580078125	-0.3321927287840062	-9.914075648973496	-2.26024237386646	7.437182829950031e-05	-0.7436439111667036	-0.007437182829950031	0.1273100616016427	-0.415478615071283	0.6239669421487604
3387.725830078125	-0.3903643494177239	-9.706217806311729	-1.987855019409204	-7.437182829950031e-05	0.7436439111667036	0.007437182829950031	0.106776180698152	-0.4175152749490835	0.6363636363636364
3407.257080078125	-0.1205371119703543	-9.698973666203749	-1.982096267654857	0.366117737450632	-1.126500606804082	-0.3798896870921822	0.1334702258726899	-0.4419551934826884	0.621900826446281
3426.788330078125	-0.2688722210086267	-9.696935351459457	-2.037592633045777	-0.3585559682367788	-1.490929032587138	-0.3762872342931387	0.1149897330595483	-0.4276985743380855	0.6342975206611571
3446.319580078125	-0.2441671838686605	-9.685614056117533	-2.194427204377987	0.3623554458007803	-0.003696764900147988	-0.003660522107009284	0.1170431211498973	-0.4317718940936863	0.6301652892561984
3465.850830078125	-0.4563133210992389	-9.854207973822088	-2.122889296692037	-0.3551283498142748	0.7326647257590937	-0.7190490765435364	0.1129363449691992	-0.4236252545824847	0.6342975206611571
3485.382080078125	-0.2275139368521996	-9.776896172915544	-2.082868771593347	7.437182829950031e-05	-0.7436439111667036	-0.007437182829950031	0.1149897330595483	-0.4195519348268839	0.6198347107438017
3504.913330078125	-0.2440275984767054	-9.848902256840802	-1.865746717443153	-1.076039763851834	-0.7545675419278965	-1.091675788729666	0.1252566735112936	-0.405295315682281	0.6136363636363636
3524.444580078125	-0.2979698605959902	-10.07634358825937	-2.067671313466994	-0.3551283498142748	0.7326647257590937	-0.7190490765435364	0.1129363449691992	-0.4338085539714867	0.628099173553719
3543.975830078125	-0.4808835045554522	-9.955485666472928	-1.970549848151598	0.003576362079102979	0.7363059360128246	-0.3576362079102978	0.1232032854209446	-0.4215885947046843	0.6446280991735538
3563.507080078125	-0.5330766118761144	-9.735694771173279	-1.897446270796186	-0.362243888058331	-1.111769101849907	-0.007495252137915762	0.1190965092402464	-0.4439918533604887	0.628099173553719
3583.038330078125	-0.2333867753487466	-9.648795057362761	-1.887107488375113	-0.7207998562951099	-2.602698134437046	-0.3837824864310544	0.1047227926078029	-0.4256619144602851	0.6322314049586777
3602.569580078125	-0.1121399071481127	-9.616258569977891	-2.262003095062909	-0.3585559682367788	-1.490929032587138	-0.3762872342931387	0.108829568788501	-0.4297352342158859	0.6342975206611571
3622.100830078125	-0.1789248139452904	-9.697852356508978	-2.035839535156986	0.0001487436565990006	-1.487287822333407	-0.01487436565990006	0.1108829568788501	-0.4175152749490835	0.628099173553719
3641.632080078125	-0.3746464033891649	-9.524469003762498	-2.178453220361171	-0.7284731832514122	1.13019737170423	0.3835502091991915	0.1149897330595483	-0.4399185336048879	0.6260330578512396
3661.163330078125	-0.2772591737964309	-9.716313799527512	-2.091360873452304	-0.3550167920718256	-0.3828011409909618	-0.7302048507884614	0.1129363449691992	-0.4114052953156823	0.6177685950413223
3680.694580078125	-0.181252025762574	-9.408604821663234	-1.958265807914203	-0.3552027216425743	1.476308636925797	-0.7116118937135864	0.09240246406570843	-0.4195519348268839	0.6301652892561984
3700.225830078125	-0.3799648434080602	-9.76618863270194	-2.001171886397995	-0.003650733907402479	0.007337975153878983	0.3650733907402479	0.1293634496919918	-0.405295315682281	0.621900826446281
3719.757080078125	-0.2025825663365775	-9.495501696448827	-2.247247788780752	-0.3621323303158818	-2.227234968599963	-0.01865102638284081	0.1149897330595483	-0.4195519348268839	0.6239669421487604
3739.288330078125	0.1520234755816255	-9.830845742895274	-2.067449186054184	0.0001487436565990006	-1.487287822333407	-0.01487436565990006	0.108829568788501	-0.4317718940936863	0.621900826446281
3758.819580078125	-0.2353748814115632	-9.72610454498974	-2.15417061961456	-0.3477525101711704	-0.02565513571536794	-1.456633040853982	0.1149897330595483	-0.4338085539714867	0.6363636363636364
3778.350830078125	-0.1772324396450904	-9.703971822151912	-2.425585345163655	0.3623554458007803	-0.003696764900147988	-0.003660522107009284	0.1334702258726899	-0.4175152749490835	0.6425619834710744
3797.882080078125	-0.4342816990933259	-9.743751082706842	-2.190610030222472	-0.3623182598866305	-0.3681251906832038	-5.806930796573191e-05	0.1190965092402464	-0.4358452138492871	0.6239669421487604
3817.413330078125	-0.4732670315865182	-9.77302300687964	-2.224432280449396	-1.079764869587536	-0.003585655607314001	-0.7191652151594679	0.1293634496919918	-0.4114052953156823	0.6260330578512396
3836.944580078125	-0.3426655762707989	-9.384128536327559	-2.244480790973373	-0.3586303400650783	-0.7472851214204346	-0.3688500514631886	0.1006160164271047	-0.4317718940936863	0.628099173553719
3856.475830078125	-0.3756676637427339	-9.474799211276817	-2.144411208575538	-0.003613547993252729	-0.3644839804294728	0.3613547993252729	0.106776180698152	-0.4114052953156823	0.6446280991735538
3876.007080078125	-0.386624722702184	-9.885008660340372	-2.112509243260536	-0.7208742281234094	-1.859054223270342	-0.3763453036011044	0.09034907597535935	-0.4215885947046843	0.6322314049586777
3895.538330078125	-0.05621111620207866	-9.73150826090534	-1.792962793264045	-0.3549424202435261	-1.126445052157665	-0.7376420336184115	0.1108829568788501	-0.4175152749490835	0.615702479338843
3915.069580078125	-0.3735454926141978	-9.697446375945258	-1.881816912860073	0.3658946219657335	1.104431126696028	-0.3575781386023321	0.1129363449691992	-0.4215885947046843	0.6363636363636364
3934.600830078125	-0.4330743248838169	-9.566694031712434	-1.897522503872772	-0.007375839643104458	0.7583198614744615	0.7375839643104457	0.1190965092402464	-0.4032586558044806	0.6425619834710744
3954.132080078125	-0.2329270110351322	-9.885313066901359	-2.235766298828928	-0.7210229717800084	-0.3717664009369348	-0.3614709379412043	0.1149897330595483	-0.4093686354378818	0.6384297520661157
3973.663330078125	-0.3965132042260464	-9.744872602699756	-2.116226525798456	0.3624298176290798	-0.7473406760668516	-0.01109770493695932	0.1211498973305955	-0.4093686354378818	0.621900826446281
3993.194580078125	-0.1351336431550715	-9.927026544620139	-2.16221189483095	-0.007152724158205957	-1.472611872025649	0.7152724158205956	0.1232032854209446	-0.4215885947046843	0.6322314049586777
4012.725830078125	-0.1143929888702337	-9.586987066401376	-2.18690037099221	-0.007189910072355707	-1.100789916442297	0.7189910072355706	0.1170431211498973	-0.405295315682281	0.6322314049586777
4032.257080078125	-0.2032694526438814	-9.739057123021523	-1.891018245203954	0	0	0	0.1026694045174538	-0.4195519348268839	0.628099173553719
4051.788330078125	-0.4743482269106441	-9.683372593367775	-2.188392436311865	0.007301467814804958	-0.01467595030775797	-0.7301467814804957	0.1170431211498973	-0.4276985743380855	0.6342975206611571
4071.319580078125	-0.0905995941771599	-9.669293868783949	-1.980013527428004	-0.3549796061576758	-0.7546230965743135	-0.7339234422034364	0.1293634496919918	-0.4378818737270875	0.6177685950413223
4090.850830078125	-0.4221338269030733	-9.566489937365326	-1.928872436564222	-0.369545355873136	-1.097093151542149	0.7226515293425799	0.1129363449691992	-0.4093686354378818	0.6239669421487604
4110.382080078125	-0.3106957898049038	-9.517124972036919	-1.976807006503207	0.003725105735701979	-0.7509818863205826	-0.3725105735701979	0.106776180698152	-0.4175152749490835	0.6198347107438017
4129.913330078125	-0.155316744490123	-9.79688574738514	-2.156108516995901	0.3623182598866305	0.3681251906832038	5.806930796573191e-05	0.1170431211498973	-0.4236252545824847	0.6239669421487604
4149.444580078125	-0.2272584246092989	-9.73681355729034	-2.091385846356703	0.358667525979228	0.3754631658370828	0.3651314600482136	0.1149897330595483	-0.4175152749490835	0.6301652892561984
4168.975830078125	-0.2276338067933135	-9.696934930863172	-2.078873106889551	0.3624298176290798	-0.7473406760668516	-0.01109770493695932	0.1252566735112936	-0.4175152749490835	0.6239669421487604
4188.507080078125	-0.04366262605073497	-9.540784249089738	-1.877912464975501	0.7248596352581596	-1.494681352133703	-0.02219540987391863	0.1293634496919918	-0.4297352342158859	0.615702479338843
4208.038330078125	-0.276372767126615	-9.676027194704272	-2.120907762446167	0.007301467814804958	-0.01467595030775797	-0.7301467814804957	0.1149897330595483	-0.4256619144602851	0.6342975206611571
4227.569580078125	-0.2255455462402241	-9.616259726617672	-2.14848179199253	0	0	0	0.1108829568788501	-0.4276985743380855	0.6322314049586777
4247.100830078125	-0.006065261296756196	-9.778627767819284	-2.131157956774794	-0.3659318078798833	-0.7326091711126765	0.3612967300173071	0.1190965092402464	-0.4358452138492871	0.6301652892561984
4266.632080078125	-0.4233057133010684	-9.626868847300679	-1.889809556631055	-0.3586303400650783	-0.7472851214204346	-0.3688500514631886	0.1273100616016427	-0.4256619144602851	0.6177685950413223
4286.163330078125	-0.2030896477322106	-9.858998986100081	-1.897011742259648	-0.3587418978075275	0.3681807453296208	-0.3576942772182636	0.09650924024640657	-0.4338085539714867	0.6384297520661157
4305.694580078125	-0.2388298170169577	-9.737221640835484	-2.039006099434745	0.007413025557254208	-1.130141817057813	-0.7413025557254208	0.1149897330595483	-0.4297352342158859	0.628099173553719
4325.225830078125	-0.2549128931950939	-9.815755168799747	-2.169570226830205	-0.003725105735701979	0.7509818863205826	0.3725105735701979	0.1026694045174538	-0.4012219959266802	0.6301652892561984
4344.757080078125	-0.1304113983696111	-9.778833018806173	-1.986286721012964	3.718591414975016e-05	-0.3718219555833518	-0.003718591414975016	0.1026694045174538	-0.4215885947046843	0.615702479338843
4364.288330078125	-0.1022009540700971	-9.649711641815998	-1.926634864330097	0.007413025557254208	-1.130141817057813	-0.7413025557254208	0.09445585215605749	-0.4297352342158859	0.640495867768595
4383.819580078125	-0.2566249829461351	-9.726308744485918	-2.112500568462166	0.3622067021441813	1.483591057433259	0.01121384355289078	0.1170431211498973	-0.4256619144602851	0.6260330578512396
4403.350830078125	-0.4349228455546785	-9.807291720062681	-1.835905148177385	0.3584815964084793	2.234572943753842	0.3837244171230887	0.1232032854209446	-0.4215885947046843	0.615702479338843
4422.882080078125	-0.4074994420527412	-9.925091486263719	-2.083351931575293	-0.7282500677665138	-1.10073436179588	0.3612386607093414	0.1108829568788501	-0.4276985743380855	0.6322314049586777
4442.413330078125	-0.3393723073623015	-9.756397046047145	-2.020923087923288	3.718591414975016e-05	-0.3718219555833518	-0.003718591414975016	0.1293634496919918	-0.4012219959266802	0.6074380165289256
4461.944580078125	-0.4431741560406959	-9.706626310453158	-1.894194798643472	0.3624298176290798	-0.7473406760668516	-0.01109770493695932	0.1232032854209446	-0.4378818737270875	0.6115702479338843
4481.475830078125	-0.2189763580199695	-9.647469022426456	-2.034121399334354	-0.01084064397975819	-1.093451941288418	1.084064397975818	0.106776180698152	-0.4317718940936863	0.6198347107438017
4501.007080078125	-0.175215154715029	-9.856652900024526	-2.159494842832369	-0.3658946219657335	-1.104431126696028	0.3575781386023321	0.1047227926078029	-0.4114052953156823	0.6342975206611571
4520.538330078125	0.09145839921579822	-9.640428450920224	-2.048613307193274	-0.7172978660443063	-1.122748287257517	-0.7339815115114022	0.1232032854209446	-0.4338085539714867	0.6177685950413223
4540.069580078125	-0.3196402955424943	-10.00668369555874	-2.011990148583524	0.01095220172220744	-0.02201392546163695	-1.095220172220744	0.09650924024640657	-0.4317718940936863	0.6198347107438017
4559.600830078125	-0.3976693182633685	-9.605246412905156	-2.077689391221051	-0.3660061797081828	0.01103474005402697	0.3687339128472572	0.1108829568788501	-0.4256619144602851	0.621900826446281
4579.132080078125	-0.2964509822631918	-9.615852484265099	-2.11830059122694	-0.7210229717800084	-0.3717664009369348	-0.3614709379412043	0.106776180698152	-0.4114052953156823	0.6239669421487604
4598.663330078125	-0.38790070668062	-9.6654212284934	-2.069976443979335	-0.7172978660443063	-1.122748287257517	-0.7339815115114022	0.106776180698152	-0.4256619144602851	0.6177685950413223
4618.194580078125	-0.4132263862130641	-9.613609864875556	-2.225787126231197	0.00383666347815123	-1.866447753070638	-0.3836663478151229	0.1149897330595483	-0.45010183299389	0.6239669421487604
4637.725830078125	-0.4882933595995714	-9.784548186270529	-2.056888013347623	-0.01095220172220744	0.02201392546163695	1.095220172220744	0.1232032854209446	-0.4276985743380855	0.6198347107438017
4657.257080078125	0.3328252004469888	-9.665719851855474	-1.760840014899623	0.358667525979228	0.3754631658370828	0.3651314600482136	0.1108829568788501	-0.4297352342158859	0.6177685950413223
4676.788330078125	-0.6208308721878868	-9.724068648674084	-1.972304260403778	-0.7172978660443063	-1.122748287257517	-0.7339815115114022	0.1170431211498973	-0.4032586558044806	0.615702479338843
4696.319580078125	-0.201947728819494	-9.778629765651635	-1.935075706016866	-0.3623554458007803	0.003696764900147988	0.003660522107009284	0.1273100616016427	-0.415478615071283	0.6239669421487604
4715.850830078125	-0.4984823045942521	-9.654509278485476	-2.050589846858264	-1.090568327653144	-1.468859552479084	0.3611805914013757	0.09856262833675565	-0.4276985743380855	0.609504132231405
4735.382080078125	-0.2737537666368832	-9.598513717879261	-1.874874445437227	-0.7208742281234094	-1.859054223270342	-0.3763453036011044	0.1211498973305955	-0.4215885947046843	0.6301652892561984
4754.913330078125	-0.3793789002090627	-9.735999177734264	-2.020703326364579	-0.3657830642232843	-2.219896993446084	0.346422364357407	0.1293634496919918	-0.4032586558044806	0.6198347107438017
4774.444580078125	-0.1016047588366623	-9.556185538690521	-2.279841372111259	-0.3657458783091345	-2.591718949029436	0.342703772942432	0.1170431211498973	-0.4175152749490835	0.6177685950413223
4793.975830078125	-0.4205013875734303	-9.532628781982076	-2.316620414218993	-0.7318264298456169	-1.837040297808705	0.7188748686196392	0.1026694045174538	-0.4399185336048879	0.6363636363636364
4813.507080078125	0.07809526663570027	-9.428082530454457	-2.269842221190009	-0.3585931541509285	-1.119107077003786	-0.3725686428781636	0.1232032854209446	-0.4358452138492871	0.6363636363636364
4833.038330078125	-0.4658114366964475	-9.763945697865186	-2.139618776785083	-0.7247480775157102	0.3792154853836477	0.01103963562899358	0.1108829568788501	-0.4297352342158859	0.6260330578512396
4852.569580078125	-0.4574095001660042	-9.754562405053676	-2.08634999446653	-1.094553734787894	1.884876022924961	0.7597213048763987	0.1149897330595483	-0.415478615071283	0.6425619834710744
4872.100830078125	-0.5169643568307335	-9.887151808708603	-1.767854772308887	-0.365820250137434	-1.848075037862732	0.3501409557723821	0.1211498973305955	-0.4276985743380855	0.6053719008264463
4891.632080078125	-0.2625585450312727	-9.768227262893445	-1.914715165624245	-0.3659318078798833	-0.7326091711126765	0.3612967300173071	0.1375770020533881	-0.4236252545824847	0.6115702479338843
4911.163330078125	-0.4862058876645157	-9.913873237011527	-2.126470411182814	-0.7247480775157102	0.3792154853836477	0.01103963562899358	0.1334702258726899	-0.4175152749490835	0.6301652892561984
4930.694580078125	-0.5330513760990379	-9.682353278272021	-2.23162079669874	1.438320837824315	1.494514688194452	1.095452449452607	0.1190965092402464	-0.4256619144602851	0.6136363636363636
4950.225830078125	-0.1979115817233039	-9.66399141142387	-2.40294727588987	0.3621695162300315	1.855413013016611	0.0149324349678658	0.1190965092402464	-0.4297352342158859	0.6239669421487604
4969.757080078125	-0.4156300939796111	-9.694387063720074	-2.145663534012964	0.3730845320380892	2.205221043138326	-1.076569145837903	0.1334702258726899	-0.4378818737270875	0.6074380165289256
4989.288330078125	-0.5328865549300063	-9.792299986094035	-2.23711483566646	0.003650733907402479	-0.007337975153878983	-0.3650733907402479	0.1293634496919918	-0.4358452138492871	0.6260330578512396
5008.819580078125	-0.340303665260035	-9.766698185100745	-1.989877824665501	0.003687919821552229	-0.3791599307372308	-0.3687919821552229	0.1129363449691992	-0.4256619144602851	0.609504132231405
5028.350830078125	-0.3149771971095572	-9.608509293732091	-1.834093429681427	-7.437182829950031e-05	0.7436439111667036	0.007437182829950031	0.1006160164271047	-0.4358452138492871	0.6487603305785125
5047.882080078125	-0.5205888453133614	-9.714990393317988	-1.980371822887956	0.3731589038663887	1.461577131971622	-1.084006328667853	0.1334702258726899	-0.4297352342158859	0.6198347107438017
5067.413330078125	-0.6922323489540166	-9.813821792828465	-1.925588368199451	-0.7135727603086044	-1.8737301735781	-1.1064920850816	0.1170431211498973	-0.4175152749490835	0.628099173553719
5086.944580078125	-0.1664685921038831	-10.07715817811359	-2.117713596537231	-1.094293433388846	-0.7178776661585017	0.7336911649715735	0.1170431211498973	-0.4419551934826884	0.6322314049586777
5106.475830078125	-0.1450670759068516	-9.756905021209883	-2.164430803104947	0.3549796061576758	0.7546230965743135	0.7339234422034364	0.1293634496919918	-0.4175152749490835	0.6260330578512396
5126.007080078125	-0.1096770530290425	-9.785462247146057	-2.344098232365252	3.718591414975016e-05	-0.3718219555833518	-0.003718591414975016	0.1129363449691992	-0.4297352342158859	0.6239669421487604
5145.538330078125	-0.3448445278977573	-9.614833064020274	-2.171849070074758	0.007375839643104458	-0.7583198614744615	-0.7375839643104457	0.1252566735112936	-0.4195519348268839	0.628099173553719
5165.069580078125	-0.365959775748576	-9.704993660825373	-2.134674141714135	0.3551655357284246	-1.104486681342445	0.7153304851285613	0.1047227926078029	-0.415478615071283	0.6260330578512396
5184.600830078125	-0.3602919779407764	-9.766494406200852	-1.990267401974121	-0.7247108916015605	0.007393529800295976	0.007321044214018567	0.1026694045174538	-0.4134419551934826	0.6239669421487604
5204.132080078125	-0.4158059558011137	-9.85777725904236	-1.806468139962877	-1.079727683673386	-0.3754076111906658	-0.7228838065744428	0.1232032854209446	-0.4378818737270875	0.628099173553719
5223.663330078125	-0.474273308197448	-9.733348369650509	-2.190889726751737	0.3587047118933778	0.003641210253730994	0.3614128686332386	0.1149897330595483	-0.4256619144602851	0.6239669421487604
5243.194580078125	-0.307972691734731	-9.71957783699423	-1.734243608842301	0.3624670035432295	-1.119162631650203	-0.01481629635193433	0.1108829568788501	-0.4338085539714867	0.6177685950413223
5262.725830078125	-0.175664666994206	-9.556798242328128	-2.144511100193133	0.358667525979228	0.3754631658370828	0.3651314600482136	0.1170431211498973	-0.4297352342158859	0.6239669421487604
5282.257080078125	-0.5550183314261921	-9.906122593827803	-1.832722285793598	-0.7210601576941581	5.555464641699391e-05	-0.3577523465262293	0.1149897330595483	-0.4358452138492871	0.6239669421487604
5301.788330078125	-0.3813023395931204	-9.926621089801776	-1.95658868022932	-0.358816269635827	1.111824656496325	-0.3502570943883135	0.106776180698152	-0.4215885947046843	0.6136363636363636
5321.319580078125	-0.4764065199784551	-9.784038108126367	-2.119782667384835	0.7245993338591113	1.108072336949759	0.003834730030906479	0.09856262833675565	-0.4134419551934826	0.6446280991735538
5340.850830078125	-0.2811241907793203	-9.594230155018648	-2.295860307355992	-0.3622810739724808	-0.7399471462665556	-0.003776660722940747	0.1149897330595483	-0.4256619144602851	0.6115702479338843
5360.382080078125	-0.3328330866273252	-9.767616031342836	-1.905563779089162	-0.7243762183742128	-3.33900407044987	-0.02614627852075657	0.106776180698152	-0.4276985743380855	0.6363636363636364
5379.913330078125	-0.2872935496565175	-9.759558247722275	-1.756881678116086	-0.3587047118933778	-0.003641210253730994	-0.3614128686332386	0.1170431211498973	-0.4297352342158859	0.628099173553719
5399.444580078125	-0.5379881249896494	-9.617282827079986	-1.733729167011687	-0.007413025557254208	1.130141817057813	0.7413025557254208	0.106776180698152	-0.4236252545824847	0.621900826446281
5418.975830078125	-0.5103092092448116	-9.694999977655822	-1.98969302517295	0.3659318078798833	0.7326091711126765	-0.3612967300173071	0.1252566735112936	-0.4195519348268839	0.6322314049586777
5438.507080078125	-0.5403563449446824	-9.581381884865449	-2.321455168510587	0.3622067021441813	1.483591057433259	0.01121384355289078	0.1129363449691992	-0.4073319755600814	0.6115702479338843
5458.038330078125	-0.3802700385870805	-9.702953979143155	-2.32433204709732	0.003725105735701979	-0.7509818863205826	-0.3725105735701979	0.1026694045174538	-0.4114052953156823	0.6239669421487604
5477.569580078125	-0.3527661960457115	-9.734061070054782	-2.241126798476285	3.718591414975016e-05	-0.3718219555833518	-0.003718591414975016	0.108829568788501	-0.4236252545824847	0.6177685950413223
5497.100830078125	-0.2683470013982198	-9.836765530452093	-2.055099953392674	-0.3585559682367788	-1.490929032587138	-0.3762872342931387	0.1211498973305955	-0.4195519348268839	0.615702479338843
5516.632080078125	-0.3146373027370566	-9.765066061218315	-2.178756575431446	-0.003501990250803478	-1.479949847179528	0.3501990250803478	0.1026694045174538	-0.4175152749490835	0.628099173553719
5536.163330078125	-0.04972236702125563	-9.849410232003539	-2.009254432624813	0.003762291649851729	-1.122803841903934	-0.3762291649851729	0.1314168377823409	-0.4215885947046843	0.6198347107438017
5555.694580078125	-0.4073022875443302	-9.425027739639333	-2.089923748522327	0.01445419197301091	1.457935921717891	-1.445419197301091	0.1232032854209446	-0.4297352342158859	0.6322314049586777
5575.225830078125	-0.0932793182554823	-9.916826979569272	-2.224022724817257	0.3693594263023872	2.956202929458909	-0.7040585722677049	0.1190965092402464	-0.4317718940936863	0.6239669421487604
5594.757080078125	-0.5922340050518873	-9.361488994966777	-2.258866498270429	0.0001115577424492505	-1.115465866750055	-0.01115577424492505	0.1252566735112936	-0.4195519348268839	0.628099173553719
5614.288330078125	-0.3047030813672429	-9.725187329642075	-2.176563954425238	-0.724339032460063	-3.710826026033222	-0.02986486993573159	0.1252566735112936	-0.4317718940936863	0.6198347107438017
5633.819580078125	-0.03879606416511771	-9.629210727413389	-2.040131194496077	-0.01445419197301091	-1.457935921717891	1.445419197301091	0.1293634496919918	-0.4195519348268839	0.6136363636363636
5653.350830078125	-0.2022474036722788	-9.578726660520703	-1.925086544257375	-0.3550167920718256	-0.3828011409909618	-0.7302048507884614	0.106776180698152	-0.4378818737270875	0.6198347107438017
5672.882080078125	-0.4811074720770071	-9.595558082638233	-1.963084264099767	0.003539176164953228	1.108127891596177	-0.3539176164953228	0.1293634496919918	-0.4276985743380855	0.6301652892561984
5692.413330078125	-0.4795609921130312	-9.785058054116545	-2.014633596232299	0.007227095986505457	0.7289679608589457	-0.7227095986505457	0.108829568788501	-0.4358452138492871	0.621900826446281
5711.944580078125	-0.33286226549457	-9.537625465843245	-1.904591150181001	0.3587418978075275	-0.3681807453296208	0.3576942772182636	0.1149897330595483	-0.4256619144602851	0.6260330578512396
5731.475830078125	-0.5958553390623805	-9.682659892963503	-2.138155364587317	-0.358518782322629	-1.86275098817049	-0.3800058257081136	0.1273100616016427	-0.4521384928716904	0.628099173553719
5751.007080078125	-0.1630980386280886	-9.869401699156416	-1.896732045730382	-0.3585559682367788	-1.490929032587138	-0.3762872342931387	0.1252566735112936	-0.4236252545824847	0.6033057851239669
5770.538330078125	-0.3613132382943454	-9.716824613715172	-1.956225390188487	-0.358667525979228	-0.3754631658370828	-0.3651314600482136	0.1026694045174538	-0.4338085539714867	0.6301652892561984
5790.069580078125	-0.2569703976448711	-9.706420428571841	-2.100986745170963	3.718591414975016e-05	-0.3718219555833518	-0.003718591414975016	0.1129363449691992	-0.4236252545824847	0.621900826446281
5809.600830078125	-0.5985894777850245	-9.753543931150491	-2.047017407165856	-0.7209857858658586	-0.7435883565202867	-0.3651895293561793	0.1129363449691992	-0.4236252545824847	0.6198347107438017
5829.132080078125	-0.08084596633705066	-9.719473529115648	-1.971801122098313	-0.3586303400650783	-0.7472851214204346	-0.3688500514631886	0.1129363449691992	-0.4195519348268839	0.640495867768595
5848.663330078125	-0.3620640026623745	-9.637067360860835	-1.931199911254184	-1.087066337402341	0.01109029470044396	0.01098156632102785	0.1190965092402464	-0.4236252545824847	0.6260330578512396
5868.194580078125	-0.1595232330815802	-9.938245845363044	-2.015892230613994	7.437182829950031e-05	-0.7436439111667036	-0.007437182829950031	0.1457905544147844	-0.4317718940936863	0.621900826446281
5887.725830078125	-0.2003846878768116	-9.558124382413503	-1.987177070772948	1.090828629052193	-1.133894136604378	-0.3872107313062008	0.1149897330595483	-0.4032586558044806	0.6198347107438017
5907.257080078125	-0.3147674247126079	-9.748441467323744	-1.841085842913071	0.3657458783091345	2.591718949029436	-0.342703772942432	0.1170431211498973	-0.4175152749490835	0.6260330578512396
5926.788330078125	-0.5194926662465962	-9.814635962086399	-2.016911125113462	0.003576362079102979	0.7363059360128246	-0.3576362079102978	0.1170431211498973	-0.4175152749490835	0.609504132231405
5946.319580078125	-0.5719270906855536	-9.854923092654994	-1.935763643814882	-0.3585559682367788	-1.490929032587138	-0.3762872342931387	0.1108829568788501	-0.4215885947046843	0.640495867768595
5965.850830078125	-0.2258767658143546	-9.816366820946641	-2.137441139521514	-0.7245621479449615	-1.479894292533111	-0.007553321445881495	0.1149897330595483	-0.4114052953156823	0.6260330578512396
5985.382080078125	-0.2049365911670049	-9.679596164477331	-1.835446961099838	-0.7210601576941581	5.555464641699391e-05	-0.3577523465262293	0.1190965092402464	-0.4256619144602851	0.6384297520661157
6004.913330078125	-0.1999801268255522	-9.827993574340262	-2.000662439148261	0.003576362079102979	0.7363059360128246	-0.3576362079102978	0.1149897330595483	-0.4338085539714867	0.6136363636363636
6024.444580078125	-0.5217457479687172	-9.785364458509886	-1.941808401042763	0.01069190032315919	2.580739763621826	-1.069190032315918	0.108829568788501	-0.4297352342158859	0.6342975206611571
6043.975830078125	-0.5109755914832408	-9.811882107912915	-2.300813617225311	-0.003762291649851729	1.122803841903934	0.3762291649851729	0.1375770020533881	-0.4195519348268839	0.628099173553719
6063.507080078125	-0.2763782874528506	-9.812695646276421	-2.454057084904983	-0.7209114140375591	-1.48723226768699	-0.3726267121861294	0.1334702258726899	-0.4236252545824847	0.6198347107438017
6083.038330078125	-0.3122635624557881	-9.664298551860705	-2.25788125147373	-1.08319248801004	-2.227179413953546	-0.3764033729090701	0.1129363449691992	-0.4195519348268839	0.6301652892561984
6102.569580078125	-0.2264619203953185	-9.636556020927818	-2.117935986822718	-0.7245249620308118	-1.851716248116463	-0.01127191286085651	0.1232032854209446	-0.4317718940936863	0.6239669421487604
6122.100830078125	-0.1547710208108413	-9.810042630062174	-1.840965972971957	0	0	0	0.106776180698152	-0.4236252545824847	0.6115702479338843
6141.632080078125	-0.06642135388366782	-9.938142904422387	-2.11928820387774	0.3659318078798833	0.7326091711126765	-0.3612967300173071	0.1047227926078029	-0.4338085539714867	0.6322314049586777
6161.163330078125	-0.2342179787562075	-9.655730479797841	-2.192734041459753	1.086917593745742	1.476197527632963	0.00389279933887221	0.1273100616016427	-0.4338085539714867	0.6033057851239669
6180.694580078125	-0.2979540882353173	-9.87633848852942	-2.068197058822756	-0.007450211471403958	1.501963772641165	0.7450211471403958	0.108829568788501	-0.4317718940936863	0.621900826446281
6200.225830078125	-0.4051856367420297	-9.784343355879923	-2.160478775265679	-0.003613547993252729	-0.3644839804294728	0.3613547993252729	0.1293634496919918	-0.4236252545824847	0.6136363636363636
6219.757080078125	-0.6022849418906804	-9.814738797877986	-1.92383527031066	-0.7209485999517089	-1.115410312103638	-0.3689081207711543	0.1108829568788501	-0.4236252545824847	0.621900826446281
6239.288330078125	-0.3937901061558736	-9.947325467657066	-1.87366312813755	-0.3585559682367788	-1.490929032587138	-0.3762872342931387	0.1190965092402464	-0.4236252545824847	0.6301652892561984
6258.819580078125	-0.1703572676277818	-9.588415516532983	-1.988091079073941	0.3551283498142748	-0.7326647257590937	0.7190490765435364	0.1190965092402464	-0.4012219959266802	0.628099173553719
6278.350830078125	-0.4184383627974175	-9.50529507063783	-2.052054573419419	0	0	0	0.1190965092402464	-0.415478615071283	0.6239669421487604
6297.882080078125	-0.2788356212456853	-9.506823517536105	-2.038812625143824	-0.3514032440785728	-0.01831716056148896	-1.091559650113734	0.1211498973305955	-0.4215885947046843	0.609504132231405
6317.413330078125	-0.2392343780682171	-9.467352448908724	-2.025520731059432	-0.3476037665145714	-1.512942958048775	-1.471507406513882	0.1211498973305955	-0.4175152749490835	0.6322314049586777
6336.944580078125	-0.3293324111759794	-9.576484146280235	-2.022252960800689	-0.7208742281234094	-1.859054223270342	-0.3763453036011044	0.1232032854209446	-0.4378818737270875	0.6198347107438017
6356.475830078125	-0.4423374323069996	-9.563022436445928	-2.255418923100015	-0.7210229717800084	-0.3717664009369348	-0.3614709379412043	0.1190965092402464	-0.4378818737270875	0.621900826446281
6376.007080078125	-0.4032874331350485	-9.647062936713667	-1.890418895498384	0.007338653728954708	-0.3864979058911098	-0.7338653728954707	0.1293634496919918	-0.4256619144602851	0.6239669421487604
6395.538330078125	-0.1537245246801957	-9.806370929646597	-2.209182510660144	-0.7172606801301565	-1.494570242840869	-0.7377001029263772	0.1026694045174538	-0.4399185336048879	0.6136363636363636
6415.069580078125	-0.04064379621794565	-9.659808160777136	-1.978540126068479	0.3551283498142748	-0.7326647257590937	0.7190490765435364	0.1149897330595483	-0.4195519348268839	0.6301652892561984
6434.600830078125	-0.1299603088543667	-9.658687166529578	-2.001323038187777	-0.717335051958456	-0.7509263316741656	-0.7302629200964272	0.1149897330595483	-0.4175152749490835	0.6301652892561984
6454.132080078125	-0.3044128699308619	-9.778426827944312	-1.852904335637938	0.007227095986505457	0.7289679608589457	-0.7227095986505457	0.1108829568788501	-0.4256619144602851	0.6198347107438017
6473.663330078125	-0.1335256509844714	-9.736506627151646	-2.215811633850956	0.003613547993252729	0.3644839804294728	-0.3613547993252729	0.1190965092402464	-0.4276985743380855	0.6425619834710744
6493.194580078125	-0.4561784674154858	-9.944164371131009	-2.127384419483807	-0.0001859295707487508	1.859109777916759	0.01859295707487508	0.1252566735112936	-0.4175152749490835	0.6301652892561984
6512.725830078125	-0.4373912199999843	-9.774756494466661	-2.086959333333859	0.3695825417872857	0.7252711959587976	-0.726370120757555	0.09445585215605749	-0.4338085539714867	0.6322314049586777
6532.257080078125	-0.2917484529285725	-9.38433199978024	-2.275051569047583	0.3587047118933778	0.003641210253730994	0.3614128686332386	0.1006160164271047	-0.4439918533604887	0.6301652892561984
6551.788330078125	-0.2263270667115654	-9.726512418236739	-2.122431109614489	-0.3549424202435261	-1.126445052157665	-0.7376420336184115	0.1293634496919918	-0.4215885947046843	0.6198347107438017
6571.319580078125	-0.423911371950907	-9.57373134359746	-2.202954268303102	-0.3587047118933778	-0.003641210253730994	-0.3614128686332386	0.1211498973305955	-0.4256619144602851	0.640495867768595
6590.850830078125	-0.4423177168561585	-9.646349395116824	-1.922742771461385	3.718591414975016e-05	-0.3718219555833518	-0.003718591414975016	0.1334702258726899	-0.4297352342158859	0.6198347107438017
6610.382080078125	-0.288169704291896	-9.736508204387713	-2.061009856936802	-0.3622810739724808	-0.7399471462665556	-0.003776660722940747	0.1129363449691992	-0.4236252545824847	0.6301652892561984
6629.913330078125	-0.1523523293016551	-9.739260586474202	-1.921589023278164	-3.718591414975016e-05	0.3718219555833518	0.003718591414975016	0.1211498973305955	-0.4195519348268839	0.640495867768595
6649.444580078125	-0.08194214540381584	-9.619827960347235	-1.935261819872806	-0.7174094237867555	-0.007282420507461989	-0.7228257372664771	0.1211498973305955	-0.4358452138492871	0.621900826446281
6668.975830078125	-0.3406033401128197	-9.566795079969811	-1.97988866290601	-3.718591414975016e-05	0.3718219555833518	0.003718591414975016	0.1006160164271047	-0.4175152749490835	0.621900826446281
6688.507080078125	-0.2776495397230847	-9.666440017843799	-2.078348675897178	-0.3587790837216773	0.7400027009129726	-0.3539756858032885	0.1252566735112936	-0.4297352342158859	0.6136363636363636
6708.038330078125	-0.4661260952918715	-9.554047437477706	-2.129130156937618	0.007264281900655208	0.3571460052755938	-0.7264281900655207	0.1293634496919918	-0.4317718940936863	0.6301652892561984
6727.569580078125	-0.2702704407822776	-10.0273874425196	-1.990985307257415	-0.7320123594163656	0.02206948010805394	0.7374678256945143	0.1314168377823409	-0.4195519348268839	0.6198347107438017
6747.100830078125	-0.3957908301072284	-9.384639035068005	-2.140305663092387	-0.7245993338591113	-1.108072336949759	-0.003834730030906479	0.1170431211498973	-0.4276985743380855	0.6177685950413223
6766.632080078125	-0.2079152014800784	-9.517225915145227	-2.069493283997389	-0.724636519773261	-0.7362503813664076	-0.0001161386159314638	0.1190965092402464	-0.4419551934826884	0.628099173553719
6786.163330078125	-0.3629204418469119	-9.697344276197169	-1.90265193843627	-0.7173722378726058	-0.3791043760908138	-0.7265443286814521	0.1314168377823409	-0.4317718940936863	0.6177685950413223
6805.694580078125	-0.4110285077532982	-9.676232550840233	-1.965716408223393	-1.094144689732247	-2.205165488491909	0.7188167993116735	0.1232032854209446	-0.4276985743380855	0.6260330578512396
6825.225830078125	-0.4927143522961798	-9.712644307242432	-2.242854923460677	-0.7245621479449615	-1.479894292533111	-0.007553321445881495	0.108829568788501	-0.4399185336048879	0.6239669421487604
6844.757080078125	-0.2967372506094046	-9.845945044363708	-2.108758313019847	-1.08319248801004	-2.227179413953546	-0.3764033729090701	0.1170431211498973	-0.4256619144602851	0.6322314049586777
6864.288330078125	-0.2086375755988963	-9.877459482776977	-2.045414146703458	-0.7172606801301565	-1.494570242840869	-0.7377001029263772	0.108829568788501	-0.405295315682281	0.6260330578512396
6883.819580078125	-0.4080041575942734	-9.658588010955482	-1.733194746857554	-1.083304045752489	-1.11171354720349	-0.3652475986641451	0.1211498973305955	-0.4317718940936863	0.6177685950413223
6903.350830078125	-0.1509107355361538	-9.85879447115669	-1.969642148794873	-0.00379947756400148	1.494625797487286	0.3799477564001479	0.1293634496919918	-0.4236252545824847	0.6177685950413223
6922.882080078125	-0.3964824481227343	-9.554862658226352	-2.117251729242193	0.7279897663674655	3.703488050879343	-0.3352085208045162	0.1170431211498973	-0.4236252545824847	0.6342975206611571
6942.413330078125	-0.1006387017454483	-9.639206513564361	-1.97870994181839	1.090568327653144	1.468859552479084	-0.3611805914013757	0.108829568788501	-0.4134419551934826	0.6301652892561984
6961.944580078125	-0.5443530611391904	-9.862674156435006	-2.188231295360323	-0.003687919821552229	0.3791599307372308	0.3687919821552229	0.1108829568788501	-0.4195519348268839	0.6301652892561984
6981.475830078125	-0.4022417256224365	-9.853391491284588	-2.258609145918783	-0.003539176164953228	-1.108127891596177	0.3539176164953228	0.1211498973305955	-0.4215885947046843	0.6301652892561984
7001.007080078125	-0.4377224395741148	-9.97486358879563	-2.075918680862843	-0.3585559682367788	-1.490929032587138	-0.3762872342931387	0.1314168377823409	-0.4338085539714867	0.6446280991735538
7020.538330078125	-0.2832984106980768	-9.898266486125712	-1.890052976730773	-0.7172978660443063	-1.122748287257517	-0.7339815115114022	0.1170431211498973	-0.4215885947046843	0.621900826446281
7040.069580078125	-0.2996653893683249	-9.576891809229092	-2.011153687722505	-0.3587418978075275	0.3681807453296208	-0.3576942772182636	0.1293634496919918	-0.4256619144602851	0.6239669421487604
7059.600830078125	-0.3072558379421486	-9.496012720934628	-2.091472068595048	0.003539176164953228	1.108127891596177	-0.3539176164953228	0.1252566735112936	-0.4297352342158859	0.6177685950413223
7079.132080078125	-0.6450099010994126	-9.665219868022145	-1.833003296686253	0.007301467814804958	-0.01467595030775797	-0.7301467814804957	0.1047227926078029	-0.4256619144602851	0.6342975206611571
7098.663330078125	-0.5046910943731315	-9.653183453847312	-2.176963520895618	-0.3658574360515838	-1.47625308227938	0.3538595471873571	0.1211498973305955	-0.4073319755600814	0.615702479338843
7118.194580078125	-0.2884055010839555	-9.859917778683812	-1.719816630534817	-0.362095144401732	-2.599056924183315	-0.02236961779781583	0.106776180698152	-0.4399185336048879	0.640495867768595
7137.725830078125	-0.03703902318615883	-9.748642617496857	-2.09869922712804	-7.437182829950031e-05	0.7436439111667036	0.007437182829950031	0.108829568788501	-0.4215885947046843	0.6260330578512396
7157.257080078125	-0.5147861938218088	-9.866447536002385	-1.840460205939713	0.007115538244056207	1.844433827609001	-0.7115538244056206	0.1314168377823409	-0.4195519348268839	0.6363636363636364
7176.788330078125	-0.5198530646879715	-9.784752490915778	-2.004897843734285	-0.3550167920718256	-0.3828011409909618	-0.7302048507884614	0.1149897330595483	-0.415478615071283	0.6260330578512396
7196.319580078125	-0.2283553922940978	-9.847168243508424	-2.054820256863408	-0.3621323303158818	-2.227234968599963	-0.01865102638284081	0.108829568788501	-0.4276985743380855	0.615702479338843
7215.850830078125	-0.3146514978616622	-9.545070650975271	-2.17828340461126	-0.0001487436565990006	1.487287822333407	0.01487436565990006	0.1314168377823409	-0.4215885947046843	0.628099173553719
7235.382080078125	-0.4359038863885316	-9.714275589932292	-2.13653712038228	-0.003687919821552229	0.3791599307372308	0.3687919821552229	0.1190965092402464	-0.4134419551934826	0.6115702479338843
7254.913330078125	-0.2893707695571358	-9.566896548823474	-2.020974348095474	0.3624298176290798	-0.7473406760668516	-0.01109770493695932	0.1211498973305955	-0.4073319755600814	0.6260330578512396
7274.444580078125	-0.2609505528606725	-9.577707345424951	-1.96831490464425	0.3623182598866305	0.3681251906832038	5.806930796573191e-05	0.1416837782340863	-0.4276985743380855	0.6363636363636364
7293.975830078125	-0.3207254339567885	-9.633701223646028	-2.309152201440384	-3.718591414975016e-05	0.3718219555833518	0.003718591414975016	0.1273100616016427	-0.415478615071283	0.609504132231405
7313.507080078125	-0.2144851783183667	-9.69601687432294	-2.183827389387778	-0.7210229717800084	-0.3717664009369348	-0.3614709379412043	0.1149897330595483	-0.4276985743380855	0.6198347107438017
7333.038330078125	-0.4083243365159329	-9.585358202140151	-2.055855449468905	-0.7208742281234094	-1.859054223270342	-0.3763453036011044	0.1149897330595483	-0.4297352342158859	0.6053719008264463
7352.569580078125	-0.2914889975955037	-9.627581442555879	-1.950366746816546	-0.3549052343293763	-1.498267007741017	-0.7413606250333865	0.1149897330595483	-0.4215885947046843	0.6198347107438017
7372.100830078125	-0.1552410371588931	-9.636861268681375	-2.158632094703562	-0.007338653728954708	0.3864979058911098	0.7338653728954707	0.1273100616016427	-0.4276985743380855	0.6260330578512396
7391.632080078125	-0.2978933646467267	-9.706318854569108	-2.070221178442443	-0.7246737056874109	-0.3644284257830558	0.003602452799043552	0.1129363449691992	-0.4195519348268839	0.6136363636363636
7411.163330078125	-0.3073323338914121	-9.866037454624891	-2.088922203619599	-0.3623554458007803	0.003696764900147988	0.003660522107009284	0.1232032854209446	-0.4236252545824847	0.6322314049586777
7430.694580078125	-0.1378811883842873	-9.567914917577585	-2.070627053857091	-3.718591414975016e-05	0.3718219555833518	0.003718591414975016	0.1252566735112936	-0.4073319755600814	0.621900826446281
7450.225830078125	-0.3360522254406601	-9.655323552892481	-2.131592485311332	-0.0001115577424492505	1.115465866750055	0.01115577424492505	0.1149897330595483	-0.4276985743380855	0.6198347107438017
7469.757080078125	-0.1568924033213437	-9.377395210407235	-2.103586555955209	0.007301467814804958	-0.01467595030775797	-0.7301467814804957	0.1170431211498973	-0.4093686354378818	0.6322314049586777
7489.288330078125	-0.1975007117277754	-9.58719189679198	-2.083309609074155	0.3623554458007803	-0.003696764900147988	-0.003660522107009284	0.1232032854209446	-0.415478615071283	0.6074380165289256
7508.819580078125	-0.3400923156270184	-9.486629848719403	-1.996922812432721	-0.7209485999517089	-1.115410312103638	-0.3689081207711543	0.1149897330595483	-0.4236252545824847	0.6177685950413223
7528.350830078125	0.3061178621196003	-9.534355224581331	-1.870595403986674	-0.3586303400650783	-0.7472851214204346	-0.3688500514631886	0.1108829568788501	-0.4175152749490835	0.6239669421487604
7547.882080078125	-0.1970653945732039	-9.667051144245336	-2.097820180893204	-0.3624298176290798	0.7473406760668516	0.01109770493695932	0.1026694045174538	-0.4195519348268839	0.615702479338843
7567.413330078125	-0.07582877840700739	-9.697851305018267	-2.139040719766422	-1.083489975323238	0.7473962307132686	-0.34665464158927	0.1108829568788501	-0.4236252545824847	0.6342975206611571
7586.944580078125	-0.2332266858879169	-9.685409961770427	-2.225777137069437	-0.3586303400650783	-0.7472851214204346	-0.3688500514631886	0.1232032854209446	-0.4276985743380855	0.621900826446281
7606.475830078125	-0.2148463653777757	-9.876133658138816	-2.171787820740812	-0.003613547993252729	-0.3644839804294728	0.3613547993252729	0.108829568788501	-0.4175152749490835	0.6239669421487604
7626.007080078125	-0.1884276612507009	-9.534258277137726	-2.385744624976637	-0.3587418978075275	0.3681807453296208	-0.3576942772182636	0.1190965092402464	-0.4134419551934826	0.6012396694214877
7645.538330078125	-0.2951000795715596	-9.885415692394805	-2.163330680948013	0.003725105735701979	-0.7509818863205826	-0.3725105735701979	0.1149897330595483	-0.4297352342158859	0.6136363636363636
7665.069580078125	-0.1598986152655948	-9.898367218935876	-2.003379491146843	-0.3697312854438847	0.7620166263746095	0.741244486417455	0.135523613963039	-0.4256619144602851	0.6033057851239669
7684.600830078125	-0.4411008792302458	-9.615955950951113	-1.963304025658476	-0.003613547993252729	-0.3644839804294728	0.3613547993252729	0.108829568788501	-0.4317718940936863	0.6322314049586777
7704.132080078125	-0.1263705195652191	-9.737526467992755	-2.120982681159363	0.3660433656223325	-0.3828566956373787	-0.3724525042622321	0.1396303901437372	-0.4276985743380855	0.6198347107438017
7723.663330078125	-0.3200898078216714	-9.70682903786234	-1.997006405944287	-0.0001859295707487508	1.859109777916759	0.01859295707487508	0.1149897330595483	-0.4073319755600814	0.6177685950413223
7743.194580078125	-0.6105662198619762	-9.694083077755375	-1.981126004600797	-3.718591414975016e-05	0.3718219555833518	0.003718591414975016	0.1293634496919918	-0.4236252545824847	0.628099173553719
7762.725830078125	-0.1547000451878134	-9.57668634794406	-2.176665160406222	0.3624298176290798	-0.7473406760668516	-0.01109770493695932	0.1108829568788501	-0.4195519348268839	0.628099173553719
7782.257080078125	-0.05739719772467927	-9.571891760597646	-1.753426742510692	-0.7209485999517089	-1.115410312103638	-0.3689081207711543	0.1232032854209446	-0.415478615071283	0.6260330578512396
7801.788330078125	-0.2592534468522706	-9.657158614482235	-2.024885104924315	-0.7136099462227541	-1.501908217994748	-1.102773493666625	0.1232032854209446	-0.4317718940936863	0.6363636363636364
7821.319580078125	0.04931859458802988	-9.670720321083204	-1.977286486267663	-0.003650733907402479	0.007337975153878983	0.3650733907402479	0.1170431211498973	-0.4134419551934826	0.6198347107438017
7840.850830078125	-0.2781156129809683	-9.776590714863845	-2.062812900634391	-0.724636519773261	-0.7362503813664076	-0.0001161386159314638	0.108829568788501	-0.4236252545824847	0.6136363636363636
7860.382080078125	-0.3031952436869155	-9.538033128792103	-1.893491877102817	-0.003725105735701979	0.7509818863205826	0.3725105735701979	0.1211498973305955	-0.4256619144602851	0.6177685950413223
7879.913330078125	-0.1798411881003848	-9.718148650819124	-2.005293729987174	0.3587790837216773	-0.7400027009129726	0.3539756858032885	0.1190965092402464	-0.4175152749490835	0.628099173553719
7899.444580078125	-0.1740574634416395	-9.576278579846131	-2.19808455194535	0.7210229717800084	0.3717664009369348	0.3614709379412043	0.1108829568788501	-0.4215885947046843	0.609504132231405
7918.975830078125	-0.3544191394442293	-9.894595521753635	-2.186028685192356	-0.3587047118933778	-0.003641210253730994	-0.3614128686332386	0.108829568788501	-0.4256619144602851	0.6239669421487604
7938.507080078125	-0.3646333202159867	-9.817898106869837	-1.845555992800443	0.3625041894573793	-1.490984587233555	-0.01853488776690934	0.1232032854209446	-0.4236252545824847	0.6198347107438017
7958.038330078125	-0.06295064591760048	-9.727020708846691	-2.234978469413318	-0.7172978660443063	-1.122748287257517	-0.7339815115114022	0.1129363449691992	-0.405295315682281	0.6177685950413223
7977.569580078125	-0.1306211707665604	-9.63890084521452	-1.97929430778132	0.7209485999517089	1.115410312103638	0.3689081207711543	0.1149897330595483	-0.415478615071283	0.6342975206611571
7997.100830078125	-0.2231725945769893	-9.725492472246559	-2.227580180767025	0.3621695162300315	1.855413013016611	0.0149324349678658	0.135523613963039	-0.4195519348268839	0.609504132231405
8016.632080078125	-0.4910164576697443	-9.582095321313219	-2.299451411008529	-0.0001115577424492505	1.115465866750055	0.01115577424492505	0.1108829568788501	-0.4297352342158859	0.6260330578512396
8036.163330078125	-0.2755321003027505	-9.815755379097888	-2.148929989908318	-0.003613547993252729	-0.3644839804294728	0.3613547993252729	0.1108829568788501	-0.4236252545824847	0.5991735537190083
8055.694580078125	-0.2819956137064969	-9.644511915098434	-2.266812876450104	-0.7172978660443063	-1.122748287257517	-0.7339815115114022	0.1232032854209446	-0.4338085539714867	0.6301652892561984
8075.225830078125	-0.2846090938699932	-9.585356940351298	-2.179696871000228	0.003650733907402479	-0.007337975153878983	-0.3650733907402479	0.1232032854209446	-0.4175152749490835	0.6363636363636364
8094.757080078125	-0.4543291581265906	-9.493566427794264	-2.189028062446982	0.0001115577424492505	-1.115465866750055	-0.01115577424492505	0.1314168377823409	-0.4256619144602851	0.6322314049586777
8114.288330078125	-0.1168566316073376	-9.627783644219708	-2.104778946422079	0.0001115577424492505	-1.115465866750055	-0.01115577424492505	0.1375770020533881	-0.4256619144602851	0.6301652892561984
8133.819580078125	-0.2185560246080372	-9.717333114623266	-2.048132513065429	-0.7136843180510536	-0.7582643068280446	-1.095336310836675	0.1190965092402464	-0.4256619144602851	0.6074380165289256
8153.350830078125	-0.044218601764454	-9.590964014570506	-1.859379941184867	-0.358816269635827	1.111824656496325	-0.3502570943883135	0.1170431211498973	-0.4195519348268839	0.6260330578512396
8172.882080078125	-0.2475724365379353	-9.800048421147267	-1.74758544873549	-0.365968993794033	-0.3607872155293249	0.3650153214322821	0.1293634496919918	-0.4195519348268839	0.6239669421487604
8192.413330078125	-0.4550799224946197	-9.413809174939928	-2.164002583512678	0.7211717154366073	-1.115521421396473	0.3465965722813042	0.1252566735112936	-0.4195519348268839	0.609504132231405
8211.944580078125	-0.1635033882973816	-9.809532762216154	-1.883220390087281	-0.3550539779859753	-0.01097918540760998	-0.7264862593734864	0.1232032854209446	-0.415478615071283	0.6198347107438017
8231.475830078125	-0.1702831375326193	-9.848391547802212	-1.990562082246026	0.3622810739724808	0.7399471462665556	0.003776660722940747	0.1026694045174538	-0.4073319755600814	0.615702479338843
8251.007080078125	-0.506103509271388	-9.763640134664415	-2.12988302428707	0	0	0	0.1190965092402464	-0.4297352342158859	0.6136363636363636
8270.538330078125	-0.3571067497028882	-9.575464515737268	-2.096441676570395	0.3659318078798833	0.7326091711126765	-0.3612967300173071	0.1293634496919918	-0.4195519348268839	0.6198347107438017
8290.069580078125	-0.09372961915269304	-9.826972576859371	-2.209012694910233	-0.7137215039652034	-0.3864423512446928	-1.0916177194217	0.1170431211498973	-0.415478615071283	0.609504132231405
8309.600830078125	-0.2995013568173269	-9.896838772037603	-2.016621439422437	0.003501990250803478	1.479949847179528	-0.3501990250803478	0.1375770020533881	-0.4297352342158859	0.621900826446281
8329.132080078125	-0.1847085386040357	-9.839722427481973	-1.843048713198811	0.3550539779859753	0.01097918540760998	0.7264862593734864	0.1149897330595483	-0.415478615071283	0.6177685950413223
8348.663330078125	-0.2262064081524178	-9.596473405302616	-2.126453061586074	0.0001115577424492505	-1.115465866750055	-0.01115577424492505	0.1232032854209446	-0.4378818737270875	0.628099173553719
8368.194580078125	-0.4054403603668967	-9.61442571651863	-2.151987987770112	-0.7210229717800084	-0.3717664009369348	-0.3614709379412043	0.1252566735112936	-0.415478615071283	0.5991735537190083
8387.725830078125	-0.4496983930330329	-9.705402480414012	-2.010053565565572	-1.079690497759237	-0.7472295667740175	-0.7266023979894179	0.1232032854209446	-0.4378818737270875	0.6342975206611571
8407.257080078125	-0.3509034802502443	-9.713458791947581	-2.303217324991857	-0.7319008016739164	-1.093396386642001	0.7263120514495892	0.1252566735112936	-0.4175152749490835	0.621900826446281
8426.788330078125	-0.2642004477773195	-9.655424811448	-2.193318407422683	-0.362243888058331	-1.111769101849907	-0.007495252137915762	0.1211498973305955	-0.4378818737270875	0.6363636363636364
8446.319580078125	-0.3260880365855678	-9.635435131829334	-2.130398780481073	0.3623554458007803	-0.003696764900147988	-0.003660522107009284	0.1190965092402464	-0.405295315682281	0.6074380165289256
8465.850830078125	0.1244746818123389	-9.769753186214011	-2.149156060411296	0.003650733907402479	-0.007337975153878983	-0.3650733907402479	0.1211498973305955	-0.4338085539714867	0.6363636363636364
8485.382080078125	-0.1764012362376296	-9.697036399716835	-2.119958792079015	0.3622810739724808	0.7399471462665556	0.003776660722940747	0.1026694045174538	-0.4134419551934826	0.615702479338843
8504.913330078125	-0.4306761374435055	-9.622585284440067	-2.310795418549821	0.362243888058331	1.111769101849907	0.007495252137915762	0.1190965092402464	-0.4032586558044806	0.6239669421487604
8524.444580078125	-0.08846638239615282	-9.618604130308089	-2.051120586794906	-0.362243888058331	-1.111769101849907	-0.007495252137915762	0.1170431211498973	-0.4032586558044806	0.6053719008264463
8543.975830078125	-0.2133574545302558	-9.395652243631449	-2.221418182324809	0.3587790837216773	-0.7400027009129726	0.3539756858032885	0.1252566735112936	-0.4195519348268839	0.621900826446281
8563.507080078125	-0.2245936842736158	-9.47928529124847	-1.846877190879475	0.3624298176290798	-0.7473406760668516	-0.01109770493695932	0.1190965092402464	-0.4399185336048879	0.6239669421487604
8583.038330078125	-0.3098708953417121	-9.856858256160487	-2.004303488609595	-0.3585559682367788	-1.490929032587138	-0.3762872342931387	0.1108829568788501	-0.4215885947046843	0.6425619834710744
8602.569580078125	-0.3008073082810414	-9.657261029677539	-1.973089723965287	3.718591414975016e-05	-0.3718219555833518	-0.003718591414975016	0.1149897330595483	-0.4419551934826884	0.6301652892561984
8622.100830078125	-0.4486329700695798	-9.995057993655831	-2.045567664347341	0.369694099529735	-0.3901946707912577	-0.73752589500248	0.1170431211498973	-0.4195519348268839	0.6487603305785125
8641.632080078125	-0.448962612407643	-9.775164578011804	-2.034579586411901	-0.3622810739724808	-0.7399471462665556	-0.003776660722940747	0.1252566735112936	-0.4114052953156823	0.6136363636363636
8661.163330078125	-0.5792628156345103	-9.943961643721826	-2.024572812182992	-0.3585931541509285	-1.119107077003786	-0.3725686428781636	0.135523613963039	-0.415478615071283	0.6177685950413223
8680.694580078125	-0.2898573468838942	-9.803720542159127	-2.338088437203529	0	0	0	0.1170431211498973	-0.4338085539714867	0.6198347107438017
8700.225830078125	-0.1609190870011301	-9.638697171463699	-1.969363766628997	0.7137586898793531	0.01462039566134097	1.087899128006725	0.1396303901437372	-0.4175152749490835	0.6177685950413223
8719.757080078125	-0.4427987738566813	-9.746504936880326	-1.906707538110624	-0.3694337981306867	-2.212559018292205	0.7114957550976549	0.1273100616016427	-0.4276985743380855	0.6322314049586777
8739.288330078125	-0.2899874688594454	-9.787095948264554	-2.000417704685153	0.36239263171493	-0.3755187204834998	-0.007379113521984299	0.1170431211498973	-0.4317718940936863	0.6053719008264463
8758.819580078125	-0.1879126936747314	-9.737425104288164	-2.069576877508955	0.007264281900655208	0.3571460052755938	-0.7264281900655207	0.1129363449691992	-0.4419551934826884	0.6260330578512396
8778.350830078125	-0.289190964645465	-9.686838411902034	-2.026967845151169	0.3621695162300315	1.855413013016611	0.0149324349678658	0.1129363449691992	-0.4317718940936863	0.628099173553719
8797.882080078125	-0.2791518570771765	-9.716925767121621	-2.028271430760782	0.3549424202435261	1.126445052157665	0.7376420336184115	0.1170431211498973	-0.4276985743380855	0.6301652892561984
8817.413330078125	-0.4601878014985321	-9.585460722484527	-1.993739950048934	-0.3585931541509285	-1.119107077003786	-0.3725686428781636	0.1047227926078029	-0.4215885947046843	0.6301652892561984
8836.944580078125	-0.4034530429221138	-9.74711648387815	-1.884898569262876	-0.3585559682367788	-1.490929032587138	-0.3762872342931387	0.106776180698152	-0.405295315682281	0.6053719008264463
8856.475830078125	-0.1611296480161131	-9.708765252858543	-1.962345066129565	0	0	0	0.1006160164271047	-0.4317718940936863	0.6260330578512396
8876.007080078125	-0.2821714755279995	-9.80790211042072	-1.927617482400017	-0.7174094237867555	-0.007282420507461989	-0.7228257372664771	0.1129363449691992	-0.415478615071283	0.6239669421487604
8895.538330078125	-0.5665045530862174	-9.893169805497877	-2.116514897126092	-0.7173722378726058	-0.3791043760908138	-0.7265443286814521	0.1006160164271047	-0.4215885947046843	0.6115702479338843
8915.069580078125	-0.2048916399390872	-9.709581630246971	-1.836945335363762	0.3622810739724808	0.7399471462665556	0.003776660722940747	0.1170431211498973	-0.4358452138492871	0.628099173553719
8934.600830078125	-0.1152644117974103	-9.637268826481163	-2.157852940086322	0.007338653728954708	-0.3864979058911098	-0.7338653728954707	0.1170431211498973	-0.3991853360488798	0.628099173553719
8954.132080078125	-0.3723191915718814	-9.813716538608242	-2.256026947603955	-0.3624670035432295	1.119162631650203	0.01481629635193433	0.1006160164271047	-0.4378818737270875	0.6301652892561984
8973.663330078125	-0.3151932784507757	-9.815245826699083	-2.160224051640812	-0.724487776116662	-2.223538203699815	-0.01499050427583152	0.1170431211498973	-0.4093686354378818	0.6177685950413223
8993.194580078125	-0.06216912544625926	-9.616768017227624	-2.261029151791359	-0.3622810739724808	-0.7399471462665556	-0.003776660722940747	0.1232032854209446	-0.4378818737270875	0.6301652892561984
9012.725830078125	0.001180561196365091	-9.629618285213176	-2.039352039878837	0.003576362079102979	0.7363059360128246	-0.3576362079102978	0.1149897330595483	-0.4317718940936863	0.6384297520661157
9032.257080078125	-0.3207270111928558	-10.05370173361903	-2.309099626904808	-0.0001487436565990006	1.487287822333407	0.01487436565990006	0.108829568788501	-0.4317718940936863	0.6342975206611571
9051.788330078125	-0.07898325054158348	-9.698871251008446	-2.033891648613885	0.003576362079102979	0.7363059360128246	-0.3576362079102978	0.1211498973305955	-0.4175152749490835	0.609504132231405
9071.319580078125	-0.3207806372191436	-9.667052406034191	-1.973978759361882	-0.3552027216425743	1.476308636925797	-0.7116118937135864	0.1190965092402464	-0.4358452138492871	0.628099173553719
9090.850830078125	-0.6800899970899995	-9.773229099059099	-1.997000097000018	-0.003650733907402479	0.007337975153878983	0.3650733907402479	0.1149897330595483	-0.4175152749490835	0.615702479338843
9110.382080078125	-0.3194139621668385	-9.736610514433945	-2.019534594438718	-0.3657086923949848	-2.963540904612787	0.338985181527457	0.1149897330595483	-0.415478615071283	0.6198347107438017
9129.913330078125	-0.3109363183051652	-9.567202742918671	-1.968789389827826	-0.007264281900655208	-0.3571460052755938	0.7264281900655207	0.1334702258726899	-0.415478615071283	0.609504132231405
9149.444580078125	-0.1484754830482611	-9.378007072852272	-2.050817231724631	0	0	0	0.1170431211498973	-0.4236252545824847	0.6260330578512396
9168.975830078125	-0.2143353408919744	-9.795968426888406	-2.188821970267523	-7.437182829950031e-05	0.7436439111667036	0.007437182829950031	0.1108829568788501	-0.4276985743380855	0.6239669421487604
9188.507080078125	-0.2823512804396704	-9.68796024734216	-1.921623985344322	-0.3660061797081828	0.01103474005402697	0.3687339128472572	0.1232032854209446	-0.4215885947046843	0.615702479338843
9208.038330078125	-0.0877455855134022	-9.678371072649334	-2.075147149553261	7.437182829950031e-05	-0.7436439111667036	-0.007437182829950031	0.1108829568788501	-0.4114052953156823	0.628099173553719
9227.569580078125	-0.3544333345688349	-9.674600111510591	-2.185555514372169	-0.7211345295224576	0.7436994658131205	-0.3503151636962792	0.108829568788501	-0.4114052953156823	0.628099173553719
9247.100830078125	-0.2523743317447937	-9.82493436726415	-2.254188941840209	0.0001115577424492505	-1.115465866750055	-0.01115577424492505	0.1211498973305955	-0.4195519348268839	0.628099173553719
9266.632080078125	-0.1745984554127193	-9.636453500583446	-2.18005148624269	0.7137958757935028	-0.3572015599220108	1.08418053659175	0.1190965092402464	-0.4032586558044806	0.609504132231405
9286.163330078125	-0.1334152444597612	-9.669804262375324	-1.886158518007961	0.3621695162300315	1.855413013016611	0.0149324349678658	0.1108829568788501	-0.4338085539714867	0.6342975206611571
9305.694580078125	-0.4163067282524777	-9.874605842134969	-2.123109058250745	-0.3552027216425743	1.476308636925797	-0.7116118937135864	0.1232032854209446	-0.4215885947046843	0.621900826446281
9325.225830078125	-0.4212316478725846	-9.326198232812136	-1.958945070913848	0.7210973436083078	-0.3718775102297688	0.3540337551112543	0.09856262833675565	-0.415478615071283	0.609504132231405
9344.757080078125	-0.1993500210166707	-10.03778984012872	-2.02166596611098	-0.3659318078798833	-0.7326091711126765	0.3612967300173071	0.1190965092402464	-0.4338085539714867	0.6301652892561984
9364.288330078125	-0.2160781867463276	-9.896531947047979	-2.130727108455746	0.003762291649851729	-1.122803841903934	-0.3762291649851729	0.1232032854209446	-0.4215885947046843	0.6322314049586777
9383.819580078125	-0.2956252991819665	-9.745585513402169	-2.145823360601116	-0.3513660581644231	-0.3901391161448408	-1.095278241528709	0.1129363449691992	-0.4195519348268839	0.615702479338843
9403.350830078125	-0.3558757169523699	-9.765066481814602	-2.137476101587672	7.437182829950031e-05	-0.7436439111667036	-0.007437182829950031	0.1108829568788501	-0.415478615071283	0.615702479338843
9422.882080078125	-0.28755379360762	-9.726309059933131	-2.081540213079335	-0.003576362079102979	-0.7363059360128246	0.3576362079102978	0.1149897330595483	-0.4276985743380855	0.628099173553719
9442.413330078125	-0.2035249648867821	-9.779139738646725	-1.882501170440598	0.724636519773261	0.7362503813664076	0.0001161386159314638	0.1232032854209446	-0.4317718940936863	0.628099173553719
9461.944580078125	-0.4212182413660127	-9.756193898041676	-1.959391954466246	0.3695081699589862	1.468915107125501	-0.7189329379276049	0.1293634496919918	-0.4256619144602851	0.628099173553719
9481.475830078125	-0.2178951626958435	-9.737119435938324	-2.070161243471885	0.7173722378726058	0.3791043760908138	0.7265443286814521	0.1273100616016427	-0.4317718940936863	0.615702479338843
9501.007080078125	-0.09972232759035396	-9.618910219254214	-2.009255746988202	0.0001115577424492505	-1.115465866750055	-0.01115577424492505	0.1129363449691992	-0.4317718940936863	0.615702479338843
9520.538330078125	-0.2309736041657959	-9.714681465346942	-2.300879861140137	-3.718591414975016e-05	0.3718219555833518	0.003718591414975016	0.1149897330595483	-0.4297352342158859	0.615702479338843
9540.069580078125	-0.27800993816446	-9.636556546673175	-2.066335394518001	-0.0001487436565990006	1.487287822333407	0.01487436565990006	0.1211498973305955	-0.415478615071283	0.6074380165289256
9559.600830078125	-0.4778489023619899	-9.874504478430376	-2.071703254600338	-0.3623554458007803	0.003696764900147988	0.003660522107009284	0.1149897330595483	-0.4276985743380855	0.6136363636363636
9579.132080078125	-0.3304293788607782	-9.686838832498319	-1.985687371307395	-0.3586303400650783	-0.7472851214204346	-0.3688500514631886	0.1232032854209446	-0.4338085539714867	0.640495867768595
9598.663330078125	-0.2087669089564139	-9.650834633895906	-1.707769701452871	-0.00379947756400148	1.494625797487286	0.3799477564001479	0.1108829568788501	-0.4073319755600814	0.6301652892561984
9618.194580078125	0.009442123716819878	-9.666947046664896	-2.314737457227329	-0.717483795615055	0.7363614906592416	-0.7153885544365272	0.1252566735112936	-0.415478615071283	0.6384297520661157
9637.725830078125	-0.4839512287063274	-9.523144230615047	-2.201625709789089	-7.437182829950031e-05	0.7436439111667036	0.007437182829950031	0.1108829568788501	-0.4236252545824847	0.609504132231405
9657.257080078125	-0.3337644445250588	-9.777917170396435	-1.874518515831376	-0.3584815964084793	-2.234572943753842	-0.3837244171230887	0.1314168377823409	-0.4338085539714867	0.6074380165289256
9676.788330078125	-0.3606216202788396	-9.546600990556826	-1.979279324038681	-0.7245249620308118	-1.851716248116463	-0.01127191286085651	0.1211498973305955	-0.415478615071283	0.609504132231405
9696.319580078125	-0.01475188893734509	-9.59810311075641	-2.17493703542183	-0.717186308301857	-2.238214154007573	-0.7451372857563272	0.108829568788501	-0.4195519348268839	0.6198347107438017
9715.850830078125	-0.1963595814330925	-9.716822931330032	-2.121347285563584	0.01825366953701239	-0.03668987576939491	-1.825366953701239	0.1108829568788501	-0.4276985743380855	0.6239669421487604
9735.382080078125	-0.2396760041670577	-9.734161908014016	-2.34413319443141	0.007041166415756707	2.588077738775705	-0.7041166415756707	0.1170431211498973	-0.4195519348268839	0.6260330578512396
9754.913330078125	-0.336588485703538	-9.788830277044145	-1.780383809882067	0.007338653728954708	-0.3864979058911098	-0.7338653728954707	0.1334702258726899	-0.405295315682281	0.621900826446281
9774.444580078125	-0.1944779388048179	-9.989547866880226	-1.850735373172739	-0.36239263171493	0.3755187204834998	0.007379113521984299	0.1149897330595483	-0.4215885947046843	0.6301652892561984
9793.975830078125	-0.4363392035431031	-9.634416342478936	-2.12202654856323	0.3477896960853201	-0.3461668198679838	1.452914449439007	0.1190965092402464	-0.415478615071283	0.6239669421487604
9813.507080078125	-0.2836627522296204	-9.585050956554245	-2.211241592345989	-0.362095144401732	-2.599056924183315	-0.02236961779781583	0.1047227926078029	-0.4195519348268839	0.6260330578512396
9833.038330078125	-0.000667170856462849	-9.660215718576923	-1.977760971451239	-0.3623554458007803	0.003696764900147988	0.003660522107009284	0.1190965092402464	-0.4317718940936863	0.628099173553719
9852.569580078125	-0.09411998507934682	-9.777098795175654	-2.196000497355107	0.003501990250803478	1.479949847179528	-0.3501990250803478	0.1232032854209446	-0.45010183299389	0.6115702479338843
9872.100830078125	-0.5038646226738727	-9.572916227997885	-2.204512577537582	0.003576362079102979	0.7363059360128246	-0.3576362079102978	0.1211498973305955	-0.4175152749490835	0.6053719008264463
9891.632080078125	-0.4385473340373064	-9.635130304672062	-2.048422198756454	0.003539176164953228	1.108127891596177	-0.3539176164953228	0.1190965092402464	-0.4073319755600814	0.6177685950413223
9911.163330078125	-0.5128036080852277	-9.925806499947557	-1.906546397159082	-0.3621695162300315	-1.855413013016611	-0.0149324349678658	0.1047227926078029	-0.4256619144602851	0.621900826446281
9930.694580078125	-0.3547890013020084	-9.718048443754316	-1.840366623266387	-0.358518782322629	-1.86275098817049	-0.3800058257081136	0.1129363449691992	-0.4195519348268839	0.628099173553719
9950.225830078125	-0.2291061566621269	-9.767410990654088	-2.029794777929105	-0.7245621479449615	-1.479894292533111	-0.007553321445881495	0.1149897330595483	-0.4114052953156823	0.628099173553719
9969.757080078125	-0.2081998925902239	-9.32731796527084	-2.060003580325873	-0.36239263171493	0.3755187204834998	0.007379113521984299	0.1149897330595483	-0.4073319755600814	0.640495867768595
9989.288330078125	-0.2924203554932372	-9.637882581609478	-1.91932148355876	-0.3586303400650783	-0.7472851214204346	-0.3688500514631886	0.1149897330595483	-0.4236252545824847	0.6260330578512396
10008.81958007812	-0.3326422410631834	-9.614220991277097	-2.245258631227224	-0.3513660581644231	-0.3901391161448408	-1.095278241528709	0.09445585215605749	-0.4297352342158859	0.6384297520661157
10028.35083007812	-0.09415941598102903	-9.610444877833865	-1.861352800632367	-0.007413025557254208	1.130141817057813	0.7413025557254208	0.1252566735112936	-0.4338085539714867	0.6301652892561984
10047.88208007812	-0.316634872216277	-9.695711942016597	-2.112170926124103	0.358667525979228	0.3754631658370828	0.3651314600482136	0.1047227926078029	-0.4175152749490835	0.6198347107438017
10067.41333007812	-0.2751858969859808	-9.625643440025469	-2.160470100467309	0.003762291649851729	-1.122803841903934	-0.3762291649851729	0.1108829568788501	-0.4175152749490835	0.6074380165289256
10086.94458007812	-0.4208578429246373	-9.786077369212299	-1.971405235845423	0.003576362079102979	0.7363059360128246	-0.3576362079102978	0.1273100616016427	-0.4338085539714867	0.6322314049586777
10106.47583007812	-0.4030374412183834	-9.74364877266061	-2.232085292720556	-0.3623554458007803	0.003696764900147988	0.003660522107009284	0.135523613963039	-0.4093686354378818	0.6384297520661157
10126.00708007812	-0.3935188215523	-9.707237752301909	-1.882705948256668	-0.3659318078798833	-0.7326091711126765	0.3612967300173071	0.108829568788501	-0.4195519348268839	0.6198347107438017
10145.53833007812	-0.3158233842596572	-9.605449560910621	-2.139220524678092	-0.358667525979228	-0.3754631658370828	-0.3651314600482136	0.108829568788501	-0.4358452138492871	0.6301652892561984
10165.06958007812	-0.2080610958163025	-9.700606420980604	-1.731296806123251	0.003576362079102979	0.7363059360128246	-0.3576362079102978	0.108829568788501	-0.4175152749490835	0.6342975206611571
10184.60083007812	-0.2796676132711798	-9.723759194957681	-2.344412890960676	0.003650733907402479	-0.007337975153878983	-0.3650733907402479	0.108829568788501	-0.4338085539714867	0.6260330578512396
10204.13208007812	-0.3567913024894306	-9.575362521138251	-2.106956583685649	-0.003576362079102979	-0.7363059360128246	0.3576362079102978	0.1149897330595483	-0.415478615071283	0.6115702479338843
10223.66333007812	-0.1871918967919807	-9.797192046629407	-2.09360344026731	0	0	0	0.1252566735112936	-0.4195519348268839	0.6136363636363636
10243.19458007812	-0.4336807721516892	-9.723556782995713	-2.21064092827703	7.437182829950031e-05	-0.7436439111667036	-0.007437182829950031	0.1190965092402464	-0.4215885947046843	0.6177685950413223
10262.72583007812	-0.5553826729577357	-9.592907064256336	-2.153910901408814	-0.7281756959382143	-1.844378272962584	0.3538014778793914	0.1006160164271047	-0.4236252545824847	0.6260330578512396
10282.25708007812	-0.3844560231096629	-9.717640780805457	-1.851465896344571	-0.3623554458007803	0.003696764900147988	0.003660522107009284	0.108829568788501	-0.4276985743380855	0.6384297520661157
10301.78833007812	-0.09318389547341135	-9.840129459536405	-1.893870150886288	-0.3587418978075275	0.3681807453296208	-0.3576942772182636	0.1108829568788501	-0.4073319755600814	0.628099173553719
10321.31958007812	-0.2466260948975625	-9.799742437350213	-1.779130170081251	0.007041166415756707	2.588077738775705	-0.7041166415756707	0.1190965092402464	-0.4399185336048879	0.6239669421487604
10340.85083007812	-0.4106373532086108	-9.516106077537451	-1.978754893046308	0.731789243931467	2.208862253392057	-0.7151562772046642	0.1170431211498973	-0.4297352342158859	0.6198347107438017
10360.38208007812	-0.5263023829671123	-9.833504437159368	-2.123253901096258	0.724636519773261	0.7362503813664076	0.0001161386159314638	0.1232032854209446	-0.4297352342158859	0.6260330578512396
10379.91333007812	-0.4385031714274223	-9.8751160254282	-2.04989428575259	0.7209857858658586	0.7435883565202867	0.3651895293561793	0.1232032854209446	-0.4114052953156823	0.6198347107438017
10399.44458007812	-0.3453208531900783	-9.788320409198125	-1.822638226997392	0.7357002792379177	-0.4012294108452847	-1.106259807849737	0.1108829568788501	-0.4195519348268839	0.6260330578512396
10418.97583007812	-0.9613167082136935	-9.334159068989093	-1.622776392876886	4.347856304553716	4.045680332615095	-0.003021759719386237	0.1211498973305955	-0.4297352342158859	0.6074380165289256
10438.50708007812	0.4995516706478734	-9.585144959823854	-1.985055688262446	2.914153034404697	-7.123543175900384	-1.560230976701591	0.1314168377823409	-0.4276985743380855	0.6053719008264463
10458.03833007812	0.5902482648431715	-10.08581972770071	-0.008275494772382548	11.60997720125458	-0.1476483774202516	-1.577430270385288	0.1108829568788501	-0.4378818737270875	0.6239669421487604
10477.56958007812	0.1359459197297249	-9.772710819287388	0.1351360090091723	16.32685825888333	10.20063248490392	-2.251043279637604	0.1252566735112936	-0.4073319755600814	0.597107438016529
10497.10083007812	-0.3890891540573216	-10.1358054931452	-0.030361531422617	21.74278351301938	21.708351510255	-0.365307823677279	0.1334702258726899	-0.4297352342158859	0.597107438016529
10516.63208007812	-0.5272361067189469	-10.47380634117246	-0.09212977603510722	28.98732008663793	10.85891747548871	-0.1812840261114922	0.1396303901437372	-0.4460285132382892	0.5681818181818182
10536.16333007812	-0.2386129470577056	-10.65381818621532	0.6204315685901849	36.24210232960984	7.052086671344479	-1.021827163881924	0.1396303901437372	-0.4439918533604887	0.5619834710743802
10555.69458007812	-0.1304192845499475	-10.54550223533782	0.6806428183315838	41.66987224740769	9.61406483723348	-0.3205580741017422	0.1519507186858316	-0.4725050916496945	0.5557851239669421
10575.22583007812	-0.8727612119797389	-10.65219279187345	1.092040399324627	46.71788832589319	3.664524665374933	2.124210888942263	0.1375770020533881	-0.515274949083503	0.5392561983471075
10594.75708007812	-0.1031654339252438	-10.48002349030249	1.105514464174791	53.60685031872767	-1.990381176632035	1.633808706944213	0.1560574948665298	-0.515274949083503	0.5247933884297521
10614.28833007812	0.268720806346167	-10.62311360594807	1.042639788461099	59.40789069813435	0.917708254478532	1.239915693811617	0.1909650924024641	-0.5478615071283095	0.4958677685950413
10633.81958007812	0.3129788390123033	-10.53213684205269	0.9007053662565589	67.39338379352738	10.10257641564356	-0.2079445701292035	0.1848049281314169	-0.5560081466395111	0.4979338842975207
10653.35083007812	-0.5516958836504499	-10.50838166904698	1.389862788348326	71.71907539323765	16.79503828826538	2.005504154497723	0.1930184804928131	-0.5865580448065173	0.4979338842975207
10672.88208007812	-0.706985815127429	-10.49859208022453	1.566193837580961	76.42258065040373	14.90254651695446	2.669471191512223	0.2135523613963039	-0.6211812627291242	0.4772727272727273
10692.41333007812	-1.030854680566323	-10.52664301338311	1.695156018877413	81.84375563275563	10.41458347706754	4.030233825888375	0.2176591375770021	-0.6476578411405295	0.5020661157024794
10711.94458007812	-0.8194758686824796	-10.68829719754067	1.649195622749317	86.91367611468554	4.421015454285714	4.284562444490892	0.2299794661190965	-0.6659877800407331	0.5082644628099173
10731.47583007812	-0.7526570513098553	-10.91002577992352	1.755235043661837	89.83479594367769	0.6291939283277379	2.027652009043581	0.2361396303901437	-0.725050916496945	0.5123966942148761
10751.00708007812	-0.5373177996610521	-11.11706608855707	2.243926655368399	93.44665448168028	8.050679316454932	3.160638788493732	0.2176591375770021	-0.7148676171079429	0.5020661157024794
10770.53833007812	-0.6371994280942022	-11.15602781508379	2.2399809364734	98.48565854030009	19.21962505173832	6.506609738107083	0.242299794661191	-0.7331975560081466	0.5123966942148761
10790.06958007812	-1.036990917486107	-11.20529372998717	2.566363916203551	103.4964235614286	20.7799037430856	12.67648443685307	0.2484599589322382	-0.7596741344195519	0.5413223140495868
10809.60083007812	-1.005150464377729	-11.11166531681546	3.171682145924303	106.3696376186547	21.54533936112827	15.21015117800868	0.2484599589322382	-0.7861507128309572	0.5454545454545454
10829.13208007812	-1.633505541224614	-11.11483345832929	3.11685137415378	110.2976563827429	16.41657517152179	20.95899940686589	0.2443531827515401	-0.810590631364562	0.5950413223140496
10848.66333007812	-1.244450297742739	-11.34237226293682	3.48167659142462	115.3055515741612	10.17593077077256	27.41585707663765	0.2361396303901437	-0.8126272912423624	0.621900826446281
10868.19458007812	-1.531747001871391	-11.27526486393842	4.058233395713019	121.736904366375	8.061906647916755	36.45449089872783	0.1930184804928131	-0.8126272912423624	0.6632231404958678
10887.72583007812	-1.859735607918041	-11.01131451322683	3.99118693060135	127.0777260168499	4.107201016998519	45.85058672080441	0.1950718685831622	-0.8065173116089612	0.6694214876033058
10907.25708007812	-2.055668546994932	-11.11799949686169	3.855618233164385	128.8392110612615	-3.988634178181655	50.86150256950338	0.188911704312115	-0.8309572301425661	0.731404958677686
10926.78833007812	-1.996178357008962	-10.87209766876623	4.205945233632035	131.3581892306129	-11.41426076838033	52.58687404015605	0.1827515400410678	-0.8146639511201629	0.7541322314049587
10946.31958007812	-1.746318139555425	-10.52797619845625	4.543937985180816	134.2461177812111	-11.79364291770323	53.64909144410575	0.1581108829568789	-0.7861507128309572	0.7851239669421488
10965.85083007812	-1.950345454129638	-10.07727836350192	4.678181804321259	134.9665829642789	-5.84454718301602	54.06634125327157	0.1519507186858316	-0.7881873727087576	0.8347107438016529
10985.38208007812	-2.305075309079123	-9.37864101660225	5.169176969304094	133.8795909987049	-6.577100799482278	54.06988563676266	0.1437371663244353	-0.745417515274949	0.8884297520661157
11004.91333007812	-2.483109773264429	-8.652872160022167	4.770325775480972	131.0072694034183	-16.26626335152539	51.44697270164765	0.1190965092402464	-0.7291242362525457	0.9235537190082644
11024.44458007812	-2.557414153012402	-8.420230576140677	5.580471767080086	126.3452237262289	-27.46825775232445	46.63704766696629	0.108829568788501	-0.7128309572301424	0.9338842975206612
11043.97583007812	-2.048476350528099	-7.915674020004086	5.615878350936602	122.776393090918	-27.1695377750478	41.20127061834764	0.1190965092402464	-0.6680244399185336	0.9855371900826446
11063.50708007812	-2.025498386881813	-7.804911145091786	5.516612896060406	117.7361247112171	-25.69653702049724	37.98173177684344	0.1026694045174538	-0.6476578411405295	1.022727272727273
11083.03833007812	-2.225420944590908	-7.636219438751061	5.847364819696944	114.5071501436361	-19.40833466786383	34.79223201319887	0.1129363449691992	-0.6109979633401221	1.059917355371901
11102.56958007812	-2.008912172398211	-7.079548269075421	5.963739079940369	109.8255864758286	-17.93169270305953	31.93410604032791	0.1170431211498973	-0.5865580448065173	1.057851239669422
11122.10083007812	-2.193928272035368	-6.819370141291436	6.130942401178931	106.9554653637977	-13.12713696250581	29.09114477965667	0.1006160164271047	-0.5315682281059063	1.090909090909091
11141.63208007812	-1.631560809153647	-6.58753799495968	6.385360305121575	104.4443092650591	-10.92169370078182	26.58356624771385	0.1006160164271047	-0.5112016293279021	1.12603305785124
11161.16333007812	-2.034480746285018	-6.374482107965489	6.482691542833919	99.76267122542328	-8.701407824810815	23.73287745767284	0.08624229979466119	-0.4643584521384928	1.146694214876033
11180.69458007812	-2.031625160385193	-5.963558801857879	6.387505346173086	94.35270874619265	-6.838212399468987	21.25086451117112	0.09034907597535935	-0.4582484725050916	1.163223140495868
11200.22583007812	-2.1706553652445	-5.501845234762389	6.355178841483306	88.56571351370332	-4.198324397444795	20.24024283256735	0.08008213552361397	-0.405295315682281	1.179752066115703
11219.75708007812	-2.133442057472905	-5.343146265249573	6.448068582430168	84.22489837556535	-5.655926991284184	19.53914795071107	0.07392197125256673	-0.3890020366598778	1.18595041322314
11239.28833007812	-1.976223166285633	-5.025645490432354	6.540772209521091	79.53271717926299	-7.503668701268413	17.74277482732607	0.09034907597535935	-0.3360488798370672	1.198347107438017
11258.81958007812	-1.910740267862002	-4.987806019942047	6.69134226206671	73.74922393702447	-3.383830852064692	16.38195412364195	0.07186858316221766	-0.3075356415478615	1.208677685950413
11278.35083007812	-1.959052585839101	-4.69009366942131	6.968419527970047	69.41563589487301	-4.112465485045135	14.95814964313513	0.08418891170431211	-0.2708757637474541	1.223140495867769
11297.88208007812	-1.997930666279718	-4.159330915430442	6.931022209323936	65.08175036540835	-1.866524473358765	13.5640938939481	0.07186858316221766	-0.2688391038696538	1.221074380165289
11317.41333007812	-1.768785867333943	-4.101907430437975	6.959528911131422	61.82025386588813	1.141322055409381	13.62678732423098	0.08624229979466119	-0.2219959266802444	1.243801652892562
11336.94458007812	-2.296351616390953	-3.689153689299741	7.211720546365088	57.46450111889321	3.059468962435675	14.41945332807046	0.07186858316221766	-0.2097759674134419	1.254132231404959
11356.47583007812	-2.083259926138036	-3.730254042784631	7.108664204601165	54.19257302044888	0.8838220384985324	15.52530665076444	0.05749486652977413	-0.175152749490835	1.264462809917355
11376.00708007812	-2.151794776351869	-3.135746977687104	7.726492545062291	50.55869852125942	-5.378169631955331	16.5939159900007	0.0595482546201232	-0.1670061099796334	1.266528925619835
11395.53833007812	-2.230554847989931	-2.737879400850078	8.018494932997697	45.4971207127405	-9.810292315815119	15.50532003029839	0.03696098562628337	-0.1507128309572301	1.270661157024793
11415.06958007812	-1.82231095051343	-2.572547207332676	8.077031683780993	40.44612324680229	-10.54620936930302	13.35868981252508	0.06776180698151951	-0.1262729124236252	1.274793388429752
11434.60083007812	-2.055610977878476	-2.45464754951404	8.520365929282518	35.05445162302281	-9.091525775313945	9.047591320907143	0.06776180698151951	-0.1120162932790224	1.293388429752066
11454.13208007812	-1.873956756918743	-1.94591268473706	8.465225230624771	33.9995725443324	-2.453682056498079	5.839847016035491	0.07597535934291581	-0.06924643584521384	1.274793388429752
11473.66333007812	-1.958972935417703	-2.146734582451724	8.632431180590112	31.11898264746317	-2.46079781306629	4.043764239190326	0.07392197125256673	-0.08961303462321792	1.264462809917355
11493.19458007812	-2.344593747363059	-2.034751978314056	8.819791578768614	30.40227975604526	-9.532697389657438	3.250285265039323	0.06160164271047228	-0.06109979633401221	1.262396694214876
11512.72583007812	-2.425748063351264	-1.864325207150242	8.858268778375463	28.9638473604785	-9.911746211101834	2.165988589831642	0.07802874743326489	-0.05906313645621181	1.274793388429752
11532.25708007812	-2.146647466446275	-1.797416014150962	8.888248881542474	28.58320105922656	-9.499537614848938	3.998734657054865	0.07802874743326489	-0.03054989816700611	1.276859504132231
11551.78833007812	-2.426694404991637	-1.864631190947296	8.889813499721223	27.49244680200266	-9.109287389411264	4.378508205531117	0.09034907597535935	-0.05091649694501018	1.28099173553719
11571.31958007812	-2.292745266123099	-2.024654302713135	8.758175537436617	26.77500019230176	-8.744747854335374	3.659401059679614	0.05544147843942505	-0.01425661914460285	1.28099173553719
11590.85083007812	-2.114657175911505	-1.80373915354472	8.488572530383481	26.7634902018673	-3.14540459512346	4.810400103124983	0.106776180698152	-0.01018329938900204	1.287190082644628
11610.38208007812	-2.509751656295026	-1.758153035535392	8.325055209834172	26.02387888732294	-0.1340835200408335	6.307763441619793	0.07392197125256673	0.01629327902240326	1.28099173553719
11629.91333007812	-2.265589992752601	-1.542540764323341	8.519666425086676	23.82780462315969	0.3039468758666801	8.52388551011831	0.08008213552361397	0.01832993890020367	1.287190082644628
11649.44458007812	-1.997819471136975	-1.215961629000955	8.593982371232476	21.6467423396817	-3.377416140258192	9.238809510091112	0.08418891170431211	0.02036659877800407	1.303719008264463
11668.97583007812	-2.126141820335463	-1.3707858552418	8.20472734451541	18.7335561390449	-5.921243809524955	10.70235711000335	0.1026694045174538	0.03869653767820774	1.28099173553719
11688.50708007812	-1.901108087199074	-1.378024948194367	8.703602906635773	17.64350841418985	-12.59561074017097	11.01147742159508	0.08213552361396304	0.04276985743380855	1.278925619834711
11708.03833007812	-1.720025614313733	-1.119474948628107	8.667520477124425	15.09986756942618	-14.04234525789558	11.75237349216474	0.08829568788501027	0.05091649694501018	1.274793388429752
11727.56958007812	-1.820187202148827	-1.041860528694787	9.006240071627547	12.57466632377027	-17.38487942930634	10.64930965195829	0.08418891170431211	0.04684317718940936	1.291322314049587
11747.10083007812	-1.751244636411599	-1.066235765773084	9.374821213719956	10.40075676445049	-19.59363057340557	10.64896123611049	0.108829568788501	0.05091649694501018	1.274793388429752
11766.63208007812	-1.248622875758749	-1.120388063161995	9.287429191958303	10.78851860394649	-18.16140534204946	8.104661344481647	0.108829568788501	0.0570264765784114	1.285123966942149
11786.16333007812	-1.787551033444502	-1.057974834147056	9.585034448150072	10.44374748122802	-11.50160325241838	6.349889558356967	0.1232032854209446	0.04073319755600814	1.285123966942149
11805.69458007812	-1.60083703918091	-1.187603976001828	9.361234639363659	11.55603428275484	-8.217661772945807	3.816861579588979	0.1293634496919918	0.06313645621181262	1.289256198347108
11825.22583007812	-1.265726423672421	-0.9392515436540827	9.190880789080689	12.29106521553806	-1.926095983290758	2.777536417208792	0.1293634496919918	0.09368635437881873	1.274793388429752
11844.75708007812	-1.610499187329117	-0.7773947372364143	9.349972910970545	11.57682310877476	2.892969043631473	1.737978977596742	0.1252566735112936	0.09368635437881873	1.270661157024793
11864.28833007812	-1.758128483227277	-0.8251282095768196	9.270949440909245	11.94633127873375	4.361884150756976	1.019046039669137	0.1334702258726899	0.07739307535641547	1.301652892561983
11883.81958007812	-1.863978372939046	-0.8126863405836248	9.132612431301512	10.8595624286446	1.398398800790605	1.000278874670365	0.1334702258726899	0.09164969450101833	1.266528925619835
11903.35083007812	-1.824091650033398	-0.753122966844132	9.136388334446599	9.048082686953899	-1.55769301937547	0.9888327538856114	0.1293634496919918	0.08961303462321792	1.295454545454545
11922.88208007812	-2.228363278474434	-0.4805041267067337	9.278775949147805	7.229598964761588	-7.473684533900601	1.677784683261553	0.1232032854209446	0.08350305498981669	1.278925619834711
11942.41333007812	-1.784671000385634	-0.8037102901246884	9.155700012854474	5.776935492706712	-11.541601010563	2.016595656865113	0.1108829568788501	0.1038696537678208	1.272727272727273
11961.94458007812	-1.511403022457476	-0.5653536439279172	9.046767415249191	5.06306524508491	-10.44075553947429	0.9398523031033132	0.1314168377823409	0.1038696537678208	1.31404958677686
11981.47583007812	-1.744484602627202	-0.9440500215161287	9.149486754240071	5.417933293500136	-8.570666576149916	1.684931519551675	0.1293634496919918	0.1018329938900204	1.293388429752066
12001.00708007812	-1.653363731929804	-0.4645876066573032	9.112124397660118	6.120553852086533	-6.674922477110179	3.886643776854018	0.1581108829568789	0.1120162932790224	1.28099173553719
12020.53833007812	-1.113639858648104	-0.6367435542962202	8.787995288270121	6.105541871401275	-2.555529065077794	5.387841845379735	0.1314168377823409	0.08961303462321792	1.287190082644628
12040.06958007812	-1.60363742181838	-0.2318427663879428	8.787914060612655	4.645130700561797	-2.146906124432213	6.50142269744349	0.1375770020533881	0.1221995926680244	1.289256198347108
12059.60083007812	-2.017329092671294	-0.4122697399637184	9.244303089043125	1.402966262088932	-9.958586183350663	4.63091002299086	0.1519507186858316	0.1059063136456212	1.278925619834711
12079.13208007812	-1.522187374067558	-0.3188405842818437	9.406245802251924	1.410639589045235	-13.69148168949194	3.863577327360614	0.1437371663244353	0.1160896130346232	1.287190082644628
12098.66333007812	-0.8804888800914167	-0.4446914045628914	9.349629336380552	0.7075356135748909	-10.7535403659481	1.710206758452945	0.1642710472279261	0.1059063136456212	1.291322314049587
12118.19458007812	-1.43542519524211	-0.5107874797949488	9.514173174736989	0.3478268819994699	-0.7179887754513357	1.449195858024032	0.1724845995893224	0.1120162932790224	1.297520661157025
12137.72583007812	-1.50181027269623	-0.7889186548384477	9.393675756540995	1.075816648366935	2.985499275428007	1.113987337219516	0.1375770020533881	0.1140529531568228	1.291322314049587
12157.25708007812	-1.432015210864633	-0.4696849181795647	9.400507028821098	0.7064200361503985	0.4011183015524508	1.821764500902196	0.1457905544147844	0.109979633401222	1.28099173553719
12176.78833007812	-1.826563967568872	-0.4372556828472686	9.552132252295733	1.069184527006826	-3.692619974764567	1.777199473230461	0.1683778234086242	0.1120162932790224	1.278925619834711
12196.31958007812	-1.802304499617915	-0.4094117882097923	9.743483320597152	1.442826847757162	-7.064728265376518	0.6448514561679333	0.1663244353182751	0.1181262729124236	1.293388429752066
12215.85083007812	-1.423278111669891	-0.5435265894399314	9.775937055663027	0.3557605103548206	-7.053637970676074	0.6558330224889611	0.1581108829568789	0.1160896130346232	1.278925619834711
12235.38208007812	-1.443721456956045	-0.3801366044157878	9.457381898534827	1.076300065250882	-1.848186147155566	1.065645648824841	0.1765913757700205	0.109979633401222	1.299586776859504
12254.91333007812	-1.445028985655826	-0.5605593720287173	9.500966188527553	1.083638718979837	-2.234684053046676	0.3317802759293699	0.1601642710472279	0.1262729124236252	1.287190082644628
12274.44458007812	-1.645422348331008	-0.4286865592936927	9.514078277700273	0.3481243693126679	-3.69256442011815	1.419447126704232	0.1765913757700205	0.120162932790224	1.272727272727273
12293.97583007812	-1.45796468726169	0.1385914177853871	9.598822908722983	-0.02119787107556962	-7.02058930516041	2.119787107556962	0.162217659137577	0.1262729124236252	1.278925619834711
12313.50708007812	-1.480057821474227	-0.3518853622766667	9.668594049140893	-0.006557749531809954	-7.421763161359277	0.6557749531809954	0.1642710472279261	0.1160896130346232	1.274793388429752
12333.03833007812	-1.343975470824682	-0.4612187355666471	9.465849027489384	1.087847241599486	-7.819351361950831	-0.08907198603550318	0.1765913757700205	0.1262729124236252	1.287190082644628
12352.56958007812	-1.044616853871444	-0.5744261160851003	9.487228462381474	1.81203753040295	-2.621237513584203	-0.04433275043987153	0.1868583162217659	0.1181262729124236	1.285123966942149
12372.10083007812	-1.302255999608846	-0.36106277320686	9.408533320294849	1.441897199903418	2.230820624207277	0.7378162415423086	0.1642710472279261	0.1303462321792261	1.274793388429752
12391.63208007812	-1.524365537076483	-0.3395448569880627	9.47885123588275	0.3441017762637679	0.03299311086924692	1.82170643159423	0.1642710472279261	0.1160896130346232	1.285123966942149
12411.16333007812	-1.299446942173005	-0.3401545113026051	9.314898072433515	-0.3727870447248912	-5.17979668780514	1.046820414518103	0.1848049281314169	0.1181262729124236	1.291322314049587
12430.69458007812	-1.138128814446852	-0.4413283166711487	9.270960481561715	-0.7241531028893143	-5.569935803949981	-0.04845782701060667	0.1724845995893224	0.1303462321792261	1.266528925619835
12450.22583007812	-1.02387698820464	-0.4443868928528336	9.462566273488003	-1.079318638617739	-4.465449122607536	-0.7637883121391681	0.1724845995893224	0.1262729124236252	1.266528925619835
12469.75708007812	-1.501973516629194	-0.2589714370434394	9.399117220973139	0.3696569136155852	-0.01837271520790595	-0.733807303587505	0.1601642710472279	0.09572301425661914	1.28099173553719
12489.28833007812	-1.413062353662066	-0.2002234943507347	9.435411788735538	-0.3551283498142748	0.7326647257590937	-0.7190490765435364	0.1848049281314169	0.1323828920570265	1.256198347107438
12508.81958007812	-1.342548072183786	-0.3607572100060907	9.418269072792862	-1.079541754102638	-2.234517389107425	-0.7414767636493179	0.1581108829568789	0.1059063136456212	1.276859504132231
12528.35083007812	-1.297804250808925	-0.2429567077615524	9.593475026964164	-1.434558546174463	-2.617318530098387	-1.471681614437779	0.1663244353182751	0.1160896130346232	1.28305785123967
12547.88208007812	-1.226103887808044	-0.5631069237246009	9.536796260268135	-1.438209280081865	-2.609980554944507	-1.106608223697532	0.1950718685831622	0.120162932790224	1.287190082644628
12567.41333007812	-1.449729937754379	-0.3720793465405824	9.657664591812619	-1.076225693422583	1.104542235988862	-1.073082831654791	0.188911704312115	0.1344195519348269	1.28099173553719
12586.94458007812	-1.579344043291976	-0.5073212406644054	9.311468109732518	-1.072463401772731	-0.01826160591507197	-1.449311996639964	0.1745379876796715	0.1221995926680244	1.293388429752066
12606.47583007812	-1.601508941745575	-0.1078212244977358	9.383631391519149	-1.442008757645867	-1.115354757457222	-0.7266604672973836	0.1827515400410678	0.1181262729124236	1.287190082644628
12626.00708007812	-1.513380876485855	-0.5793264833970931	9.446029216195164	-1.08315530209589	-2.599001369536898	-0.3801219643240451	0.1868583162217659	0.1160896130346232	1.28099173553719
12645.53833007812	-1.371368906841341	-0.3634092798787	9.712296894711343	0.0004090450556472518	-4.09004151141687	-0.04090450556472517	0.1971252566735113	0.1364562118126273	1.270661157024793
12665.06958007812	-1.389374633785501	-0.4225644649239786	9.645821126183353	-0.7133496448237059	-4.104661907078212	-1.12880363357145	0.1848049281314169	0.120162932790224	1.276859504132231
12684.60083007812	-1.50061788222936	-0.6018664485874931	9.687262740978669	-0.3514776159068723	0.7253267506052147	-1.084122467283784	0.1683778234086242	0.1323828920570265	1.266528925619835
12704.13208007812	-1.489992042844041	-0.3917640938529065	9.666401428134684	0.01076627215145869	1.837095852455122	-1.076627215145868	0.1950718685831622	0.1160896130346232	1.289256198347108
12723.66333007812	-1.570427139185563	-0.7011047750033319	9.680904639518753	0.3694337981306867	2.212559018292205	-0.7114957550976549	0.1745379876796715	0.109979633401222	1.278925619834711
12743.19458007812	-1.513345388674341	-0.4626483423380369	9.778179622478032	0.7283244395948133	0.3570904506291769	-0.3686758435392914	0.1848049281314169	0.1160896130346232	1.274793388429752
12762.72583007812	-1.522513073315453	-0.382279227038663	9.750435777181757	0.7212089013507571	-1.487343376979824	0.3428779808663293	0.1663244353182751	0.1160896130346232	1.291322314049587
12782.25708007812	-1.362596319835085	-0.3205728100800106	9.41987732783614	1.080173914643183	-4.086455855809556	0.6782607095947427	0.1971252566735113	0.1181262729124236	1.274793388429752
12801.78833007812	-1.396980066101964	-0.3316902213729682	9.566002203398785	-0.003353246594204478	-2.967237669512935	0.3353246594204478	0.1786447638603696	0.120162932790224	1.28305785123967
12821.31958007812	-1.262489935262346	-0.4315384124014918	9.41633117541152	-0.01095220172220744	0.02201392546163695	1.095220172220744	0.1724845995893224	0.1059063136456212	1.272727272727273
12840.85083007812	-1.382119347875976	-0.4202185891465655	9.403978262532521	-0.3658946219657335	-1.104431126696028	0.3575781386023321	0.1909650924024641	0.1221995926680244	1.274793388429752
12860.38208007812	-1.457275435100285	-0.3211857240157587	9.575847836676154	-0.3766608941171922	-2.94152697915115	1.434205353748201	0.188911704312115	0.1140529531568228	1.293388429752066
12879.91333007812	-1.440681334436347	-0.1624869648010856	9.689377814544903	-1.467006106285438	-6.641318265130345	1.773074396659726	0.1868583162217659	0.1221995926680244	1.28305785123967
12899.44458007812	-1.289989046095513	-0.4737631249042158	9.666301536517089	-1.100962740663106	-7.024174960767724	1.400621892397494	0.1991786447638604	0.1160896130346232	1.287190082644628
12918.97583007812	-1.127708804368313	-0.3746258467457546	9.590293478943767	-0.7387188526047744	-5.912405858917817	1.40811714453541	0.1950718685831622	0.1303462321792261	1.270661157024793
12938.50708007812	-1.390126975389597	-0.7628077220426365	9.670899179653233	0.359113756949025	-4.086400301163139	0.3205083630685134	0.1950718685831622	0.1038696537678208	1.278925619834711
12958.03833007812	-1.221787781309911	-0.565044715956871	9.72625937699701	1.080025170986584	-2.599168033476149	0.6931350752546428	0.1909650924024641	0.1018329938900204	1.287190082644628
12977.56958007812	-1.217506374005257	-0.4736603942616998	9.58354580017523	1.442045943560017	0.7435328018738696	0.7229418758824087	0.1950718685831622	0.1221995926680244	1.272727272727273
12997.10083007812	-1.23620293034689	-0.4930389474788275	9.540097678229646	0.7282872536806635	0.7289124062125286	-0.3649572521243164	0.1930184804928131	0.1364562118126273	1.278925619834711
13016.63208007812	-1.461886484743001	-0.1926766300669037	9.729549491433373	0.7245993338591113	1.108072336949759	0.003834730030906479	0.1930184804928131	0.1181262729124236	1.276859504132231
13036.16333007812	-1.413573378147868	-0.2803887256011438	9.452445938262247	0.369545355873136	1.097093151542149	-0.7226515293425799	0.1724845995893224	0.1181262729124236	1.276859504132231
13055.69458007812	-1.304174707284701	-0.6250164886887202	9.805823576156712	0.7354771637530193	1.829702322654826	-1.083948259359887	0.188911704312115	0.1079429735234216	1.276859504132231
13075.22583007812	-1.307123350112497	-0.4826365498697072	9.570778337083212	0.7281013241099148	2.588022184129287	-0.3463642950494413	0.1909650924024641	0.120162932790224	1.293388429752066
13094.75708007812	-1.455743150260914	-0.290690285251029	9.524771675363809	1.097869795467949	1.454183602171326	-1.091327372881871	0.2114989733059548	0.1079429735234216	1.297520661157025
13114.28833007812	-1.478274756100158	-0.2079755044723843	9.275825203338588	0.7174466097009052	-0.3645395350758898	0.7191071458515021	0.188911704312115	0.1160896130346232	1.295454545454545
13133.81958007812	-1.402423107770175	-0.4201168048456898	9.414103592339153	0.3551655357284246	-1.104486681342445	0.7153304851285613	0.188911704312115	0.120162932790224	1.270661157024793
13153.35083007812	-1.208307933260833	-0.3640195650876693	9.610264442027768	-0.3730101602097897	-2.94886495430503	1.069131963007953	0.1786447638603696	0.1323828920570265	1.270661157024793
13172.88208007812	-1.367628491507767	-0.3321998789208446	9.587616383592223	-0.3765865222888927	-3.685170890317854	1.42676817091825	0.1827515400410678	0.1507128309572301	1.278925619834711
13192.41333007812	-1.127398877481091	-0.511192303718886	9.246629249369697	-0.7424811442546262	-4.789602017013883	1.784346309520583	0.1991786447638604	0.1221995926680244	1.285123966942149
13211.94458007812	-1.261483658651416	-0.4712130496306245	9.382788621713861	-0.3763634068039942	-5.916102623817965	1.404456622428401	0.2053388090349076	0.120162932790224	1.274793388429752
