Time Stamp	Accelerometer X	Accelerometer Y	Accelerometer Z	Gyroscope X	Gyroscope Y	Gyroscope Z	Magnetometer X	Magnetometer Y	Magnetometer Z
179.718017578125	-0.08352017008913754	-9.830338188328822	-1.88266099702875	-15.56358828860879	5.699600348687246	-1.612185631875215	0.1211498973305955	-0.4195519348268839	0.5991735537190083
199.249267578125	-0.5459145248458055	-9.663179029700146	-2.136182505139818	5.435629174324902	-3.030027118169034	-0.08465656292493938	0.135523613963039	-0.415478615071283	0.5764462809917356
218.780517578125	-0.1490527514488885	-9.764860389635141	-2.364908285037051	-3.61591831696565	-3.324105901556444	-0.727008883145178	0.1190965092402464	-0.4215885947046843	0.5557851239669421
238.311767578125	-0.2185008213456821	-9.683981932235103	-2.383305955143932	-1.083341231666639	-0.7398915916201386	-0.36152900724917	0.1375770020533881	-0.4195519348268839	0.5888429752066116
257.843017578125	-0.3011432595633738	-9.784036320592158	-2.295224681220875	-0.7283244395948133	-0.3570904506291769	0.3686758435392914	0.1149897330595483	-0.4195519348268839	0.5785123966942149
277.374267578125	-0.3392721528720287	-9.753031329428623	-2.357594904265714	-0.003613547993252729	-0.3644839804294728	0.3613547993252729	0.1108829568788501	-0.4276985743380855	0.5929752066115702
296.905517578125	-0.2648762934321525	-9.625643334876397	-2.170790218928252	-0.003539176164953228	-1.108127891596177	0.3539176164953228	0.106776180698152	-0.415478615071283	0.5640495867768596
316.436767578125	0.005491935986296966	-9.558224274031097	-2.183064532876566	0.003650733907402479	-0.007337975153878983	-0.3650733907402479	0.108829568788501	-0.4399185336048879	0.5723140495867769
335.968017578125	-0.5265728789526523	-9.863591897528025	-2.114237368244928	-0.007375839643104458	0.7583198614744615	0.7375839643104457	0.1314168377823409	-0.4134419551934826	0.5867768595041323
355.499267578125	-0.4003285382728162	-9.726106227374878	-1.989048724239463	0.00387384939230098	-2.23826970865399	-0.387384939230098	0.1211498973305955	-0.4358452138492871	0.5847107438016529
375.030517578125	-0.1144237449735458	-9.77699701087478	-2.185875167548473	0.003650733907402479	-0.007337975153878983	-0.3650733907402479	0.1273100616016427	-0.4317718940936863	0.5764462809917356
394.561767578125	-0.3520004479350431	-9.823813478165665	-2.266651735498563	0.3621323303158818	2.227234968599963	0.01865102638284081	0.1232032854209446	-0.4297352342158859	0.5764462809917356
414.093017578125	-0.5278039117031705	-9.673989931450691	-2.07320294322765	-0.7209485999517089	-1.115410312103638	-0.3689081207711543	0.1211498973305955	-0.4215885947046843	0.5764462809917356
433.624267578125	-0.2073300468991145	-9.697036715164048	-2.088998436696185	0.0001115577424492505	-1.115465866750055	-0.01115577424492505	0.1211498973305955	-0.4175152749490835	0.5909090909090909
453.155517578125	-0.4281785841309548	-9.885111075535676	-2.060713862301508	-0.007264281900655208	-0.3571460052755938	0.7264281900655207	0.135523613963039	-0.4175152749490835	0.5909090909090909
472.686767578125	-0.4379779518170154	-10.01494620442084	-2.067401606099487	-0.3585559682367788	-1.490929032587138	-0.3762872342931387	0.1293634496919918	-0.4399185336048879	0.5743801652892562
492.218017578125	-0.1581857368965199	-9.777813388263207	-2.06047543678267	0.007338653728954708	-0.3864979058911098	-0.7338653728954707	0.1129363449691992	-0.4093686354378818	0.5805785123966942
511.749267578125	-0.4028970672083947	-9.696936718397382	-1.903431093053511	-0.3587418978075275	0.3681807453296208	-0.3576942772182636	0.1334702258726899	-0.4236252545824847	0.5847107438016529
531.280517578125	-0.5524537455807818	-9.651960044404454	-2.251541813973943	-0.358667525979228	-0.3754631658370828	-0.3651314600482136	0.1314168377823409	-0.3971486761710794	0.5847107438016529
550.811767578125	-0.2396105488702653	-9.637474077468053	-2.012981704324492	-1.442083129474167	-0.3717108462905178	-0.7192232844674336	0.1190965092402464	-0.4215885947046843	0.5681818181818182
570.343017578125	-0.1624064206125828	-9.699178075998068	-1.919785979580576	-0.358667525979228	-0.3754631658370828	-0.3651314600482136	0.1047227926078029	-0.4175152749490835	0.5888429752066116
589.874267578125	-0.1820090990748722	-9.675516275367542	-2.266363364170927	-7.437182829950031e-05	0.7436439111667036	0.007437182829950031	0.1314168377823409	-0.4195519348268839	0.5785123966942149
609.405517578125	-0.733696307926952	-9.873895139563048	-1.87678973576827	-0.3623554458007803	0.003696764900147988	0.003660522107009284	0.1252566735112936	-0.4195519348268839	0.5909090909090909
628.936767578125	-0.1497838003660765	-9.768430095451698	-2.007206654464117	-0.3586303400650783	-0.7472851214204346	-0.3688500514631886	0.1211498973305955	-0.4256619144602851	0.5826446280991736
648.468017578125	-0.2387548983037615	-9.787197417118216	-2.041503389874618	-0.3623182598866305	-0.3681251906832038	-5.806930796573191e-05	0.1416837782340863	-0.4114052953156823	0.5867768595041323
667.999267578125	-0.2200480899276916	-9.704482215743285	-2.331730335743613	0.3660061797081828	-0.01103474005402697	-0.3687339128472572	0.1273100616016427	-0.4419551934826884	0.597107438016529
687.530517578125	-0.2503310224196221	-9.714273697249011	-2.322299252679264	0.0001487436565990006	-1.487287822333407	-0.01487436565990006	0.1314168377823409	-0.4215885947046843	0.5888429752066116
707.061767578125	-0.08241295036990129	-9.656646853952935	-2.252901654336624	-0.3625041894573793	1.490984587233555	0.01853488776690934	0.1293634496919918	-0.4236252545824847	0.5723140495867769
726.593017578125	-0.3006771863054902	-9.673885623572108	-2.310760456483663	-0.3585931541509285	-1.119107077003786	-0.3725686428781636	0.135523613963039	-0.4256619144602851	0.5702479338842975
746.124267578125	-0.327140053042449	-9.775775283817058	-2.095331565251702	-0.362243888058331	-1.111769101849907	-0.007495252137915762	0.1190965092402464	-0.4317718940936863	0.5681818181818182
765.655517578125	-0.2500313475668374	-9.914176802379943	-2.332288414438755	-0.3586303400650783	-0.7472851214204346	-0.3688500514631886	0.1375770020533881	-0.4317718940936863	0.5991735537190083
785.186767578125	-0.5920202895647697	-9.784753226959275	-1.93265701450768	0.003539176164953228	1.108127891596177	-0.3539176164953228	0.1273100616016427	-0.4215885947046843	0.5785123966942149
804.718017578125	-0.3553497087239293	-9.694896405820739	-2.155009709202357	-0.3659318078798833	-0.7326091711126765	0.3612967300173071	0.1375770020533881	-0.4236252545824847	0.5764462809917356
824.249267578125	-0.006666188238392938	-9.798822067530415	-2.111127058720236	-3.718591414975016e-05	0.3718219555833518	0.003718591414975016	0.1396303901437372	-0.4399185336048879	0.5764462809917356
843.780517578125	-0.1983468988778755	-9.584132163970514	-2.38843670407082	-3.718591414975016e-05	0.3718219555833518	0.003718591414975016	0.1190965092402464	-0.4317718940936863	0.5847107438016529
863.311767578125	-0.4540144995311667	-9.703464688181743	-2.199516682294447	-0.3550167920718256	-0.3828011409909618	-0.7302048507884614	0.1211498973305955	-0.4276985743380855	0.5805785123966942
882.843017578125	-0.2784152878337531	-9.576687609732913	-2.0528237388749	-0.003762291649851729	1.122803841903934	0.3762291649851729	0.1211498973305955	-0.4175152749490835	0.5743801652892562
902.374267578125	-0.5923404684864292	-9.711523418143946	-2.255317717119031	-0.7318264298456169	-1.837040297808705	0.7188748686196392	0.1273100616016427	-0.4358452138492871	0.5826446280991736
921.905517578125	-0.2508972501677785	-9.827790110887582	-1.97009166107405	-0.3622810739724808	-0.7399471462665556	-0.003776660722940747	0.1314168377823409	-0.4419551934826884	0.5847107438016529
941.436767578125	-0.1003082707893515	-9.64909967422189	-1.989724307021618	0	0	0	0.1314168377823409	-0.4093686354378818	0.5702479338842975
960.968017578125	-0.3677467842128133	-9.56557146022881	-2.075107192906223	-0.36239263171493	0.3755187204834998	0.007379113521984299	0.1190965092402464	-0.4317718940936863	0.5661157024793388
980.499267578125	-0.3383352746480595	-9.606061738802872	-2.055490845064684	-0.3551655357284246	1.104486681342445	-0.7153304851285613	0.1314168377823409	-0.4256619144602851	0.5785123966942149
1000.030517578125	-0.2273033758372166	-9.706828091520698	-2.089887472092779	-0.3550539779859753	-0.01097918540760998	-0.7264862593734864	0.1396303901437372	-0.4195519348268839	0.5702479338842975
1019.561767578125	-0.4646403389164862	-9.913567042916331	-2.178655369450462	-0.7245993338591113	-1.108072336949759	-0.003834730030906479	0.1293634496919918	-0.4276985743380855	0.5764462809917356
1039.093017578125	-0.3569419285338566	-9.685411223559282	-2.101935715538115	-0.7209857858658586	-0.7435883565202867	-0.3651895293561793	0.1375770020533881	-0.4256619144602851	0.5826446280991736
1058.624267578125	-0.06066207638396551	-9.639614071364148	-1.97793078720115	0.358667525979228	0.3754631658370828	0.3651314600482136	0.1314168377823409	-0.4175152749490835	0.5743801652892562
1078.155517578125	0.06586695540601605	-9.692036351085388	-1.862231846867202	0.007189910072355707	1.100789916442297	-0.7189910072355706	0.1293634496919918	-0.4012219959266802	0.5661157024793388
1097.686767578125	-0.05636568533667288	-9.558224904925526	-2.121143822110904	0.3696197277014355	0.3534492403754458	-0.73008871217253	0.1334702258726899	-0.4276985743380855	0.5743801652892562
1117.218017578125	-0.4323290808420233	-9.783119736138921	-2.255697305265892	1.086917593745742	1.476197527632963	0.00389279933887221	0.1293634496919918	-0.4093686354378818	0.5764462809917356
1136.749267578125	-0.3252174022764249	-9.795153626736045	-2.159419924119172	0	0	0	0.1232032854209446	-0.4378818737270875	0.5826446280991736
1156.280517578125	-0.2313884172514927	-9.508148921577982	-1.953719424950245	0.3695081699589862	1.468915107125501	-0.7189329379276049	0.1211498973305955	-0.4378818737270875	0.5847107438016529
1175.811767578125	-0.3075570900310006	-9.716110125776691	-2.081430332299981	0.3623554458007803	-0.003696764900147988	-0.003660522107009284	0.1211498973305955	-0.4175152749490835	0.5743801652892562
1195.343017578125	-0.3202893281841834	-9.503560216112886	-2.323689060527223	-0.0001487436565990006	1.487287822333407	0.01487436565990006	0.1252566735112936	-0.4256619144602851	0.5888429752066116
1214.874267578125	-0.7273873636577998	-9.871855247582689	-2.087087878073343	-0.003687919821552229	0.3791599307372308	0.3687919821552229	0.1252566735112936	-0.4114052953156823	0.5888429752066116
1234.405517578125	-0.3750075904485738	-9.704585787578372	-2.166413651714206	0.003650733907402479	-0.007337975153878983	-0.3650733907402479	0.1232032854209446	-0.4175152749490835	0.5929752066115702
1253.936767578125	-0.3549443590546363	-9.754765342761001	-2.168521364845458	-0.3512545004219738	-1.505604982894896	-1.106434015773634	0.1149897330595483	-0.4276985743380855	0.5909090909090909
1273.468017578125	-0.2128779747658002	-9.715497211840942	-2.237400841139995	-0.3547936765869271	-2.613732874491073	-0.7525163992783116	0.1170431211498973	-0.4338085539714867	0.5929752066115702
1292.999267578125	-0.1753799758840605	-9.746706192202513	-2.154000803864649	0.0001115577424492505	-1.115465866750055	-0.01115577424492505	0.1232032854209446	-0.4256619144602851	0.5764462809917356
1312.530517578125	-0.1124048828074171	-9.509677578774397	-1.919837239752763	0	0	0	0.1293634496919918	-0.415478615071283	0.5826446280991736
1332.061767578125	-0.1285131947626299	-9.641552599639917	-1.716226841245669	-0.3587418978075275	0.3681807453296208	-0.3576942772182636	0.108829568788501	-0.4358452138492871	0.5764462809917356
1351.593017578125	-0.2887106962629758	-9.796683125125028	-2.042976791234143	0.3733448334371375	-0.3975326459451367	-1.102599285742728	0.1273100616016427	-0.4358452138492871	0.5723140495867769
1371.124267578125	-0.2927712905182088	-9.754662717267555	-2.240956982726373	0.007375839643104458	-0.7583198614744615	-0.7375839643104457	0.1314168377823409	-0.4093686354378818	0.5743801652892562
1390.655517578125	-0.6621930994344821	-9.360775768817149	-2.2602300188506	-0.7209857858658586	-0.7435883565202867	-0.3651895293561793	0.1170431211498973	-0.4338085539714867	0.5681818181818182
1410.186767578125	-0.2126224625228995	-9.675414596215738	-2.24591791590335	-0.7208370422092596	-2.230876178853694	-0.3800638950160794	0.1273100616016427	-0.4134419551934826	0.5909090909090909
1429.718017578125	-0.1276827799732028	-9.844617432191335	-2.410574000893241	-0.365968993794033	-0.3607872155293249	0.3650153214322821	0.1232032854209446	-0.4073319755600814	0.5785123966942149
1449.249267578125	-0.2058726807729404	-9.616565500116584	-2.137577307568656	-0.3551283498142748	0.7326647257590937	-0.7190490765435364	0.1170431211498973	-0.4215885947046843	0.5847107438016529
1468.780517578125	-0.131087244024444	-9.74905154223457	-1.963758532518533	-0.0001859295707487508	1.859109777916759	0.01859295707487508	0.135523613963039	-0.4297352342158859	0.5743801652892562
1488.311767578125	-0.3851373890907313	-9.824527755806002	-2.162087030308957	-3.718591414975016e-05	0.3718219555833518	0.003718591414975016	0.1396303901437372	-0.4419551934826884	0.6012396694214877
1507.843017578125	-0.2351643203965803	-9.656036463594896	-2.161189320113992	-0.3549424202435261	-1.126445052157665	-0.7376420336184115	0.1211498973305955	-0.4338085539714867	0.5681818181818182
1527.374267578125	-0.2005652814065161	-9.648182774321439	-1.981157286449465	-0.003576362079102979	-0.7363059360128246	0.3576362079102978	0.1252566735112936	-0.4256619144602851	0.5743801652892562
1546.905517578125	-0.03101555864518578	-9.766695030628611	-2.299481378493808	0.003725105735701979	-0.7509818863205826	-0.3725105735701979	0.1293634496919918	-0.4276985743380855	0.5785123966942149
1566.436767578125	-0.2409527767635274	-9.724574731153542	-2.301574107882421	-0.3587047118933778	-0.003641210253730994	-0.3614128686332386	0.1273100616016427	-0.4236252545824847	0.5805785123966942
1585.968017578125	-0.2412934597540616	-9.778018218653813	-1.956884674864614	-0.7245993338591113	-1.108072336949759	-0.003834730030906479	0.1293634496919918	-0.4256619144602851	0.5805785123966942
1605.499267578125	-0.1627818027965973	-9.6592994495709	-1.907273240113424	3.718591414975016e-05	-0.3718219555833518	-0.003718591414975016	0.1314168377823409	-0.4256619144602851	0.5826446280991736
1625.030517578125	-0.2446474522511497	-9.575769342894539	-2.178418258295013	0.003650733907402479	-0.007337975153878983	-0.3650733907402479	0.1314168377823409	-0.415478615071283	0.5702479338842975
1644.561767578125	-0.3962277244978673	-9.724780297587644	-2.12574251673776	-0.3515519877351718	1.468970661771918	-1.076685284453834	0.1293634496919918	-0.4175152749490835	0.5950413223140496
1664.093017578125	-0.6063155686606349	-9.792708700533607	-2.12281437797884	-1.079876427329985	1.111880211142741	-0.7080094409145429	0.1293634496919918	-0.4134419551934826	0.5909090909090909
1683.624267578125	-0.4426686518811301	-9.763129530774899	-2.244378270628999	-1.086954779659892	-1.104375572049612	-0.000174207923897194	0.1396303901437372	-0.4215885947046843	0.5805785123966942
1703.155517578125	-0.5036950697966392	-9.756194739234246	-1.876831006778698	-1.086843221917442	-2.219841438799667	-0.01132998216882224	0.1273100616016427	-0.4256619144602851	0.5661157024793388
1722.686767578125	-0.007446920091700521	-9.699074504162983	-2.085102663609983	-0.003427618422503978	-2.223593758346232	0.3427618422503977	0.1273100616016427	-0.4256619144602851	0.5805785123966942
1742.218017578125	-0.2234265295838226	-9.34557457789877	-2.219115680539246	0.003725105735701979	-0.7509818863205826	-0.3725105735701979	0.1232032854209446	-0.4276985743380855	0.5805785123966942
1761.749267578125	-0.1136272407595654	-9.67673947451226	-2.212425308014488	0.3657830642232843	2.219896993446084	-0.346422364357407	0.1232032854209446	-0.4195519348268839	0.5909090909090909
1781.280517578125	-0.2830925813912958	-9.754866601316518	-2.23024728695681	-0.3625041894573793	1.490984587233555	0.01853488776690934	0.1252566735112936	-0.4378818737270875	0.5557851239669421
1800.811767578125	-0.5359392953382424	-9.3699537054927	-2.468690155391926	0.003687919821552229	-0.3791599307372308	-0.3687919821552229	0.1273100616016427	-0.4276985743380855	0.6053719008264463
1820.343017578125	-0.4039546039915114	-9.973945321957256	-2.201513200282956	-0.3513288722502733	-0.7619610717281925	-1.098996832943684	0.1211498973305955	-0.4032586558044806	0.5847107438016529
1839.874267578125	-0.1470646453860719	-9.687550902008164	-2.097845153797603	-0.003539176164953228	-1.108127891596177	0.3539176164953228	0.1334702258726899	-0.4195519348268839	0.5743801652892562
1859.405517578125	-0.4424683429005845	-9.756398097537856	-1.917721903313852	-0.7247480775157102	0.3792154853836477	0.01103963562899358	0.1416837782340863	-0.4297352342158859	0.5557851239669421
1878.936767578125	-0.1288791135302408	-9.748337580041444	-2.037362882325309	-0.3623182598866305	-0.3681251906832038	-5.806930796573191e-05	0.1273100616016427	-0.415478615071283	0.5764462809917356
1898.468017578125	0.102353945968624	-9.610238890803478	-2.078464865620801	-0.3587418978075275	0.3681807453296208	-0.3576942772182636	0.1334702258726899	-0.4256619144602851	0.5867768595041323
1917.999267578125	-0.2620774880307498	-9.668071721129943	-1.930750398975007	0.3621695162300315	1.855413013016611	0.0149324349678658	0.1129363449691992	-0.4093686354378818	0.5619834710743802
1937.530517578125	-0.5155574622587125	-9.913363579463651	-2.148084591376251	0.3660061797081828	-0.01103474005402697	-0.3687339128472572	0.1232032854209446	-0.415478615071283	0.5764462809917356
1957.061767578125	-0.7901913266211424	-9.87216186227417	-1.993622445961921	-1.079653311845087	-1.11905152235737	-0.7303209894043929	0.1314168377823409	-0.4276985743380855	0.5867768595041323
1976.593017578125	-0.4359937888443671	-9.654304658393013	-2.133540371854433	-0.3622810739724808	-0.7399471462665556	-0.003776660722940747	0.1211498973305955	-0.4134419551934826	0.5888429752066116
1996.124267578125	-0.1327740979984086	-9.606263625019485	-2.240863400053048	-0.3586303400650783	-0.7472851214204346	-0.3688500514631886	0.1170431211498973	-0.405295315682281	0.5805785123966942
2015.655517578125	-0.1126454113076786	-9.559755349656148	-1.911819623077382	0.3587047118933778	0.003641210253730994	0.3614128686332386	0.1252566735112936	-0.4175152749490835	0.5723140495867769
2035.186767578125	-0.2680315541847622	-9.836663535853074	-2.065614860507928	-0.3549796061576758	-0.7546230965743135	-0.7339234422034364	0.1211498973305955	-0.4236252545824847	0.5661157024793388
2054.718017578125	-0.2871176878350148	-9.596168052399989	-2.096077072166173	-0.003650733907402479	0.007337975153878983	0.3650733907402479	0.1190965092402464	-0.415478615071283	0.5888429752066116
2074.249267578125	-0.05139344863454731	-9.506617215058505	-2.28688504551509	0.003650733907402479	-0.007337975153878983	-0.3650733907402479	0.1314168377823409	-0.4297352342158859	0.5785123966942149
2093.780517578125	-0.3223476212519942	-9.604225730871478	-2.255079291600193	0.3623554458007803	-0.003696764900147988	-0.003660522107009284	0.1170431211498973	-0.4134419551934826	0.5826446280991736
2113.311767578125	-0.4686252258404895	-9.711522156355091	-2.379159138650354	3.718591414975016e-05	-0.3718219555833518	-0.003718591414975016	0.1211498973305955	-0.4256619144602851	0.5785123966942149
2132.843017578125	-0.245399793855246	-9.916012600013195	-2.153340204825133	-0.3695081699589862	-1.468915107125501	0.7189329379276049	0.1252566735112936	-0.4256619144602851	0.5681818181818182
2152.374267578125	-0.1660316977132443	-9.73701691559395	-2.132276742891857	7.437182829950031e-05	-0.7436439111667036	-0.007437182829950031	0.1293634496919918	-0.4175152749490835	0.5847107438016529
2171.905517578125	0.04497252060461767	-9.648792218337841	-2.165750686820589	-0.3623182598866305	-0.3681251906832038	-5.806930796573191e-05	0.1232032854209446	-0.405295315682281	0.5805785123966942
2191.436767578125	-0.3306549236184004	-9.746911758636617	-1.978169212719988	-0.7247108916015605	0.007393529800295976	0.007321044214018567	0.1273100616016427	-0.4236252545824847	0.5805785123966942
2210.968017578125	-0.1434543520280496	-9.639716907155735	-1.884854932398348	0.00379947756400148	-1.494625797487286	-0.3799477564001479	0.1273100616016427	-0.4317718940936863	0.5847107438016529
2230.499267578125	0.1828481886626694	-9.550879085665738	-2.094939622088981	0.362243888058331	1.111769101849907	0.007495252137915762	0.135523613963039	-0.4256619144602851	0.5764462809917356
2250.030517578125	-0.1273767961761489	-9.697851830763621	-2.087440127461704	0.7245993338591113	1.108072336949759	0.003834730030906479	0.1211498973305955	-0.4114052953156823	0.5723140495867769
2269.561767578125	-0.6985010737034529	-9.772515347164115	-2.049964209884906	-0.7210601576941581	5.555464641699391e-05	-0.3577523465262293	0.1026694045174538	-0.4195519348268839	0.5847107438016529
2289.093017578125	-0.1914031170916398	-9.865220341192963	-2.286562763612007	-0.7245993338591113	-1.108072336949759	-0.003834730030906479	0.1519507186858316	-0.4032586558044806	0.5867768595041323
2308.624267578125	0.005791610839081697	-9.75812737916203	-2.193053694636057	-0.003650733907402479	0.007337975153878983	0.3650733907402479	0.1232032854209446	-0.4093686354378818	0.5847107438016529
2328.155517578125	-0.1572094277708686	-9.797497714979247	-2.09301907430438	-0.3587418978075275	0.3681807453296208	-0.3576942772182636	0.1190965092402464	-0.4114052953156823	0.5785123966942149
2347.686767578125	-0.4154502890679402	-9.814328926798632	-2.151657031068659	-3.718591414975016e-05	0.3718219555833518	0.003718591414975016	0.1190965092402464	-0.4338085539714867	0.5909090909090909
2367.218017578125	-0.518635438444025	-9.544358791763569	-2.045485385199164	7.437182829950031e-05	-0.7436439111667036	-0.007437182829950031	0.1252566735112936	-0.4276985743380855	0.5805785123966942
2386.749267578125	-0.2372218248463575	-9.54670172336699	-2.09260583845475	-0.007152724158205957	-1.472611872025649	0.7152724158205956	0.1108829568788501	-0.4134419551934826	0.5785123966942149
2406.280517578125	-0.1606643633762631	-9.808614810824993	-1.977854554124564	-0.365968993794033	-0.3607872155293249	0.3650153214322821	0.1396303901437372	-0.4134419551934826	0.5723140495867769
2425.811767578125	-0.3215014341018942	-9.607285463692945	-1.949952196603527	-0.003762291649851729	1.122803841903934	0.3762291649851729	0.1293634496919918	-0.4073319755600814	0.5826446280991736
2445.343017578125	-0.2990344949414097	-9.576687820031056	-2.032183501953012	-0.3588534555499768	1.483646612079676	-0.3465385029733385	0.1416837782340863	-0.405295315682281	0.5681818181818182
2464.874267578125	-0.3928177401203905	-9.68367773597226	-2.239408662653652	0.362243888058331	1.111769101849907	0.007495252137915762	0.1273100616016427	-0.4114052953156823	0.5723140495867769
2484.405517578125	-0.3228436619951564	-9.694386117378436	-2.238544600161456	-0.003501990250803478	-1.479949847179528	0.3501990250803478	0.1375770020533881	-0.4317718940936863	0.5681818181818182
2503.936767578125	-0.3130300991844901	-9.784546398736317	-2.232330027183663	-0.3587418978075275	0.3681807453296208	-0.3576942772182636	0.1190965092402464	-0.4114052953156823	0.5929752066115702
2523.468017578125	-0.2193817076892625	-9.587600085486196	-2.020609743691253	-0.3550539779859753	-0.01097918540760998	-0.7264862593734864	0.1170431211498973	-0.4195519348268839	0.5847107438016529
2542.999267578125	-0.3675961581683873	-9.455522757807779	-2.080128061053756	0.3584815964084793	2.234572943753842	0.3837244171230887	0.1293634496919918	-0.4175152749490835	0.5681818181818182
2562.530517578125	-0.2742545390882472	-9.615342300971866	-2.191515363725095	0.3586303400650783	0.7472851214204346	0.3688500514631886	0.1314168377823409	-0.4114052953156823	0.5764462809917356
2582.061767578125	-0.3245265728789527	-9.834930258564196	-2.182447570701578	0	0	0	0.1437371663244353	-0.3971486761710794	0.5764462809917356
2601.593017578125	-0.3596807989647023	-9.682963458331921	-2.343973367843258	-1.08319248801004	-2.227179413953546	-0.3764033729090701	0.1293634496919918	-0.4215885947046843	0.5805785123966942
2621.124267578125	-0.3511889599784235	-9.733551097059692	-2.293701334052553	-0.369396612216537	-2.584380973875557	0.7077771636826798	0.1232032854209446	-0.4093686354378818	0.5826446280991736
2640.655517578125	0.02791234668279653	-9.917641674572561	-2.263744889426551	0.3587047118933778	0.003641210253730994	0.3614128686332386	0.1252566735112936	-0.405295315682281	0.5723140495867769
2660.186767578125	-0.1946459144459841	-9.386268845670868	-2.1784695184672	-1.079802055501686	0.3682362999760378	-0.7154466237444929	0.1190965092402464	-0.4215885947046843	0.5888429752066116
2679.718017578125	-0.5186362270620588	-9.754359046750066	-2.045459097931376	-0.36239263171493	0.3755187204834998	0.007379113521984299	0.1273100616016427	-0.4215885947046843	0.5888429752066116
2699.249267578125	-0.3042985203159835	-9.995056521568834	-2.190049322800551	-0.003650733907402479	0.007337975153878983	0.3650733907402479	0.1129363449691992	-0.4358452138492871	0.5826446280991736
2718.780517578125	-0.1683754705092344	-9.857774735464652	-2.054150983025523	-0.003725105735701979	0.7509818863205826	0.3725105735701979	0.1252566735112936	-0.4175152749490835	0.5867768595041323
2738.311767578125	-0.2784152878337531	-9.576687609732913	-2.0528237388749	0.3694709840448365	1.840737062708853	-0.7152143465126299	0.1232032854209446	-0.4093686354378818	0.5888429752066116
2757.843017578125	-0.4207576884343646	-9.782711652593779	-2.30807705218785	-0.3621323303158818	-2.227234968599963	-0.01865102638284081	0.1252566735112936	-0.4297352342158859	0.5888429752066116
2777.374267578125	-0.1359735213609024	-9.577298105240024	-2.134215954636588	0.3553514652991733	-2.963596459259204	0.6967375280536863	0.1457905544147844	-0.4134419551934826	0.5847107438016529
2796.905517578125	0.1728839998075772	-9.570767506728883	-2.09613332691924	0.0001487436565990006	-1.487287822333407	-0.01487436565990006	0.1211498973305955	-0.4521384928716904	0.5785123966942149
2816.436767578125	-0.2654929927344621	-9.845842734317475	-2.150233575517932	-0.7175209815292047	1.108183446242593	-0.7116699630215522	0.135523613963039	-0.4195519348268839	0.5681818181818182
2835.968017578125	-0.3103858629176818	-9.653691429010051	-2.320471236077277	-0.3551655357284246	1.104486681342445	-0.7153304851285613	0.1416837782340863	-0.4236252545824847	0.5888429752066116
2855.499267578125	-0.2887099076449421	-9.586682870138532	-2.04300307850193	-0.362243888058331	-1.111769101849907	-0.007495252137915762	0.1334702258726899	-0.4175152749490835	0.5702479338842975
2875.030517578125	-0.5912537528360677	-9.664505380083662	-1.958208238797746	-0.3622067021441813	-1.483591057433259	-0.01121384355289078	0.1211498973305955	-0.4134419551934826	0.5867768595041323
2894.561767578125	-0.4177325496573061	-9.55506685772253	-2.075581678089799	0.0001115577424492505	-1.115465866750055	-0.01115577424492505	0.1334702258726899	-0.4256619144602851	0.5599173553719008
2914.093017578125	-0.2481631114451347	-9.756906072700593	-2.061229618495511	-0.0001487436565990006	1.487287822333407	0.01487436565990006	0.1252566735112936	-0.4297352342158859	0.5702479338842975
2933.624267578125	-0.5160684867445138	-9.993528810714061	-2.131050441849541	1.083415603494938	-0.003752319546564981	0.35409182441922	0.108829568788501	-0.4439918533604887	0.5867768595041323
2953.155517578125	-0.3051833497497321	-9.615342616419081	-2.160555008342264	0.3623554458007803	-0.003696764900147988	-0.003660522107009284	0.135523613963039	-0.3991853360488798	0.5826446280991736
2972.686767578125	-0.1456987589518005	-9.967109265394416	-2.143374701606652	0.003687919821552229	-0.3791599307372308	-0.3687919821552229	0.1232032854209446	-0.4256619144602851	0.5785123966942149
2992.218017578125	-0.3569624326027314	-9.812084519874883	-2.434585579908957	-1.076076949765984	-0.3827455863445448	-1.087957197314691	0.106776180698152	-0.4317718940936863	0.5929752066115702
3011.749267578125	-0.2341123039396991	-9.51569631160717	-2.196256535343363	0.3587418978075275	-0.3681807453296208	0.3576942772182636	0.1396303901437372	-0.4297352342158859	0.5929752066115702
3031.280517578125	-0.3572116359013628	-9.505498428941442	-2.092945469954573	0.3550539779859753	0.01097918540760998	0.7264862593734864	0.1211498973305955	-0.4093686354378818	0.5826446280991736
3050.811767578125	-0.2346935154304948	-9.619217569989193	-1.843549485650175	0.36239263171493	-0.3755187204834998	-0.007379113521984299	0.1314168377823409	-0.4215885947046843	0.5826446280991736
3070.343017578125	-0.2113251858575551	-9.558328476760611	-1.955827138081497	-0.3513288722502733	-0.7619610717281925	-1.098996832943684	0.135523613963039	-0.4297352342158859	0.5723140495867769
3089.874267578125	-0.1971852645143178	-9.587089902192963	-2.093824516189408	-3.718591414975016e-05	0.3718219555833518	0.003718591414975016	0.1416837782340863	-0.4195519348268839	0.5867768595041323
3109.405517578125	-0.3176569211878796	-9.856042404517414	-2.078102627070681	-0.003539176164953228	-1.108127891596177	0.3539176164953228	0.135523613963039	-0.4256619144602851	0.5826446280991736
3128.936767578125	-0.4525871008902709	-9.603003162621189	-2.24709663699097	-0.3587418978075275	0.3681807453296208	-0.3576942772182636	0.1314168377823409	-0.4195519348268839	0.5909090909090909
3148.468017578125	-0.1294343006259262	-9.588517090535717	-2.018856645802462	-0.003650733907402479	0.007337975153878983	0.3650733907402479	0.1232032854209446	-0.4460285132382892	0.5743801652892562
3167.999267578125	-0.2775146860393316	-9.756396415152718	-2.082843798688949	0.36239263171493	-0.3755187204834998	-0.007379113521984299	0.1273100616016427	-0.4358452138492871	0.5619834710743802
3187.530517578125	-0.2503018435523773	-9.944264262748602	-2.323271881587425	0.3622810739724808	0.7399471462665556	0.003776660722940747	0.1047227926078029	-0.4175152749490835	0.5681818181818182
3207.061767578125	-0.1994083787511603	-9.577808709129542	-2.019720708294658	0.358518782322629	1.86275098817049	0.3800058257081136	0.1293634496919918	-0.4175152749490835	0.5640495867768596
3226.593017578125	-0.302179503659582	-9.724371372849932	-2.260683211347267	-0.3587047118933778	-0.003641210253730994	-0.3614128686332386	0.1416837782340863	-0.4338085539714867	0.5847107438016529
3246.124267578125	-0.5029790046220904	-9.742629878161141	-2.234033179263657	-0.3660061797081828	0.01103474005402697	0.3687339128472572	0.1170431211498973	-0.415478615071283	0.5785123966942149
3265.655517578125	-0.2084065105150386	-9.680718105066529	-1.719782982832048	-0.365820250137434	-1.848075037862732	0.3501409557723821	0.1375770020533881	-0.4073319755600814	0.5929752066115702
3285.186767578125	-0.1375815135315026	-9.76781802270852	-2.080616215616582	-0.003687919821552229	0.3791599307372308	0.3687919821552229	0.1273100616016427	-0.4195519348268839	0.5785123966942149
3304.718017578125	-0.07183206221249946	-9.41655903344871	-2.272264592916685	0	0	0	0.1273100616016427	-0.4439918533604887	0.5826446280991736
3324.249267578125	-0.1857495144084458	-9.706725676325396	-2.141682853051807	0.003650733907402479	-0.007337975153878983	-0.3650733907402479	0.1293634496919918	-0.4093686354378818	0.5743801652892562
3343.780517578125	-0.2830925813912958	-9.754866601316518	-2.23024728695681	-0.003539176164953228	-1.108127891596177	0.3539176164953228	0.1211498973305955	-0.4358452138492871	0.5888429752066116
3363.311767578125	-0.2770344176568424	-9.866241128375712	-2.098852744771922	-0.7281756959382143	-1.844378272962584	0.3538014778793914	0.1314168377823409	-0.4256619144602851	0.5764462809917356
3382.843017578125	0.004185195904548822	-9.52864678665753	-2.139506530151627	-1.449310225460672	-1.100678807149464	0.003486314183112089	0.1334702258726899	-0.4236252545824847	0.5723140495867769
3402.374267578125	-0.1151745093415749	-9.697239758020444	-2.160849688614169	0.3622067021441813	1.483591057433259	0.01121384355289078	0.1293634496919918	-0.405295315682281	0.5805785123966942
3421.905517578125	-0.235661149757776	-9.956197105088348	-2.144628341407468	0.362243888058331	1.111769101849907	0.007495252137915762	0.1211498973305955	-0.4276985743380855	0.5805785123966942
3441.436767578125	-0.3575026359557775	-9.662259185625702	-2.416578801474085	-0.003613547993252729	-0.3644839804294728	0.3613547993252729	0.1149897330595483	-0.4215885947046843	0.5640495867768596
3460.968017578125	-0.1794705376245721	-9.684695473831946	-2.350982079180931	-0.7208370422092596	-2.230876178853694	-0.3800638950160794	0.1437371663244353	-0.4338085539714867	0.5764462809917356
3480.499267578125	-0.3138407985230762	-9.664808524855795	-2.205306715897462	0.003576362079102979	0.7363059360128246	-0.3576362079102978	0.1293634496919918	-0.4215885947046843	0.5826446280991736
3500.030517578125	-0.301122755494499	-9.657363024276556	-1.962574816850033	-0.00383666347815123	1.866447753070638	0.3836663478151229	0.1334702258726899	-0.4276985743380855	0.5929752066115702
3519.561767578125	-0.3158541403629694	-9.795459505384027	-2.138195321234355	-0.0001487436565990006	1.487287822333407	0.01487436565990006	0.1211498973305955	-0.4114052953156823	0.5702479338842975
3539.093017578125	-0.3737103137832294	-9.587499668123245	-1.876322873892353	-0.724487776116662	-2.223538203699815	-0.01499050427583152	0.1416837782340863	-0.4134419551934826	0.5847107438016529
3558.624267578125	-0.2586083573007498	-9.876950035527242	-2.046388089975009	-0.3587790837216773	0.7400027009129726	-0.3539756858032885	0.1293634496919918	-0.4093686354378818	0.5826446280991736
3578.155517578125	-0.5514774364551305	-9.671644371120491	-2.284085451495653	0.3660061797081828	-0.01103474005402697	-0.3687339128472572	0.1211498973305955	-0.4256619144602851	0.5681818181818182
3597.686767578125	-0.1960196870605919	-9.87337969881626	-2.466010431313604	-0.3623182598866305	-0.3681251906832038	-5.806930796573191e-05	0.1252566735112936	-0.4358452138492871	0.5867768595041323
3617.218017578125	-0.03517630739069165	-9.728040339389658	-2.160789753643612	-0.3659318078798833	-0.7326091711126765	0.3612967300173071	0.135523613963039	-0.4236252545824847	0.5785123966942149
3636.749267578125	-0.1115247850818704	-9.816059680509804	-2.282507163937654	-0.358667525979228	-0.3754631658370828	-0.3651314600482136	0.1211498973305955	-0.4297352342158859	0.5805785123966942
3656.280517578125	-0.2259564162357527	-9.693059241249561	-2.468119458808246	0.3513660581644231	0.3901391161448408	1.095278241528709	0.1190965092402464	-0.4195519348268839	0.5888429752066116
3675.811767578125	0.04739121211380388	-9.57801017474987	-2.246373737126796	0.3549796061576758	0.7546230965743135	0.7339234422034364	0.1252566735112936	-0.4215885947046843	0.5764462809917356
3695.343017578125	-0.2850909394885497	-9.895512737101297	-2.163635350381678	0.003501990250803478	1.479949847179528	-0.3501990250803478	0.1232032854209446	-0.4236252545824847	0.5805785123966942
3714.874267578125	-0.4487063115467087	-9.525081707400103	-2.043122948443044	-0.007524583299703459	2.245607683807869	0.7524583299703458	0.1232032854209446	-0.4175152749490835	0.5640495867768596
3734.405517578125	-0.4756707393530651	-9.853800205724157	-2.144308688231164	3.718591414975016e-05	-0.3718219555833518	-0.003718591414975016	0.1416837782340863	-0.405295315682281	0.5929752066115702
3753.936767578125	-0.1952184511384096	-9.846453965868085	-2.159384962053014	-0.365820250137434	-1.848075037862732	0.3501409557723821	0.1273100616016427	-0.4215885947046843	0.5681818181818182
3773.468017578125	-0.2224612611106424	-9.638595807759106	-1.917957962978589	0.3548680484152266	1.870088963324369	0.7450792164483615	0.1416837782340863	-0.4215885947046843	0.5599173553719008
3792.999267578125	-0.2387840771710063	-9.557206851618627	-2.040530760966456	0.7209114140375591	1.48723226768699	0.3726267121861294	0.1314168377823409	-0.4358452138492871	0.5805785123966942
3812.530517578125	-0.5108399491814539	-9.691838250235339	-2.305335027284869	0.36239263171493	-0.3755187204834998	-0.007379113521984299	0.1396303901437372	-0.4297352342158859	0.5681818181818182
3832.061767578125	-0.3642776534828133	-9.77444977462611	-2.190744883906225	7.437182829950031e-05	-0.7436439111667036	-0.007437182829950031	0.1252566735112936	-0.4093686354378818	0.5785123966942149
3851.593017578125	-0.412010337205185	-9.793216675696343	-2.2663220931605	0.003687919821552229	-0.3791599307372308	-0.3687919821552229	0.1334702258726899	-0.4236252545824847	0.5867768595041323
3871.124267578125	-0.3618739457162663	-9.693672575781594	-2.270868476124458	0.3550539779859753	0.01097918540760998	0.7264862593734864	0.1273100616016427	-0.4134419551934826	0.5702479338842975
3890.655517578125	-0.3393723073623015	-9.756397046047145	-2.020923087923288	-0.724487776116662	-2.223538203699815	-0.01499050427583152	0.1334702258726899	-0.4175152749490835	0.5743801652892562
3910.186767578125	-0.2265368391085147	-9.586580244645086	-2.115438696382846	-0.7247108916015605	0.007393529800295976	0.007321044214018567	0.1211498973305955	-0.4276985743380855	0.5805785123966942
3929.718017578125	-0.3031550241671996	-9.494686791147394	-2.228165861093345	-0.3587047118933778	-0.003641210253730994	-0.3614128686332386	0.1478439425051335	-0.4236252545824847	0.5826446280991736
3949.249267578125	-0.1364837572286701	-9.447463081503937	-2.117208092377665	0.7245993338591113	1.108072336949759	0.003834730030906479	0.135523613963039	-0.4236252545824847	0.5826446280991736
3968.780517578125	-0.4545105402743287	-9.7936250746887	-2.182981990855711	0.7245993338591113	1.108072336949759	0.003834730030906479	0.1211498973305955	-0.415478615071283	0.5723140495867769
3988.311767578125	-0.4626561759438378	-9.552925496888509	-2.244794135205407	0.3622810739724808	0.7399471462665556	0.003776660722940747	0.1252566735112936	-0.4276985743380855	0.5805785123966942
4007.843017578125	-0.5221503090199765	-9.515495266583127	-1.928323032667451	-0.7209857858658586	-0.7435883565202867	-0.3651895293561793	0.1375770020533881	-0.4114052953156823	0.5805785123966942
4027.374267578125	-0.2650411146011841	-9.515696627054384	-2.165296179960532	-0.369545355873136	-1.097093151542149	0.7226515293425799	0.1170431211498973	-0.4276985743380855	0.5640495867768596
4046.905517578125	-0.2134891537418744	-9.799028159709874	-1.883694875270857	-0.7209857858658586	-0.7435883565202867	-0.3651895293561793	0.1416837782340863	-0.4256619144602851	0.5661157024793388
4066.436767578125	-0.2033443713570776	-9.689081346738789	-1.888520954764081	-0.3622810739724808	-0.7399471462665556	-0.003776660722940747	0.1273100616016427	-0.4297352342158859	0.5867768595041323
4085.968017578125	-0.05746265302147172	-9.66857959114361	-2.08457823261761	0.003613547993252729	0.3644839804294728	-0.3613547993252729	0.1252566735112936	-0.4195519348268839	0.5764462809917356
4105.499267578125	-0.4119141258050805	-9.506518900676976	-1.936195806497319	0.3585931541509285	1.119107077003786	0.3725686428781636	0.1478439425051335	-0.4093686354378818	0.5764462809917356
4125.030517578125	-0.3618889294589056	-9.683677420525047	-2.270369018036483	-0.003650733907402479	0.007337975153878983	0.3650733907402479	0.1273100616016427	-0.4093686354378818	0.5826446280991736
4144.561767578125	-0.2356603611397423	-9.74619685010185	-2.144654628675256	0.3587047118933778	0.003641210253730994	0.3614128686332386	0.1108829568788501	-0.4317718940936863	0.5764462809917356
4164.093017578125	-0.338761917004261	-9.88286635316471	-2.374602766524637	-0.7247480775157102	0.3792154853836477	0.01103963562899358	0.135523613963039	-0.4175152749490835	0.5764462809917356
4183.624267578125	-0.09999361219392752	-9.85899793460937	-2.000212926869084	-0.003687919821552229	0.3791599307372308	0.3687919821552229	0.1273100616016427	-0.4317718940936863	0.5929752066115702
4203.155517578125	-0.08768565054284524	-9.718351693675521	-2.077144981905159	0.3585931541509285	1.119107077003786	0.3725686428781636	0.1170431211498973	-0.4073319755600814	0.5723140495867769
4222.686767578125	-0.1383930014881223	-9.858080403814492	-2.053566617062592	-7.437182829950031e-05	0.7436439111667036	0.007437182829950031	0.1190965092402464	-0.4358452138492871	0.5888429752066116
4242.218017578125	-0.1548956224601571	-9.656749584595451	-2.170145917994765	0.003501990250803478	1.479949847179528	-0.3501990250803478	0.135523613963039	-0.4358452138492871	0.5723140495867769
4261.749267578125	-0.3593298639397307	-9.566183322673847	-2.022337868675645	0.3803116280245947	2.934189003997272	-1.799278744488448	0.135523613963039	-0.4134419551934826	0.5847107438016529
4281.280517578125	-0.6332784192309241	-9.701426688884666	-2.224052692302536	0.3550911639001251	-0.3608427701757418	0.7227676679585114	0.1252566735112936	-0.4236252545824847	0.5867768595041323
4300.811767578125	-0.2879291757916346	-9.686430433505961	-2.069027473612183	-0.3620207725734325	-3.342700835350018	-0.02980680062776585	0.135523613963039	-0.4073319755600814	0.5929752066115702
4320.343017578125	-0.2293908477722724	-9.577503040779701	-2.020305074257589	-0.3585931541509285	-1.119107077003786	-0.3725686428781636	0.1314168377823409	-0.4215885947046843	0.5991735537190083
4339.874267578125	-0.06861292339916457	-9.528851511899063	-2.046235886694515	0.003539176164953228	1.108127891596177	-0.3539176164953228	0.1293634496919918	-0.4215885947046843	0.5702479338842975
4359.405517578125	-0.3220029951712918	-9.834114301772052	-2.266566827623607	0.3623182598866305	0.3681251906832038	5.806930796573191e-05	0.1129363449691992	-0.4256619144602851	0.5847107438016529
4378.936767578125	-0.3446639343680528	-9.524774672112338	-2.177868854398241	-0.3623182598866305	-0.3681251906832038	-5.806930796573191e-05	0.1252566735112936	-0.4114052953156823	0.5723140495867769
4398.468017578125	-0.23570531236766	-9.71621138433221	-2.143156254411332	-0.717186308301857	-2.238214154007573	-0.7451372857563272	0.1314168377823409	-0.4215885947046843	0.5743801652892562
4417.999267578125	-0.2156270972310833	-9.776386094771382	-2.145763425630559	3.718591414975016e-05	-0.3718219555833518	-0.003718591414975016	0.1252566735112936	-0.4297352342158859	0.5723140495867769
4437.530517578125	-0.2609505528606725	-9.577707345424951	-1.96831490464425	0.7172606801301565	1.494570242840869	0.7377001029263772	0.1129363449691992	-0.4236252545824847	0.5847107438016529
4457.061767578125	-0.3586997581308491	-9.775979588462308	-2.043341395638364	0.3550167920718256	0.3828011409909618	0.7302048507884614	0.1211498973305955	-0.415478615071283	0.5826446280991736
4476.593017578125	-0.3765548590305834	-9.725086071086556	-2.114838032313887	-0.3550167920718256	-0.3828011409909618	-0.7302048507884614	0.1252566735112936	-0.4114052953156823	0.5867768595041323
4496.124267578125	-0.3263885000563863	-9.645532281684899	-2.120383331453794	-3.718591414975016e-05	0.3718219555833518	0.003718591414975016	0.1252566735112936	-0.4317718940936863	0.5764462809917356
4515.655517578125	-0.2900623875726416	-9.737120171981822	-1.997920414245281	-0.3622810739724808	-0.7399471462665556	-0.003776660722940747	0.1457905544147844	-0.4276985743380855	0.5723140495867769
4535.186767578125	-0.2400009147969191	-9.587600295784338	-1.999969506769366	-0.3622810739724808	-0.7399471462665556	-0.003776660722940747	0.1293634496919918	-0.4460285132382892	0.5805785123966942
4554.718017578125	-0.1735629999345447	-9.90611870331217	-2.21456666884851	-0.3513288722502733	-0.7619610717281925	-1.098996832943684	0.1190965092402464	-0.4195519348268839	0.5888429752066116
4574.249267578125	-0.2133432594056502	-9.615647653874493	-2.221891353144995	0.003725105735701979	-0.7509818863205826	-0.3725105735701979	0.1293634496919918	-0.4032586558044806	0.5785123966942149
4593.780517578125	-0.1271212839332483	-9.657769215138417	-2.095957202225059	0.003539176164953228	1.108127891596177	-0.3539176164953228	0.1334702258726899	-0.4236252545824847	0.5743801652892562
4613.311767578125	-0.1535131750471791	-9.526302593265255	-2.216227498427364	0.003650733907402479	-0.007337975153878983	-0.3650733907402479	0.1293634496919918	-0.4256619144602851	0.5805785123966942
4632.843017578125	-0.4882026685257023	-9.63451886282331	-2.059911049143258	-0.7136099462227541	-1.501908217994748	-1.102773493666625	0.1273100616016427	-0.415478615071283	0.5867768595041323
4652.374267578125	-0.31122731835958	-9.723963499602931	-2.292422721347338	-0.01095220172220744	0.02201392546163695	1.095220172220744	0.1293634496919918	-0.4358452138492871	0.5723140495867769
4671.905517578125	-0.2459699646935707	-9.746196955250921	-2.134334510214312	0.3551283498142748	-0.7326647257590937	0.7190490765435364	0.1375770020533881	-0.4236252545824847	0.5826446280991736
4691.436767578125	-0.127106300190609	-9.667764370394965	-2.096456660313034	-0.007152724158205957	-1.472611872025649	0.7152724158205956	0.1252566735112936	-0.4073319755600814	0.5826446280991736
4710.968017578125	-0.2016922165765934	-9.738547150026433	-1.943592780780222	-0.3514032440785728	-0.01831716056148896	-1.091559650113734	0.135523613963039	-0.405295315682281	0.5888429752066116
4730.499267578125	-0.2735329535874629	-9.465108988326612	-2.215568213751238	1.438283651910165	1.866336643777804	1.099171040867581	0.1314168377823409	-0.405295315682281	0.5723140495867769
4750.030517578125	-0.3592407501019289	-9.836154509199625	-2.025308329935704	0.3550911639001251	-0.3608427701757418	0.7227676679585114	0.1293634496919918	-0.4256619144602851	0.5826446280991736
4769.561767578125	-0.5104803393581122	-9.931721976392458	-2.317322021396258	-0.003725105735701979	0.7509818863205826	0.3725105735701979	0.1149897330595483	-0.4012219959266802	0.5681818181818182
4789.093017578125	-0.5736738796300752	-9.672154554413725	-2.210870678997498	-0.7209857858658586	-0.7435883565202867	-0.3651895293561793	0.1211498973305955	-0.4236252545824847	0.5805785123966942
4808.624267578125	-0.2311037261413472	-9.698056871452369	-1.963209128621761	-0.01087782989390794	-0.7216299857050666	1.087782989390794	0.1416837782340863	-0.4073319755600814	0.5805785123966942
4828.155517578125	-0.09258217991374099	-9.609934904838775	-1.913927336208635	0.3622810739724808	0.7399471462665556	0.003776660722940747	0.1129363449691992	-0.4032586558044806	0.5661157024793388
4847.686767578125	-0.3737000617487921	-9.524163019965444	-2.209997941706932	1.094256247474696	1.089699621741854	-0.7299725735565985	0.1334702258726899	-0.4338085539714867	0.5785123966942149
4867.218017578125	-0.3937940492460418	-9.663993409256221	-2.206865025131942	0.7282872536806635	0.7289124062125286	-0.3649572521243164	0.1334702258726899	-0.4215885947046843	0.5785123966942149
4886.749267578125	-0.2124418689931951	-9.5853562043078	-2.251937700226833	0.3660433656223325	-0.3828566956373787	-0.3724525042622321	0.1314168377823409	-0.4276985743380855	0.5805785123966942
4906.280517578125	-0.1772923746156473	-9.663991201125727	-2.423587512811757	-0.3657086923949848	-2.963540904612787	0.338985181527457	0.1047227926078029	-0.4256619144602851	0.5640495867768596
4925.811767578125	-0.05315206684957349	-9.807185834948029	-2.228264438347551	-0.7208370422092596	-2.230876178853694	-0.3800638950160794	0.1314168377823409	-0.4317718940936863	0.5743801652892562
4945.343017578125	-0.3297732486567864	-9.633293350399027	-2.340891711440455	-0.7175953533575042	1.851827357409297	-0.7042327801916021	0.1211498973305955	-0.4256619144602851	0.5805785123966942
4964.874267578125	-0.4243175102382337	-9.723862661643697	-2.189416325392212	-0.7283988114231127	0.3865534605375267	0.3761130263692414	0.1457905544147844	-0.4134419551934826	0.5723140495867769
4984.405517578125	-0.4483916529512847	-9.734979967787583	-2.05361156829051	-7.437182829950031e-05	0.7436439111667036	0.007437182829950031	0.1314168377823409	-0.4175152749490835	0.5888429752066116
5003.936767578125	-0.2758325637735689	-9.825852528953455	-2.138914540881039	-0.7172978660443063	-1.122748287257517	-0.7339815115114022	0.1273100616016427	-0.4195519348268839	0.5764462809917356
5023.468017578125	-0.3225692229194482	-9.947630715410622	-1.914359236018394	-1.442269059044915	1.487398931626241	-0.7006303273925585	0.1170431211498973	-0.4297352342158859	0.5909090909090909
5042.999267578125	-0.3310153220597757	-9.717028287465995	-1.966155931340811	-0.3623182598866305	-0.3681251906832038	-5.806930796573191e-05	0.1252566735112936	-0.4134419551934826	0.5785123966942149
5062.530517578125	-0.2773790437375448	-9.636352557475139	-2.087365208748508	1.083638718979837	-2.234684053046676	0.3317802759293699	0.1108829568788501	-0.4195519348268839	0.5888429752066116
5082.061767578125	-0.1595121924291092	-9.664908942218746	-2.349593585696361	-0.003687919821552229	0.3791599307372308	0.3687919821552229	0.1293634496919918	-0.4093686354378818	0.5826446280991736
5101.593017578125	-0.1690812836493458	-9.808002948379956	-2.030623878355143	-0.3550539779859753	-0.01097918540760998	-0.7264862593734864	0.1232032854209446	-0.4236252545824847	0.5702479338842975
5121.124267578125	-0.4235352011488588	-9.403609715038131	-2.215493295038041	-1.44562230563912	-1.479838737886694	-0.3653056679721108	0.1211498973305955	-0.4276985743380855	0.5764462809917356
5140.655517578125	-0.1254990966380425	-9.687244707912967	-2.150030112065251	7.437182829950031e-05	-0.7436439111667036	-0.007437182829950031	0.1396303901437372	-0.4134419551934826	0.5619834710743802
5160.186767578125	-0.3618542302654252	-9.776999534452488	-1.938192324485827	-0.7245993338591113	-1.108072336949759	-0.003834730030906479	0.1416837782340863	-0.4215885947046843	0.5557851239669421
5179.718017578125	-0.4698665106254452	-9.58525683843556	-2.004449645818497	-0.003650733907402479	0.007337975153878983	0.3650733907402479	0.135523613963039	-0.4012219959266802	0.5764462809917356
5199.249267578125	0.113940322118922	-9.619825962514881	-2.131344070630734	3.718591414975016e-05	-0.3718219555833518	-0.003718591414975016	0.1170431211498973	-0.4236252545824847	0.5847107438016529
5218.780517578125	-0.2488089896146891	-9.747114906642082	-2.03970034617703	0.7210229717800084	0.3717664009369348	0.3614709379412043	0.1396303901437372	-0.4073319755600814	0.5723140495867769
5238.311767578125	-0.2013152571565116	-9.358425266480605	-1.95615809478295	-0.3623554458007803	0.003696764900147988	0.003660522107009284	0.1375770020533881	-0.4297352342158859	0.5619834710743802
5257.843017578125	-0.1480709219970017	-9.647876264779031	-2.064302600099944	-0.717335051958456	-0.7509263316741656	-0.7302629200964272	0.1108829568788501	-0.4439918533604887	0.5764462809917356
5277.374267578125	-0.2085476731430609	-9.937430414316257	-2.048410895231306	-3.718591414975016e-05	0.3718219555833518	0.003718591414975016	0.1314168377823409	-0.4175152749490835	0.5764462809917356
5296.905517578125	-0.3923216993772284	-9.593517349465305	-2.255943354092389	-0.3551655357284246	1.104486681342445	-0.7153304851285613	0.1211498973305955	-0.4378818737270875	0.5702479338842975
5316.436767578125	-0.5007708741278871	-9.741915915968017	-2.307637529070432	-0.3623182598866305	-0.3681251906832038	-5.806930796573191e-05	0.135523613963039	-0.4256619144602851	0.5764462809917356
5335.968017578125	-0.4228246563005455	-9.526713305537177	-1.905844789981817	-0.7098476545729024	-2.624712059898683	-1.479002658651798	0.1293634496919918	-0.4256619144602851	0.5619834710743802
5355.499267578125	-0.1204961038326048	-9.445627073572542	-2.316796538913174	-0.7281756959382143	-1.844378272962584	0.3538014778793914	0.1129363449691992	-0.4134419551934826	0.5888429752066116
5375.030517578125	-0.2785509301355398	-9.696731467410492	-2.04830232881534	-0.3587790837216773	0.7400027009129726	-0.3539756858032885	0.1293634496919918	-0.4195519348268839	0.5805785123966942
5394.561767578125	-0.3028506176062131	-9.767921699692677	-1.904979413126232	0.358667525979228	0.3754631658370828	0.3651314600482136	0.1396303901437372	-0.4297352342158859	0.5888429752066116
5414.093017578125	-0.2589868939568989	-9.343739095712731	-2.367103534770038	-0.3623554458007803	0.003696764900147988	0.003660522107009284	0.1190965092402464	-0.4297352342158859	0.5785123966942149
5433.624267578125	-0.3053781384040422	-9.485405598083975	-2.154062053198595	0.36239263171493	-0.3755187204834998	-0.007379113521984299	0.1437371663244353	-0.4215885947046843	0.5847107438016529
5453.155517578125	-0.377395525854448	-9.585357886692938	-2.086815804851736	0.00383666347815123	-1.866447753070638	-0.3836663478151229	0.1232032854209446	-0.4399185336048879	0.5826446280991736
5472.686767578125	-0.318256270893449	-9.456236194255549	-2.058124303551699	0.3659318078798833	0.7326091711126765	-0.3612967300173071	0.1252566735112936	-0.4195519348268839	0.5888429752066116
5492.218017578125	-0.2547165273047165	-9.525691677161859	-2.17611575650945	0.3584815964084793	2.234572943753842	0.3837244171230887	0.1334702258726899	-0.4317718940936863	0.5681818181818182
5511.749267578125	-0.3554553835404376	-9.834930574011409	-2.151487215318748	0	0	0	0.1252566735112936	-0.4317718940936863	0.5743801652892562
5531.280517578125	-0.4066729703534823	-9.844824260414292	-2.110900988217258	0.3623554458007803	-0.003696764900147988	-0.003660522107009284	0.1293634496919918	-0.4093686354378818	0.5702479338842975
5550.811767578125	-0.2620782766487835	-9.87807197611644	-1.930724111707219	-0.003576362079102979	-0.7363059360128246	0.3576362079102978	0.1293634496919918	-0.415478615071283	0.5764462809917356
5570.343017578125	-0.354989310282554	-9.724779876991361	-2.167022990581535	-0.7174094237867555	-0.007282420507461989	-0.7228257372664771	0.1334702258726899	-0.4215885947046843	0.5743801652892562
5589.874267578125	-0.4341910080194569	-9.593721759259624	-2.193633066018107	-0.3623182598866305	-0.3681251906832038	-5.806930796573191e-05	0.1252566735112936	-0.4338085539714867	0.5743801652892562
5609.405517578125	-0.3616736367357207	-9.686941142544551	-1.94421210880931	-0.7208742281234094	-1.859054223270342	-0.3763453036011044	0.1334702258726899	-0.4134419551934826	0.5909090909090909
5628.936767578125	-0.21669330881257	-9.696730836516066	-2.110223039581002	0.369694099529735	-0.3901946707912577	-0.73752589500248	0.1232032854209446	-0.4399185336048879	0.5847107438016529
5648.468017578125	-0.3797897702045913	-9.812798692366149	-2.340340993180294	-0.003762291649851729	1.122803841903934	0.3762291649851729	0.1457905544147844	-0.4236252545824847	0.5764462809917356
5667.999267578125	-0.3920969432376398	-9.743444678313503	-2.263435225412007	-0.3587790837216773	0.7400027009129726	-0.3539756858032885	0.1416837782340863	-0.4195519348268839	0.5847107438016529
5687.530517578125	-0.3045524553228169	-9.615138627221045	-2.181584822572772	0.003613547993252729	0.3644839804294728	-0.3613547993252729	0.1293634496919918	-0.4256619144602851	0.5743801652892562
5707.061767578125	-0.1187642986307225	-9.618400456557268	-2.041190045642583	-0.36239263171493	0.3755187204834998	0.007379113521984299	0.1170431211498973	-0.4256619144602851	0.5867768595041323
5726.593017578125	-0.2077661526717196	-9.82717772269719	-2.074461577609346	0.003576362079102979	0.7363059360128246	-0.3576362079102978	0.1252566735112936	-0.4358452138492871	0.5764462809917356
5746.124267578125	-0.2736536121466104	-9.595148001260739	-2.211546261779653	-0.3550911639001251	0.3608427701757418	-0.7227676679585114	0.1232032854209446	-0.4236252545824847	0.597107438016529
5765.655517578125	-0.2892958508439397	-9.616872325106208	-2.023471638535347	0.003613547993252729	0.3644839804294728	-0.3613547993252729	0.1252566735112936	-0.4195519348268839	0.5764462809917356
5785.186767578125	-0.1473603771486885	-9.770979855278076	-1.754654095043719	-0.3623554458007803	0.003696764900147988	0.003660522107009284	0.1273100616016427	-0.4073319755600814	0.5785123966942149
5804.718017578125	-0.2734880023595452	-9.495094454096252	-2.217066588015161	0.003650733907402479	-0.007337975153878983	-0.3650733907402479	0.1252566735112936	-0.4297352342158859	0.5681818181818182
5824.249267578125	-0.3796990791307222	-9.662769368918934	-2.343364028975929	3.718591414975016e-05	-0.3718219555833518	-0.003718591414975016	0.1273100616016427	-0.4317718940936863	0.5909090909090909
5843.780517578125	-0.3623691978413948	-9.573832707302051	-2.25436007195351	0.003613547993252729	0.3644839804294728	-0.3613547993252729	0.1252566735112936	-0.4378818737270875	0.5929752066115702
5863.311767578125	-0.4409565621300889	-9.852575955088728	-2.301447928997038	-1.086954779659892	-1.104375572049612	-0.000174207923897194	0.1170431211498973	-0.4276985743380855	0.5785123966942149
5882.843017578125	-0.1353284318093816	-9.797089526285033	-2.155718939687281	0.0002231154848985009	-2.230931733500111	-0.02231154848985009	0.1416837782340863	-0.4134419551934826	0.5785123966942149
5902.374267578125	-0.03389953479422197	-9.737627516250132	-2.203348840192601	-0.7175209815292047	1.108183446242593	-0.7116699630215522	0.1273100616016427	-0.4134419551934826	0.5785123966942149
5921.905517578125	-0.2930409978857151	-9.574749922649715	-2.231966737142832	-0.0001115577424492505	1.115465866750055	0.01115577424492505	0.1273100616016427	-0.4114052953156823	0.5681818181818182
5941.436767578125	-0.6648231405766849	-9.711626148786461	-2.172561980777172	0.3587790837216773	-0.7400027009129726	0.3539756858032885	0.1375770020533881	-0.4297352342158859	0.5661157024793388
5960.968017578125	-0.1473501251142511	-9.707643207120274	-2.088329162858299	-0.003725105735701979	0.7509818863205826	0.3725105735701979	0.1416837782340863	-0.405295315682281	0.5785123966942149
5980.499267578125	-0.2454273954864236	-9.26602152454061	-2.152420150452548	0.3588534555499768	-1.483646612079676	0.3465385029733385	0.1211498973305955	-0.4134419551934826	0.5826446280991736
6000.06103515625	-0.3492008539156069	-9.656241609432714	-2.026638202813106	-3.718591414975016e-05	0.3718219555833518	0.003718591414975016	0.1232032854209446	-0.4378818737270875	0.5702479338842975
6019.561767578125	-0.2892556313242238	-9.573525987461499	-2.358145622525875	3.718591414975016e-05	-0.3718219555833518	-0.003718591414975016	0.108829568788501	-0.4134419551934826	0.5888429752066116
6039.093017578125	-0.3469532925197214	-9.822181564581378	-2.434890249342621	0.007301467814804958	-0.01467595030775797	-0.7301467814804957	0.1170431211498973	-0.4093686354378818	0.5805785123966942
6058.624267578125	-0.3975494483222546	-9.68520765495753	-2.081685055924848	-0.717186308301857	-2.238214154007573	-0.7451372857563272	0.1252566735112936	-0.4256619144602851	0.5743801652892562
6078.155517578125	-0.2634000004731709	-9.838499333486325	-1.886666650894306	-0.3622067021441813	-1.483591057433259	-0.01121384355289078	0.1396303901437372	-0.4276985743380855	0.5991735537190083
6097.686767578125	-0.2128480072805218	-9.735487522354036	-2.238399757315944	0	0	0	0.1396303901437372	-0.4073319755600814	0.5743801652892562
6117.218017578125	-0.5050065415865892	-9.653285448446331	-2.166448613780364	-0.3587790837216773	0.7400027009129726	-0.3539756858032885	0.135523613963039	-0.4175152749490835	0.5723140495867769
6136.749267578125	-0.4676441850066363	-9.80453828648548	-2.078527166445459	0.3623182598866305	0.3681251906832038	5.806930796573191e-05	0.1232032854209446	-0.415478615071283	0.5888429752066116
6156.280517578125	-0.4849133427073731	-9.723455314142052	-2.169555243087566	-0.3585931541509285	-1.119107077003786	-0.3725686428781636	0.1334702258726899	-0.4236252545824847	0.5743801652892562
6175.811767578125	-0.2256512210567324	-9.756293894808342	-2.14495929810892	-0.003539176164953228	-1.108127891596177	0.3539176164953228	0.1232032854209446	-0.4032586558044806	0.5557851239669421
6195.343017578125	-0.0895783338235909	-9.718963661269628	-2.014055539213637	0.007301467814804958	-0.01467595030775797	-0.7301467814804957	0.1314168377823409	-0.4215885947046843	0.5743801652892562
6214.874267578125	-0.3808252256827659	-9.543133489637427	-2.305825810574474	-0.00383666347815123	1.866447753070638	0.3836663478151229	0.1437371663244353	-0.4134419551934826	0.5805785123966942
6234.405517578125	-0.3594505224988782	-9.696222335607972	-2.01831591670406	0.3550539779859753	0.01097918540760998	0.7264862593734864	0.135523613963039	-0.415478615071283	0.5681818181818182
6253.936767578125	-0.2507963070594721	-9.614424139282562	-2.306789764684265	-0.7247108916015605	0.007393529800295976	0.007321044214018567	0.1375770020533881	-0.415478615071283	0.5929752066115702
6273.468017578125	-0.3139157172362724	-9.614832748573061	-2.202809425457589	3.718591414975016e-05	-0.3718219555833518	-0.003718591414975016	0.1416837782340863	-0.4256619144602851	0.5805785123966942
6292.999267578125	-0.00807781451861574	-9.699278493361019	-2.064072849379476	-0.3623182598866305	-0.3681251906832038	-5.806930796573191e-05	0.1293634496919918	-0.4236252545824847	0.5764462809917356
6312.530517578125	-0.2667532043522252	-9.426250202740553	-2.108226521592493	0.3623554458007803	-0.003696764900147988	-0.003660522107009284	0.1232032854209446	-0.4236252545824847	0.5743801652892562
6332.061767578125	-0.1920734424202372	-9.698770413049211	-1.93088525265876	0.3623182598866305	0.3681251906832038	5.806930796573191e-05	0.1273100616016427	-0.4134419551934826	0.5702479338842975
6351.593017578125	-0.2961607708268109	-9.669091982567336	-1.79464097243964	-0.358667525979228	-0.3754631658370828	-0.3651314600482136	0.1396303901437372	-0.4338085539714867	0.5702479338842975
6371.124267578125	-0.6263338488266548	-9.772514611120618	-2.122205039111511	0	0	0	0.135523613963039	-0.4276985743380855	0.5826446280991736
6390.655517578125	-0.07545260760495917	-9.527729676458939	-2.151579746501362	-0.003613547993252729	-0.3644839804294728	0.3613547993252729	0.1108829568788501	-0.4032586558044806	0.5785123966942149
6410.186767578125	-0.4521525723537331	-9.892862665061042	-2.261580921542232	-0.007338653728954708	0.3864979058911098	0.7338653728954707	0.1006160164271047	-0.4134419551934826	0.5950413223140496
6429.718017578125	-0.1133709398986311	-9.426656603900557	-2.220968670045632	0.003762291649851729	-1.122803841903934	-0.3762291649851729	0.1334702258726899	-0.4175152749490835	0.5619834710743802
6449.249267578125	-0.08935278906596869	-9.658890735131331	-2.021573697801044	-0.3623554458007803	0.003696764900147988	0.003660522107009284	0.1334702258726899	-0.4276985743380855	0.5826446280991736
6468.780517578125	-0.266984269436083	-9.622991580451002	-2.433857685463903	-0.0001487436565990006	1.487287822333407	0.01487436565990006	0.1396303901437372	-0.415478615071283	0.5805785123966942
6488.311767578125	-0.593346745097359	-9.671848780914813	-2.221775163421372	-0.3625041894573793	1.490984587233555	0.01853488776690934	0.1396303901437372	-0.4378818737270875	0.5764462809917356
6507.843017578125	-0.3059199189931556	-9.755580773807788	-2.136002700228147	-0.3660061797081828	0.01103474005402697	0.3687339128472572	0.1293634496919918	-0.4276985743380855	0.5764462809917356
6527.374267578125	-0.1268058367197906	-9.6576672205394	-2.106472109340313	-0.358667525979228	-0.3754631658370828	-0.3651314600482136	0.1129363449691992	-0.4358452138492871	0.5805785123966942
6546.905517578125	-0.418860273445417	-9.855431488414018	-2.037990885152767	-0.36239263171493	0.3755187204834998	0.007379113521984299	0.1334702258726899	-0.4236252545824847	0.5764462809917356
6566.436767578125	-0.3120388063161996	-9.814225880708904	-2.265373122793348	0.3587047118933778	0.003641210253730994	0.3614128686332386	0.1334702258726899	-0.4215885947046843	0.5805785123966942
6585.968017578125	-0.07510719290622309	-9.547617992373013	-2.163093569792564	3.718591414975016e-05	-0.3718219555833518	-0.003718591414975016	0.1232032854209446	-0.4195519348268839	0.5743801652892562
6605.499267578125	-0.2556194949532389	-9.975983636701548	-2.146016834892037	-0.3623554458007803	0.003696764900147988	0.003660522107009284	0.1375770020533881	-0.4134419551934826	0.5847107438016529
6625.030517578125	-0.1850736687536129	-9.736507152897003	-2.164211041546238	-0.7171119364735575	-2.981858065174276	-0.7525744685862773	0.1375770020533881	-0.4338085539714867	0.5681818181818182
6644.561767578125	-0.09417992004990378	-9.737118174149469	-2.194002665003208	-0.3662292951930813	2.241966473554138	0.3910454613371072	0.1314168377823409	-0.4134419551934826	0.5702479338842975
6664.093017578125	-0.3812920875586831	-9.863284441643973	-2.290263748043899	0.3622810739724808	0.7399471462665556	0.003776660722940747	0.1334702258726899	-0.4012219959266802	0.5661157024793388
6683.624267578125	-0.4659612741228399	-9.66399414529972	-2.134624195905337	-0.3550167920718256	-0.3828011409909618	-0.7302048507884614	0.1540041067761807	-0.4093686354378818	0.5888429752066116
6703.155517578125	-0.007136204586444777	-9.625640706149619	-2.428793180451841	-0.3623182598866305	-0.3681251906832038	-5.806930796573191e-05	0.1314168377823409	-0.4114052953156823	0.5764462809917356
6722.686767578125	-0.2738641731615934	-9.665216082655583	-2.204527561280222	-0.007227095986505457	-0.7289679608589457	0.7227095986505457	0.1334702258726899	-0.4195519348268839	0.5950413223140496
6742.218017578125	-0.2948138112253468	-9.655323132296196	-2.172872959155106	-0.728361625508963	0.01473150495417496	0.3723944349542664	0.1314168377823409	-0.415478615071283	0.5681818181818182
6761.749267578125	-0.1444961164504933	-9.71672041098566	-2.183462784983556	-0.0001487436565990006	1.487287822333407	0.01487436565990006	0.1314168377823409	-0.4378818737270875	0.5805785123966942
6781.280517578125	-0.4807525939618673	-9.762110005381006	-2.308246867937761	0.3584815964084793	2.234572943753842	0.3837244171230887	0.1498973305954825	-0.4114052953156823	0.5640495867768596
6800.811767578125	-0.5242890411272192	-9.702853456631134	-2.190365295759364	-0.3658574360515838	-1.47625308227938	0.3538595471873571	0.1375770020533881	-0.4195519348268839	0.5702479338842975
6820.343017578125	-0.02545264703586083	-9.758229689208262	-2.151578432137972	-1.08311811618174	-2.97082332512025	-0.3838405557390202	0.1211498973305955	-0.4215885947046843	0.5826446280991736
6839.874267578125	-0.4042684739689017	-9.554046806583278	-2.191050867703279	-0.7357002792379177	0.4012294108452847	1.106259807849737	0.1273100616016427	-0.4419551934826884	0.5516528925619835
6859.405517578125	-0.4766470484787165	-9.834115879008118	-2.111765050709454	-0.3550539779859753	-0.01097918540760998	-0.7264862593734864	0.1273100616016427	-0.4215885947046843	0.5723140495867769
6878.936767578125	-0.3459722516858683	-9.915197694711763	-2.134258277137727	0.3586303400650783	0.7472851214204346	0.3688500514631886	0.1293634496919918	-0.4175152749490835	0.5847107438016529
6898.468017578125	-0.4730714543141745	-9.692959770228249	-2.230951522860854	-0.3695081699589862	-1.468915107125501	0.7189329379276049	0.1437371663244353	-0.4175152749490835	0.5764462809917356
6917.999267578125	0.01726284875646765	-9.761085012235409	-1.908761625215588	7.437182829950031e-05	-0.7436439111667036	-0.007437182829950031	0.1211498973305955	-0.4358452138492871	0.5743801652892562
6937.530517578125	-0.1685710477815781	-9.937837972116043	-2.047631740614065	-1.076076949765984	-0.3827455863445448	-1.087957197314691	0.1232032854209446	-0.4276985743380855	0.5805785123966942
6957.061767578125	-0.2146058368775142	-9.826055887257063	-2.179805437416193	0	0	0	0.1293634496919918	-0.4195519348268839	0.5640495867768596
6976.593017578125	-0.0664655164935519	-9.698157183666249	-2.117816116881604	0.3585559682367788	1.490929032587138	0.3762872342931387	0.1273100616016427	-0.4215885947046843	0.5640495867768596
6996.124267578125	-0.6974798133498838	-9.822185139649795	-2.08400622167054	-0.3588534555499768	1.483646612079676	-0.3465385029733385	0.1211498973305955	-0.4297352342158859	0.5723140495867769
7015.655517578125	-0.5635748370912298	-9.742222530659497	-2.21417209695901	0.3552027216425743	-1.476308636925797	0.7116118937135864	0.1129363449691992	-0.4134419551934826	0.5743801652892562
7035.186767578125	-0.2219108057231588	-9.725084493850488	-2.26963980922804	0.3587418978075275	-0.3681807453296208	0.3576942772182636	0.1273100616016427	-0.4317718940936863	0.5764462809917356
7054.718017578125	-0.1374064403280336	-9.81442808237273	-2.419785322398881	0.3587047118933778	0.003641210253730994	0.3614128686332386	0.1314168377823409	-0.4195519348268839	0.5723140495867769
7074.249267578125	-0.1970953620584824	-9.647060833732242	-2.096821264717255	-0.7210973436083078	0.3718775102297688	-0.3540337551112543	0.1293634496919918	-0.4338085539714867	0.5743801652892562
7093.780517578125	-0.2125917064195874	-9.485404651742334	-2.246943119347087	-0.3659318078798833	-0.7326091711126765	0.3612967300173071	0.1293634496919918	-0.4358452138492871	0.5991735537190083
7113.311767578125	-0.1559476389170382	-9.797089736583176	-2.135078702765394	-0.7209114140375591	-1.48723226768699	-0.3726267121861294	0.1334702258726899	-0.4093686354378818	0.5743801652892562
7132.843017578125	-0.2246993590901241	-9.61931945943914	-1.843354696995865	-0.3587790837216773	0.7400027009129726	-0.3539756858032885	0.1149897330595483	-0.4317718940936863	0.5867768595041323
7152.374267578125	-0.377636842972743	-9.845435912561186	-2.078771900908567	-0.3622810739724808	-0.7399471462665556	-0.003776660722940747	0.1540041067761807	-0.4134419551934826	0.5909090909090909
7171.905517578125	-0.6304804024475551	-9.953855330124709	-1.983986585081502	-3.718591414975016e-05	0.3718219555833518	0.003718591414975016	0.1375770020533881	-0.4134419551934826	0.5723140495867769
7191.436767578125	-0.2661838221319343	-9.806066102489327	-2.127205928935526	0.3550911639001251	-0.3608427701757418	0.7227676679585114	0.1273100616016427	-0.4175152749490835	0.5743801652892562
7210.968017578125	-0.07294953396617301	-9.653587015982398	-2.568348867794233	-3.718591414975016e-05	0.3718219555833518	0.003718591414975016	0.1252566735112936	-0.4358452138492871	0.5764462809917356
7230.499267578125	-0.3094245375346697	-9.663380600469544	-2.352515415511013	-0.7174094237867555	-0.007282420507461989	-0.7228257372664771	0.1396303901437372	-0.4338085539714867	0.5764462809917356
7250.030517578125	-0.5055175660723906	-9.733450679696739	-2.149414464253653	0.003464804336653728	1.85177180276288	-0.3464804336653728	0.1211498973305955	-0.4073319755600814	0.5805785123966942
7269.561767578125	-0.2763877508692543	-9.666032039447726	-2.120408304358192	0.362541375371529	-1.862806542816907	-0.02225347918188436	0.1211498973305955	-0.4276985743380855	0.5847107438016529
7289.093017578125	-0.3133857659176635	-9.827994730980045	-1.887141136077882	0.3623554458007803	-0.003696764900147988	-0.003660522107009284	0.1293634496919918	-0.4256619144602851	0.5847107438016529
7308.624267578125	-0.11634639573957	-9.757618667955795	-2.121786808681002	-1.076039763851834	-0.7545675419278965	-1.091675788729666	0.1396303901437372	-0.4236252545824847	0.5640495867768596
7328.155517578125	-0.2755920352733074	-9.775774758071702	-2.14693215755642	-0.3623554458007803	0.003696764900147988	0.003660522107009284	0.1252566735112936	-0.4236252545824847	0.5764462809917356
7347.686767578125	-0.1300509999282358	-9.808716489976797	-1.998300002392141	0	0	0	0.1375770020533881	-0.4195519348268839	0.5867768595041323
7367.218017578125	-0.3204801737483252	-9.656955256178625	-1.983994208389161	0.7210601576941581	-5.555464641699391e-05	0.3577523465262293	0.1232032854209446	-0.4175152749490835	0.5640495867768596
7386.749267578125	-0.1370760093719367	-9.82432124303026	-2.430799687602109	-0.3621323303158818	-2.227234968599963	-0.01865102638284081	0.1108829568788501	-0.405295315682281	0.5785123966942149
7406.280517578125	-0.2488831197098517	-9.487138875372853	-2.037229343004945	-0.003762291649851729	1.122803841903934	0.3762291649851729	0.1252566735112936	-0.4215885947046843	0.5805785123966942
7425.811767578125	-0.2522481528594107	-9.558226902757877	-1.925061571352977	-0.007375839643104458	0.7583198614744615	0.7375839643104457	0.1314168377823409	-0.4114052953156823	0.5847107438016529
7445.343017578125	-0.2791368733345373	-9.726920922378168	-2.028770888848757	-0.3550539779859753	-0.01097918540760998	-0.7264862593734864	0.1232032854209446	-0.4276985743380855	0.5867768595041323
7464.874267578125	-0.3567913024894306	-9.575362521138251	-2.106956583685649	0.3622810739724808	0.7399471462665556	0.003776660722940747	0.1232032854209446	-0.4256619144602851	0.5929752066115702
7484.405517578125	-0.2609056016327548	-9.607692811194591	-1.969813278908174	-3.718591414975016e-05	0.3718219555833518	0.003718591414975016	0.135523613963039	-0.4297352342158859	0.5681818181818182
7503.936767578125	-0.4411757979434419	-9.565980174668379	-1.960806735218604	-0.003613547993252729	-0.3644839804294728	0.3613547993252729	0.1190965092402464	-0.4317718940936863	0.5743801652892562
7523.468017578125	-0.176085789024172	-9.696934405117817	-2.130473699194269	-0.362243888058331	-1.111769101849907	-0.007495252137915762	0.1396303901437372	-0.415478615071283	0.5743801652892562
7542.999267578125	-0.1215481202894859	-9.585967225560267	-2.281729323683803	-0.362243888058331	-1.111769101849907	-0.007495252137915762	0.1334702258726899	-0.4195519348268839	0.5661157024793388
7562.530517578125	-0.2081612503065753	-9.703972137599125	-2.394624989780825	-0.3587047118933778	-0.003641210253730994	-0.3614128686332386	0.1211498973305955	-0.4297352342158859	0.5661157024793388
7582.061767578125	-0.3915102114206088	-9.503254968359331	-2.282992952646379	-0.7211345295224576	0.7436994658131205	-0.3503151636962792	0.1314168377823409	-0.4195519348268839	0.5723140495867769
7601.593017578125	-0.3974295783811407	-9.765168897009904	-2.085680720628644	0.01095220172220744	-0.02201392546163695	-1.095220172220744	0.1375770020533881	-0.4256619144602851	0.5867768595041323
7621.124267578125	-0.1424386120007161	-9.826055151213566	-2.252046266642798	0.7247480775157102	-0.3792154853836477	-0.01103963562899358	0.1252566735112936	-0.4134419551934826	0.5681818181818182
7640.655517578125	-0.5456739963455441	-9.613101258818393	-2.144200121815199	0.003613547993252729	0.3644839804294728	-0.3613547993252729	0.1457905544147844	-0.4175152749490835	0.5867768595041323
7660.186767578125	-0.2848803784735667	-9.825444655706454	-2.17065405088111	-0.007450211471403958	1.501963772641165	0.7450211471403958	0.1314168377823409	-0.4297352342158859	0.5764462809917356
7679.718017578125	-0.2814498900272153	-9.657668797775466	-1.95167033242616	0.00379947756400148	-1.494625797487286	-0.3799477564001479	0.1149897330595483	-0.4114052953156823	0.5516528925619835
7699.249267578125	0.06885581775352689	-9.791069952259694	-1.96186059178423	0.0001487436565990006	-1.487287822333407	-0.01487436565990006	0.135523613963039	-0.4134419551934826	0.5702479338842975
7718.780517578125	-0.1441798806190021	-9.506618161400144	-2.194003979366598	-0.7209857858658586	-0.7435883565202867	-0.3651895293561793	0.1273100616016427	-0.4297352342158859	0.5743801652892562
7738.311767578125	-0.4143525327651078	-9.493973985594049	-2.188248907829741	-0.358965013292426	2.599112478829731	-0.3353827287284135	0.1273100616016427	-0.4175152749490835	0.5826446280991736
7757.843017578125	-0.2820366218442464	-9.897858507729639	-1.932112605191788	-0.3587790837216773	0.7400027009129726	-0.3539756858032885	0.1314168377823409	-0.4297352342158859	0.5702479338842975
7777.374267578125	-0.3564458877906945	-9.595250837052326	-2.118470406976851	-0.003576362079102979	-0.7363059360128246	0.3576362079102978	0.1437371663244353	-0.4215885947046843	0.5723140495867769
7796.905517578125	-0.3063205369542468	-9.769043640281875	-1.789315434858442	0.7211717154366073	-1.115521421396473	0.3465965722813042	0.1396303901437372	-0.415478615071283	0.5743801652892562
7816.436767578125	-0.277664523465724	-9.656444862587252	-2.077849217809203	-0.3623554458007803	0.003696764900147988	0.003660522107009284	0.1252566735112936	-0.4215885947046843	0.5640495867768596
7835.968017578125	-0.3361736726178413	-9.995362820813103	-2.127544246071959	-0.3513660581644231	-0.3901391161448408	-1.095278241528709	0.1293634496919918	-0.4399185336048879	0.5723140495867769
7855.499267578125	-0.36768763786029	-9.815552336241494	-2.077078737990333	-0.717335051958456	-0.7509263316741656	-0.7302629200964272	0.135523613963039	-0.4256619144602851	0.5743801652892562
7875.030517578125	-0.2341430600430112	-9.705706256080573	-2.195231331899626	-0.3657458783091345	-2.591718949029436	0.342703772942432	0.135523613963039	-0.4256619144602851	0.5826446280991736
7894.561767578125	-0.0714566800284849	-9.456437659875879	-2.284777332383837	3.718591414975016e-05	-0.3718219555833518	-0.003718591414975016	0.1232032854209446	-0.4195519348268839	0.5599173553719008
7914.093017578125	-0.4866404162010535	-9.624013734571676	-2.111986126631552	-0.3623182598866305	-0.3681251906832038	-5.806930796573191e-05	0.1334702258726899	-0.4175152749490835	0.5785123966942149
7933.624267578125	-0.1819743998813919	-9.768838389294984	-1.934186670620272	-1.075965392023534	-1.4982114530946	-1.099112971559616	0.1293634496919918	-0.4276985743380855	0.5785123966942149
7953.155517578125	-0.2333165883437523	-9.625439030231147	-2.22278038854159	-0.0001487436565990006	1.487287822333407	0.01487436565990006	0.1478439425051335	-0.4358452138492871	0.5785123966942149
7972.686767578125	0.05316389612007813	-9.709477006921174	-2.105463204002604	-0.0001115577424492505	1.115465866750055	0.01115577424492505	0.1273100616016427	-0.4276985743380855	0.5888429752066116
7992.218017578125	-0.5178105439808335	-9.884092075887136	-2.072981867305552	-1.087103523316491	0.3829122502837958	0.01470015773600287	0.1273100616016427	-0.4236252545824847	0.5826446280991736
8011.749267578125	-0.1794658059163702	-9.758027277246294	-2.017806469454326	-1.083378417580789	-0.3680696360367868	-0.357810415834195	0.1273100616016427	-0.4175152749490835	0.5888429752066116
8031.280517578125	-0.1836857010143994	-9.469391709994657	-1.877143299520021	-0.007301467814804958	0.01467595030775797	0.7301467814804957	0.1437371663244353	-0.4114052953156823	0.5681818181818182
8050.811767578125	-0.4006897253322251	-9.906223011190754	-1.977009155592498	-0.3623554458007803	0.003696764900147988	0.003660522107009284	0.1375770020533881	-0.4195519348268839	0.5681818181818182
8070.343017578125	-0.250776591608631	-9.697751097953459	-1.974113613045635	-0.7210973436083078	0.3718775102297688	-0.3540337551112543	0.1170431211498973	-0.4236252545824847	0.5723140495867769
8089.874267578125	-0.2869236877987384	-9.936105325721591	-2.102543740042054	-0.7248224493440097	1.122859396550351	0.01847681845894361	0.1396303901437372	-0.4297352342158859	0.5681818181818182
8109.405517578125	-0.3714170125413927	-9.57342483405505	-2.28609958195358	0.358816269635827	-1.111824656496325	0.3502570943883135	0.1457905544147844	-0.4215885947046843	0.5537190082644629
8128.936767578125	-0.2165584551288169	-9.786687233824985	-2.114718162372773	-0.007115538244056207	-1.844433827609001	0.7115538244056206	0.1232032854209446	-0.4134419551934826	0.5681818181818182
8148.468017578125	-0.04530610603284911	-9.847982307617288	-2.156463132238363	-0.0001487436565990006	1.487287822333407	0.01487436565990006	0.135523613963039	-0.4338085539714867	0.5743801652892562
8167.999267578125	-0.4051091407927662	-9.414318622189661	-2.163028640241128	0.007078352329906457	2.216255783192353	-0.7078352329906457	0.1293634496919918	-0.4175152749490835	0.5454545454545454
8187.530517578125	-0.2972774539624508	-9.696119710114527	-2.090751534584975	0.3622067021441813	1.483591057433259	0.01121384355289078	0.1396303901437372	-0.4236252545824847	0.5909090909090909
8207.061767578125	-0.2497395588943891	-9.547415790709186	-2.008681370187031	-0.3659318078798833	-0.7326091711126765	0.3612967300173071	0.1437371663244353	-0.4276985743380855	0.5785123966942149
8226.593017578125	-0.2097179823049886	-9.577808814278614	-2.009400589833715	0.3587047118933778	0.003641210253730994	0.3614128686332386	0.1252566735112936	-0.4256619144602851	0.5764462809917356
8246.124267578125	-0.4326839589571631	-9.61656781339615	-1.910534701427898	0.3734563911795867	-1.512998512695192	-1.113755059987653	0.1396303901437372	-0.4134419551934826	0.5702479338842975
8265.655517578125	-0.2934368841386044	-9.661544592538149	-1.552103862046522	2.181620072190236	-1.895966317625405	-0.7707028711974265	0.1437371663244353	-0.4276985743380855	0.5681818181818182
8285.186767578125	0.07826481951293374	-9.611361041690818	-0.9421606504311243	2.906479707448395	-3.390647669759108	-0.7928982810713452	0.1416837782340863	-0.4134419551934826	0.5702479338842975
8304.718017578125	0.1402218067081427	-9.817994949164367	-0.3407268902714239	7.628052704580746	-3.460719538922668	-1.935705240683209	0.1478439425051335	-0.4439918533604887	0.5702479338842975
8324.249267578125	0.4040350430309431	-9.939362002753327	-0.4678347676981002	9.813360696592534	-5.735845787285305	-3.075200094035859	0.1560574948665298	-0.4317718940936863	0.5537190082644629
8343.780517578125	-0.1056921661050392	-9.987507133707297	-0.1435944631653603	15.62103319735933	3.850362894017838	-4.132305243179401	0.1457905544147844	-0.4399185336048879	0.5351239669421488
8363.311767578125	0.2864071429867016	-10.28072835710097	-0.2135714328900512	21.43745741659278	-1.079160642737499	-6.064582238987463	0.1560574948665298	-0.4521384928716904	0.5227272727272727
8382.843017578125	-0.2382612234147004	-10.32703779557075	-0.05795921950998957	25.7965634101819	-0.03006988025085606	-7.192572902247393	0.1540041067761807	-0.4480651731160896	0.5061983471074381
8402.374267578125	-0.4853959769439632	-10.24361136587855	-0.1534674352012278	28.7064707360528	-1.197123791663732	-8.328233025569137	0.1868583162217659	-0.4826883910386965	0.5123966942148761
8421.905517578125	-0.1001000756284694	-10.20903235778654	0.003335854282314175	34.13461251299214	-2.353365181608249	-7.664149849938705	0.1868583162217659	-0.4786150712830957	0.4958677685950413
8441.436767578125	0.03788047862805698	-10.18108531191026	0.07065071239810067	38.47907838503751	-0.9031005629227392	-7.328128358822668	0.2032854209445585	-0.515274949083503	0.475206611570248
8460.968017578125	0.05645164470234008	-10.21841396821291	-0.2150548234113356	42.46085413805474	3.897258420913086	-6.954979022864848	0.2012320328542095	-0.5050916496945009	0.4462809917355372
8480.499267578125	0.200939874972497	-10.60169610709223	-0.03132916574989816	48.97550446368418	8.307256070018401	-6.246098542330818	0.2135523613963039	-0.5539714867617107	0.4524793388429752
8500.030517578125	0.06623050831952595	-10.21525213564335	0.4589830560158018	55.46426497873446	16.11501714545103	-2.94823700388028	0.2464065708418891	-0.5865580448065173	0.4297520661157025
8519.561767578125	0.5078455665077076	-10.34579660016251	0.07181444974308132	61.9783947015658	25.73052217272328	-2.187296243536601	0.2299794661190965	-0.5987780040733197	0.4359504132231405
8539.093017578125	0.08829604090088571	-10.40811761344205	0.7234653033038101	69.91914934221626	44.29899492531864	0.8386889667799288	0.2546201232032854	-0.625254582484725	0.4318181818181818
8558.624267578125	-0.4554142965408848	-10.45391728921489	0.8471432180294906	75.32445706785745	52.4823302758812	3.786177272226223	0.2648870636550308	-0.6272912423625254	0.4235537190082645
8578.155517578125	-1.34499436532415	-10.44821484478814	1.16647884413832	79.61445941860498	51.06808887720808	9.568550893126178	0.2464065708418891	-0.6761710794297352	0.4400826446280992
8597.686767578125	-1.646471210315755	-10.39569235800209	1.215707010525159	81.38749163936514	37.00108846723263	13.42474910696481	0.2361396303901437	-0.6843177189409368	0.4504132231404959
8617.218017578125	-1.8252800974101	-10.55684056482927	1.50933658033665	83.88150964599117	23.67767641377748	17.64613685015961	0.242299794661191	-0.7087576374745417	0.4855371900826446
8636.749267578125	-1.877503960834074	-10.52705961400302	1.583465361135799	84.55670925719753	7.784670446047366	22.58994384546514	0.2464065708418891	-0.7291242362525457	0.4690082644628099
8656.280517578125	-1.641909054991124	-10.21088392778046	1.73030183303747	86.33659671480271	-1.835142447235611	25.76061837480297	0.2484599589322382	-0.7637474541751527	0.487603305785124
8675.811767578125	-1.100627661092977	-10.2992029437534	2.020922036432576	86.34073086559407	-6.676165844973063	25.34720329566805	0.2279260780287475	-0.7759674134419551	0.4855371900826446
8695.343017578125	-0.9853246070119186	-10.37192162293386	2.177486900397279	86.71754050336784	-5.22192668815532	23.89812357625995	0.2464065708418891	-0.7902240325865579	0.5247933884297521
8714.874267578125	-0.873536423506811	-10.41577677693387	2.451214116893696	88.89118976128857	-0.4104218549726343	23.92450213201257	0.2320328542094456	-0.8024439918533605	0.5309917355371901
8734.405517578125	-0.9048358846441087	-10.44923026936826	2.827862821470283	92.14471544653931	3.28920276706731	24.65889012867973	0.2320328542094456	-0.810590631364562	0.5743801652892562
8753.936767578125	-0.8439088326008388	-10.24953052254094	2.79696108669462	95.02124556444549	7.393698010206269	26.86095080182987	0.2238193018480493	-0.8187372708757636	0.5805785123966942
8773.468017578125	-0.9826819479811774	-10.66106716318058	3.089398266039242	98.95910095283143	13.3975785626387	31.62613660091559	0.215605749486653	-0.8329938900203665	0.6239669421487604
8792.999267578125	-1.15584196410053	-10.59038890172584	3.194732136684329	101.4442928691625	15.33354263840873	36.73013337360487	0.2032854209445585	-0.8452138492871689	0.6322314049586777
8812.530517578125	-1.560033942120168	-10.44107764128552	3.667798070672267	103.9332842630576	15.77488091669147	41.454182389894	0.2094455852156057	-0.8228105906313645	0.6632231404958678
8832.061767578125	-1.604596381347291	-10.25881949663562	3.486546044909694	105.375925181244	10.56926242923171	42.11762680313682	0.162217659137577	-0.8268839103869653	0.6942148760330579
8851.593017578125	-1.248345282210907	-9.866964974581526	3.944842740363547	104.6327746905347	12.47245561271816	43.96890775812695	0.1396303901437372	-0.8146639511201629	0.7252066115702479
8871.124267578125	-1.973160962460993	-9.594655377862388	4.438698748699766	103.5420576192249	12.49088388257248	44.34496271518822	0.1478439425051335	-0.80040733197556	0.7438016528925619
8890.655517578125	-2.309998651463163	-9.743566230639757	4.666621715438748	101.7271130731976	7.683020259643527	44.67999702806884	0.108829568788501	-0.7902240325865579	0.7975206611570248
8910.186767578125	-2.230219685325633	-9.487771031588622	5.00732284418774	100.6481291078072	-0.128826463214174	43.8827413931949	0.1108829568788501	-0.7881873727087576	0.8326446280991736
8929.718017578125	-1.980238809312948	-9.013610548344522	5.341293643764936	102.4565530902169	-3.114547957227849	44.1997634420803	0.1026694045174538	-0.7617107942973522	0.8615702479338844
8949.249267578125	-2.472400340367543	-8.849409443385506	5.413344678918111	101.7205925095799	-0.1105648572991019	45.33205338983486	0.07597535934291581	-0.7311608961303462	0.8822314049586777
8968.780517578125	-3.085718048548904	-8.567715502364146	5.857268284963446	100.2678174797826	-3.063015467211446	45.68202013768335	0.06570841889117043	-0.7046843177189409	0.9152892561983471
8988.311767578125	-2.725818013770849	-8.504681157785908	6.193933792361603	99.90959618477315	-7.900342100048749	45.27226558065543	0.04106776180698152	-0.70061099796334	0.9586776859504132
9007.843017578125	-3.040161950599389	-8.149652364027135	6.00539835331297	101.3482516958248	-9.752225012104464	46.33425070737326	0.0431211498973306	-0.6945010183299388	0.9669421487603306
9027.374267578125	-3.291230330880469	-7.547497806984685	6.041011029348946	101.703863462523	-15.31857516044713	47.00495809552213	0.02874743326488707	-0.6313645621181262	1.004132231404959
9046.905517578125	-3.014122571746497	-7.484566298198034	6.470752391549905	98.0842200398217	-17.89169917568299	46.65045978594714	0.03285420944558522	-0.6211812627291242	1.012396694214876
9066.436767578125	-3.118929119799755	-6.975120415401921	6.630970659991803	95.1892875087219	-20.47221672071915	46.28864043215815	0.02464065708418891	-0.5784114052953157	1.057851239669422
9085.968017578125	-3.017680027696266	-6.795716542288459	6.589334256542178	92.6819680734615	-20.13322121206579	43.39739555240021	0.004106776180698152	-0.5641547861507128	1.084710743801653
9105.499267578125	-2.653782488105669	-6.241389671154167	6.792749603522283	90.545123641928	-27.99268144145408	39.6905343579253	0.004106776180698152	-0.5295315682281059	1.09504132231405
9125.030517578125	-2.737535300514732	-6.021803080499764	6.917843350491033	86.6031341027507	-29.15553859614906	35.33876363797451	-0.01232032854209446	-0.515274949083503	1.128099173553719
9144.561767578125	-2.363925141221775	-5.771002462328374	7.464171374059146	83.38946900316822	-29.96130530021486	30.61831707448442	0.002053388090349076	-0.4725050916496945	1.138429752066116
9164.093017578125	-2.520435064796801	-5.298274004284299	7.34783549322669	79.80167816595143	-22.56127829108513	27.07856021645153	0.02464065708418891	-0.4338085539714867	1.146694214876033
9183.624267578125	-2.401422351485481	-5.529793226980305	7.380745049516012	76.56592273335379	-21.4639073663109	24.56714695447781	0.02258726899383984	-0.4012219959266802	1.163223140495868
9203.155517578125	-2.476628121645909	-5.327443092665511	7.220937388196964	72.22864677138077	-21.81338206855411	23.5121344561262	0.008213552361396304	-0.3910386965376782	1.171487603305785
9222.686767578125	-2.468495103864939	-4.928146750249664	7.28317012883127	70.08036672124111	-24.81714294989719	20.94883512226672	0.01232032854209446	-0.3584521384928717	1.194214876033058
9242.218017578125	-2.070625476621025	-4.649502237440798	7.020849220700803	68.2828949405536	-21.85343538134515	19.53659290116057	0.01232032854209446	-0.3421588594704684	1.198347107438017
9261.749267578125	-2.052334269948685	-4.570254747283408	7.077808998289487	66.48516285846708	-16.28697412370965	18.15038081995926	0.03901437371663245	-0.3014256619144602	1.227272727272727
9281.280517578125	-2.330302411357362	-4.410131113005547	7.343413711912048	64.3108814400058	-14.77750571197535	18.18721831826121	0.03696098562628337	-0.2993890020366599	1.212809917355372
9300.811767578125	-2.279309580683905	-4.250310097754462	7.310319356130178	61.06424817751424	-14.40176477290619	16.76358804567828	0.04106776180698152	-0.2627291242362525	1.237603305785124
9320.343017578125	-2.209168315535539	-3.740964422023158	7.305610517851289	58.88992957313881	-12.52047440558854	16.80414413539521	0.03696098562628337	-0.2321792260692464	1.235537190082645
9339.874267578125	-2.318397433521472	-3.579615170171942	7.27991445071571	55.99090007716182	-10.6317905084706	16.85202126932616	0.0431211498973306	-0.2219959266802444	1.241735537190083
9359.405517578125	-2.249814477607585	-3.364106681093119	7.660482586919508	53.79441676794292	-6.103718601146214	19.1090478433894	0.04106776180698152	-0.1873727087576375	1.270661157024793
9378.936767578125	-2.511673518443016	-2.862107770963242	7.722450614767188	52.71502375749688	-9.825523812587045	18.35269671408018	0.03696098562628337	-0.1670061099796334	1.247933884297521
9398.468017578125	-2.368410800597142	-2.919119492193076	8.280360019904718	49.8384192677624	-13.1863751445593	16.15807322376	0.03696098562628337	-0.1303462321792261	1.268595041322314
9417.999267578125	-2.040965552375673	-2.539912195268134	8.032185079189079	48.03729675316751	-10.21532960085339	15.1109043933941	0.04928131416837783	-0.1425661914460285	1.258264462809917
9437.530517578125	-1.757924231156564	-2.435062168073956	8.264141038552118	45.50002772836491	-2.381191179301961	15.21461846785764	0.0431211498973306	-0.109979633401222	1.285123966942149
9457.061767578125	-1.872951268925847	-2.195587576952691	8.4317089641949	46.24962441086359	4.252844665320922	12.71871833393143	0.0431211498973306	-0.0875763747454175	1.276859504132231
9476.593017578125	-2.2446064441134	-1.855756083596666	8.820214803780004	43.3502974275734	9.11610420710568	12.79634419918218	0.02258726899383984	-0.07331975560081466	1.270661157024793
9496.124267578125	-2.523975959767863	-1.532752226991609	8.799198658928747	40.82144544801009	5.780908010848791	12.05835374971598	0.01848049281314168	-0.05295315682281058	1.289256198347108
9515.655517578125	-2.263502520817545	-1.67186581506434	8.450084027251485	39.7419408798216	3.174568666158015	11.31315839465169	0.0431211498973306	-0.004073319755600814	1.276859504132231
9535.186767578125	-3.056007652749399	-1.018109141055639	8.866921758313282	37.93444654526565	-3.135258729412104	10.90317156039191	0.01642710472279261	-0.008146639511201629	1.276859504132231
9554.718017578125	-2.810595241005615	-1.075425794591815	9.353174700187138	33.95717680218127	-16.4948606668189	10.07942123114941	0.02874743326488707	0.008146639511201629	1.276859504132231
9574.249267578125	-2.608044219390382	-1.313267630936224	8.934807313012749	30.33757056539406	-19.43980663763811	9.721204330159459	0.06365503080082136	0.02443991853360489	1.278925619834711
9593.780517578125	-2.230819035031202	-1.087964821326755	9.027301167706723	27.43470440593892	-15.68467498744953	10.15274781190553	0.03080082135523614	0.04684317718940936	1.264462809917355
9613.311767578125	-2.250110997988235	-0.9908692226828627	9.337033266274513	27.07924138289729	-11.60561266144027	9.467166058096771	0.04722792607802875	0.0570264765784114	1.272727272727273
9632.843017578125	-2.454109133695204	-0.770161953228116	9.470304456506796	26.01020559954707	-9.400280509009113	7.675092219206409	0.06570841889117043	0.0570264765784114	1.272727272727273
9652.374267578125	-2.508892851256388	-1.067875355239565	9.296428375212894	26.02499446474743	-11.28874218754139	6.196205699170543	0.06365503080082136	0.07331975560081466	1.28305785123967
9671.905517578125	-2.233176214333764	-0.7787269759679168	9.105873811125456	26.03218437481978	-10.18795227109909	5.477214691934972	0.08213552361396304	0.06720977596741344	1.287190082644628
9691.436767578125	-2.33144906197828	-0.4171685300396438	9.048302065942663	26.02823615359918	-7.206038651278397	5.87203681399502	0.09445585215605749	0.09572301425661914	1.276859504132231
9710.968017578125	-2.18864374259192	-0.9409948101047206	9.288124753063977	25.30743629730407	-9.808736785715443	5.488254327563966	0.04722792607802875	0.1018329938900204	1.291322314049587
9730.499267578125	-2.123645055640946	-0.5099785679905723	9.121501854698177	24.58998968760317	-9.444197250639553	4.769147181712463	0.07392197125256673	0.1221995926680244	1.287190082644628
9750.030517578125	-2.103311328261468	-0.5300706628045413	9.110377608715595	23.13680561275019	-8.306606349135025	5.160018435125673	0.08829568788501027	0.1425661914460285	1.285123966942149
9769.561767578125	-1.984437411724069	-0.3883014297907823	8.814580390802295	22.41921025939269	-6.454778991725729	4.455785654934071	0.07802874743326489	0.1344195519348269	1.293388429752066
9789.093017578125	-1.656778448015482	-0.4323583648583393	8.892614933849405	22.06434221097746	-8.324867955050099	3.71070643848571	0.09445585215605749	0.1527494908350305	1.28099173553719
9808.624267578125	-2.226299465080388	-0.2431701603759921	8.543315502679592	21.68373309563967	-8.284481314380555	5.539733914293959	0.108829568788501	0.1629327902240326	1.289256198347108
9828.155517578125	-2.066311735976992	0.05189253870077282	8.877057865899708	19.86472877064926	-8.994965450738761	6.280746123479551	0.09445585215605749	0.1507128309572301	1.287190082644628
9847.686767578125	-1.79986451542182	-0.001956193319721795	8.995483847393999	18.41161906762459	-8.601018460400939	6.66418019406281	0.1026694045174538	0.1812627291242362	1.254132231404959
9867.218017578125	-1.892339443282986	0.2814769133385014	8.744648109432843	17.69398652835294	-6.377369147408289	5.963666005286184	0.09445585215605749	0.175152749490835	1.297520661157025
9886.749267578125	-1.886732369063777	0.04995653400271231	8.891078968792543	15.87483345970593	-5.600565461433088	6.719552580131675	0.1006160164271047	0.1955193482688391	1.266528925619835
9906.280517578125	-1.967676124036999	0.2904513865613704	8.922537467899959	14.43301063163081	-8.575029996807068	5.974299155759417	0.1190965092402464	0.2077393075356415	1.276859504132231
9925.811767578125	-1.582490629246215	0.2583280298770571	8.749687641540508	13.34970658587832	-9.686743544010557	5.609051557095272	0.1047227926078029	0.2016293279022403	1.278925619834711
9945.343017578125	-1.623718002809058	0.5316645124250714	8.457266760301914	11.91093951708421	-6.719394765204789	4.558222204622366	0.108829568788501	0.1955193482688391	1.293388429752066
9964.874267578125	-1.717946028559014	0.6511974507659191	8.598200951967115	8.646089770969787	-6.678785905949578	4.956240294325697	0.1211498973305955	0.2342158859470468	1.270661157024793
9984.405517578125	-1.471077039307089	0.464351757290708	9.035901310236287	7.211345295224575	-7.436994658131206	3.503151636962793	0.1314168377823409	0.2118126272912423	1.274793388429752
10003.93676757812	-1.866606836845181	0.5897971227533916	8.886894561506029	4.308665065340183	-5.540972785859384	3.91610216163399	0.1437371663244353	0.2362525458248472	1.270661157024793
10023.46801757812	-1.675306240097915	0.4883176490350076	8.843541336597161	2.86348899067086	-11.4826749907463	3.506173396682179	0.1334702258726899	0.2219959266802444	1.276859504132231
10042.99926757812	-1.62925646725934	0.3665404089194803	8.975215575311314	2.146228310540703	-12.97724523358717	2.768473293755802	0.1232032854209446	0.2342158859470468	1.266528925619835
10062.53051757812	-1.406028669419995	0.7920507302208684	9.200955647333169	1.421071187969346	-8.507988236786652	2.82041743494952	0.1478439425051335	0.2240325865580448	1.274793388429752
10082.06176757812	-1.575855197111135	0.5338068196007332	9.195173237037814	-0.3800141407113967	-5.908764648664086	1.769530013168648	0.1375770020533881	0.219959266802444	1.285123966942149
10101.59301757812	-1.335800656287928	0.4014244544669034	9.193355209597586	0.7105170010275978	-4.06808314060165	1.412068013182248	0.1437371663244353	0.230142566191446	1.260330578512397
10121.12426757812	-1.674940321330304	0.595102629436535	9.164677377676799	0.3554630230416226	-4.07906232600926	0.6855817538087613	0.1375770020533881	0.2240325865580448	1.28305785123967
10140.65551757812	-1.497824597154193	0.5523700469201442	9.260819905139765	0.7176697251858037	-2.595471268576001	0.6967955973616521	0.1560574948665298	0.2382892057026476	1.28099173553719
10160.18676757812	-1.435455951345422	0.6325359090649803	9.181865044847394	-0.01084064397975819	-1.093451941288418	1.084064397975818	0.162217659137577	0.2281059063136456	1.264462809917355
10179.71801757812	-1.577527855960493	0.4565993265727738	8.917595198683113	-0.3804975575953434	-1.075079226080512	1.817871701563323	0.1642710472279261	0.2342158859470468	1.270661157024793
10199.24926757812	-1.534977181337197	0.5636907113676398	9.165906044573216	-2.18098791164969	-4.425006927291576	0.7074868171428512	0.1540041067761807	0.230142566191446	1.28305785123967
10218.78051757812	-1.424871908715886	0.3792914161818637	9.495730290529512	-1.46015086944043	-2.194130748437882	1.087550712158931	0.1765913757700205	0.2403258655804481	1.258264462809917
10238.31176757812	-1.351697618610124	0.5496177699827267	9.38992062033746	-2.529298210533106	1.126667270743333	-0.6933673524865057	0.1437371663244353	0.2342158859470468	1.262396694214876
10257.84301757812	-1.633036313494595	0.5019849253034142	9.434543783153172	-3.246670448405712	0.7475628946525196	-1.419911681167958	0.1601642710472279	0.2281059063136456	1.270661157024793
10277.37426757812	-1.447342790966538	0.6320258309208193	9.244759698884604	-4.322710212257546	-0.007004647275377023	-2.511587469897623	0.1478439425051335	0.2158859470468432	1.254132231404959
10296.90551757812	-1.657380163575153	0.6707804137773673	9.579338785838418	-4.337350333801306	0.3941692089234907	-1.047575315521657	0.1437371663244353	0.2362525458248472	1.28099173553719
10316.43676757812	-1.848680760322419	0.7722598874957514	9.622692010747286	-2.5181972651543	-0.3826344770517108	-1.803461890367149	0.162217659137577	0.219959266802444	1.260330578512397
10335.96801757812	-1.897430761308192	0.5198307205103515	9.914358710273037	-3.60135256725019	-2.981635846588608	-2.183583854691194	0.1540041067761807	0.230142566191446	1.270661157024793
10355.49926757812	-1.612786968244718	0.6785322136008747	9.759565608157255	-3.231658467720455	-3.371830517379866	-2.921109749693675	0.1704312114989733	0.2097759674134419	1.289256198347108
10375.03051757812	-1.614835797896125	0.4312030920135864	9.494526596537494	-2.862113111847319	-2.274737365837717	-3.643761279036255	0.135523613963039	0.2179226069246436	1.28099173553719
10394.56176757812	-1.590816069827395	0.6189694707558089	9.693868994246506	-1.058120767542169	2.555140182552875	-2.88357541969613	0.1560574948665298	0.2281059063136456	1.276859504132231
10414.09301757812	-1.725547517785308	0.4587396359160836	9.851583926176939	-1.069147341092676	3.320798019181215	-1.780918064645436	0.1519507186858316	0.2342158859470468	1.28099173553719
10433.62426757812	-2.026579582205938	0.28473926842008	9.552652740197937	0.01452856380131042	0.7142920105511876	-1.452856380131041	0.162217659137577	0.2138492871690428	1.285123966942149
10453.15551757812	-1.920157944419778	0.5224822646376051	9.671931480659273	0.7212460872649068	-1.859165332563176	0.3391593894513542	0.1498973305954825	0.2219959266802444	1.274793388429752
10472.68676757812	-1.568544707939254	0.5695038777663077	9.618156931308476	0.728510369165562	-1.502019327287582	-0.3872688006141665	0.1601642710472279	0.2138492871690428	1.278925619834711
10492.21801757812	-1.736613406033401	0.4018283320492003	9.553780201113371	1.090791443138043	-0.7620721810210266	-0.3834921398912258	0.1560574948665298	0.2219959266802444	1.278925619834711
10511.74926757812	-1.762252955543236	0.8735382110410206	9.408431851441186	1.449421783203121	-0.01478705960059195	-0.01464208842803713	0.1519507186858316	0.2158859470468432	1.268595041322314
10531.28051757812	-1.465869794430937	0.4293687664673304	9.528993147697905	1.086991965574041	0.7325536164662596	-0.003544383491077821	0.1416837782340863	0.2179226069246436	1.28305785123967
10550.81176757812	-1.555111388354162	0.3805139844321542	9.503712945138734	0.724487776116662	2.223538203699815	0.01499050427583152	0.1642710472279261	0.2138492871690428	1.274793388429752
10570.34301757812	-1.724426102941466	0.4124355600489258	9.48087009804888	0.3584444104943295	2.606394899337194	0.3874430085380637	0.1375770020533881	0.2219959266802444	1.285123966942149
10589.87426757812	-1.623643084095862	0.4816887361423382	9.454769469862041	-0.3587418978075275	0.3681807453296208	-0.3576942772182636	0.1642710472279261	0.2240325865580448	1.260330578512397
10609.40551757812	-1.782077235672979	0.5537950271324035	9.402574522432634	-0.7136471321369039	-1.130086262411396	-1.09905490225165	0.1560574948665298	0.219959266802444	1.256198347107438
10628.93676757812	-1.999975552840957	0.6433412379147572	9.665851761365234	-0.7172606801301565	-1.494570242840869	-0.7377001029263772	0.1540041067761807	0.2281059063136456	1.291322314049587
10648.46801757812	-1.688085006715083	0.3108525144954567	9.602833557169419	-1.800825027281694	-0.003530100960897006	-1.076917561685697	0.1581108829568789	0.2260692464358452	1.274793388429752
10667.99926757812	-1.968971823466276	0.5933657770792374	9.63239411554253	-0.7213204590932063	2.60280924372988	-0.3317222066214042	0.1519507186858316	0.2260692464358452	1.276859504132231
10687.53051757812	-2.003310618505238	0.5522629000166398	9.777020616841254	-0.3623554458007803	0.003696764900147988	0.003660522107009284	0.1498973305954825	0.219959266802444	1.268595041322314
10707.06176757812	-1.705052123708934	0.8220331466674448	9.501737456964456	-0.3658946219657335	-1.104431126696028	0.3575781386023321	0.1437371663244353	0.2281059063136456	1.291322314049587
10726.59301757812	-1.74510524501968	0.4524159707769702	9.503508167322664	-1.090605513567294	-1.097037596895733	0.3648991828163506	0.1704312114989733	0.2281059063136456	1.287190082644628
10746.12426757812	-1.75588486492156	0.6255972270086956	9.196162164052003	-1.44551074789667	-2.59530460463675	-0.3764614422170358	0.1498973305954825	0.2179226069246436	1.276859504132231
10765.65551757812	-1.938613183643116	0.7631817372887258	9.620439454770521	-1.079541754102638	-2.234517389107425	-0.7414767636493179	0.1457905544147844	0.2138492871690428	1.274793388429752
10785.18676757812	-1.686041697389911	0.4215131845105954	9.534723246330362	-1.076039763851834	-0.7545675419278965	-1.091675788729666	0.1478439425051335	0.219959266802444	1.262396694214876
10804.71801757812	-1.68698725041225	0.6312074557000391	9.566241680408336	-0.36239263171493	0.3755187204834998	0.007379113521984299	0.1581108829568789	0.2179226069246436	1.264462809917355
10824.24926757812	-1.754934580191019	0.3425711524049038	9.497819339700635	-0.3549424202435261	-1.126445052157665	-0.7376420336184115	0.1437371663244353	0.219959266802444	1.278925619834711
10843.78051757812	-1.660505456842484	0.4397699022875968	9.683515228082793	-0.7137215039652034	-0.3864423512446928	-1.0916177194217	0.1416837782340863	0.2138492871690428	1.287190082644628
10863.31176757812	-1.796908775031722	0.4123328294064098	9.563625834390738	-1.076002577937684	-1.126389497511249	-1.095394380144641	0.1478439425051335	0.2219959266802444	1.285123966942149
10882.84301757812	-1.585543369654451	0.6806743104783941	9.518112321815041	-0.717483795615055	0.7363614906592416	-0.7153885544365272	0.1478439425051335	0.2179226069246436	1.264462809917355
10902.37426757812	-1.576931660727059	0.5501254296982511	9.56438869090195	-1.808052123268199	-0.7324980618198427	-0.3542079630351515	0.1601642710472279	0.2342158859470468	1.274793388429752
10921.90551757812	-1.787651976552809	0.06199252758125854	9.588399218426954	-1.449310225460672	-1.100678807149464	0.003486314183112089	0.1540041067761807	0.2219959266802444	1.287190082644628
10941.43676757812	-1.65757652946553	0.3807169221394787	9.585884315517664	0.3623182598866305	0.3681251906832038	5.806930796573191e-05	0.1457905544147844	0.2240325865580448	1.270661157024793
10960.96801757812	-1.524076902876169	0.5205484680700387	9.469230095872295	0.358816269635827	-1.111824656496325	0.3502570943883135	0.1560574948665298	0.2158859470468432	1.274793388429752
10980.49926757812	-1.736973804474777	0.4317118032198223	9.565793482492548	0.0002231154848985009	-2.230931733500111	-0.02231154848985009	0.1437371663244353	0.1995926680244399	1.28099173553719
11000.03051757812	-1.592077858681226	0.618561492359737	9.735928622707521	-0.01076627215145869	-1.837095852455122	1.076627215145868	0.1437371663244353	0.2179226069246436	1.291322314049587
11019.56176757812	-1.740429528698205	0.2105944523875805	9.680984289940151	-0.007041166415756707	-2.588077738775705	0.7041166415756707	0.1560574948665298	0.219959266802444	1.245867768595041
11039.09301757812	-1.48118160217217	0.3977512819643318	9.706053405738983	-0.007227095986505457	-0.7289679608589457	0.7227095986505457	0.1314168377823409	0.2260692464358452	1.270661157024793
11058.62426757812	-1.667825409430768	0.5507364509507185	9.594180314358921	0.0001487436565990006	-1.487287822333407	-0.01487436565990006	0.1601642710472279	0.2240325865580448	1.264462809917355
11078.15551757812	-1.660114302297797	0.5998963755903791	9.670476743259877	0.3515148018210221	-1.097148706188567	1.080403875868809	0.1478439425051335	0.2138492871690428	1.260330578512397
11097.68676757812	-1.627728914128171	0.4703676510985581	9.590963804272365	0.7248596352581596	-1.494681352133703	-0.02219540987391863	0.1601642710472279	0.2158859470468432	1.272727272727273
11117.21801757812	-1.628615320797987	0.4300810462753176	9.620510693266226	1.808312424667248	-1.87025562726362	0.3281778231303264	0.1642710472279261	0.2158859470468432	1.254132231404959
11136.74926757812	-1.511439298887023	0.4413012933598623	9.381309962900778	1.449719270516319	-2.989362704267406	-0.04439081974783726	0.1540041067761807	0.219959266802444	1.268595041322314
11156.28051757812	-1.51039753446458	0.5183047971897858	9.679917815485986	0.7322354749012641	-2.253001213608165	-0.7597793741843644	0.1437371663244353	0.2179226069246436	1.270661157024793
11175.81176757812	-1.641618843554743	0.4025432405839664	9.387294785158103	1.083489975323238	-0.7473962307132686	0.34665464158927	0.1457905544147844	0.2077393075356415	1.266528925619835
11195.34301757812	-1.625296027494379	0.3211542844434841	9.50986758314597	0.003725105735701979	-0.7509818863205826	-0.3725105735701979	0.1416837782340863	0.2219959266802444	1.268595041322314
11214.87426757812	-1.583336027778282	0.4713880176850223	9.444534259276054	0.3624298176290798	-0.7473406760668516	-0.01109770493695932	0.1560574948665298	0.2362525458248472	1.270661157024793
11234.40551757812	-1.452735361080596	0.6502822332506073	9.424512036019864	0.01098938763635719	-0.3938358810449887	-1.098938763635719	0.1437371663244353	0.2158859470468432	1.276859504132231
11253.93676757812	-1.630062434889724	0.4129464793856561	9.33541449632412	-0.3478640679136196	1.089810731034688	-1.445477266609057	0.1806981519507187	0.219959266802444	1.270661157024793
11273.46801757812	-1.625175368935232	0.4511932973776085	9.505845631174386	0.007152724158205957	1.472611872025649	-0.7152724158205956	0.1683778234086242	0.2138492871690428	1.274793388429752
11292.99926757812	-1.821077551908811	0.5345182582161513	9.369251730293684	-0.7101079559719506	-0.02195837081521995	-1.452972518746973	0.162217659137577	0.2057026476578411	1.266528925619835
11312.53051757812	-1.76046200398883	0.4507839520436117	9.682066799627666	-1.796876806061093	-2.98544372078159	-1.471739683745745	0.1498973305954825	0.2342158859470468	1.260330578512397
11332.06176757812	-1.676467874461473	0.4912753872574573	9.548929148715748	-1.086954779659892	-1.104375572049612	-0.000174207923897194	0.1704312114989733	0.2118126272912423	1.276859504132231
11351.59301757812	-1.682826501666745	0.5925527644610861	9.42755005555814	-1.087103523316491	0.3829122502837958	0.01470015773600287	0.1601642710472279	0.2321792260692464	1.274793388429752
11371.12426757812	-1.605542722987664	0.4075411862339887	9.851424099588789	-1.087066337402341	0.01109029470044396	0.01098156632102785	0.1601642710472279	0.2036659877800407	1.266528925619835
11390.65551757812	-1.570933431963162	0.4787315236652443	9.697781065438734	-1.090717071309743	0.01842826985432295	0.3760549570612757	0.1601642710472279	0.219959266802444	1.262396694214876
11410.18676757812	-1.488020497759931	0.6088733723909558	9.600683258664349	-1.815167661512256	-2.576931889428844	0.3573458613704692	0.1416837782340863	0.2118126272912423	1.285123966942149
11429.71801757812	-1.375721289769022	0.6451834496413495	9.857376325634055	-2.532577085299011	-2.584214309936306	-0.365479875896008	0.1581108829568789	0.2260692464358452	1.276859504132231
11449.24926757812	-1.727220176634667	0.3815321428881243	9.574005887822238	-1.449235853632372	-1.844322718316167	-0.003950868646837944	0.1827515400410678	0.2097759674134419	1.274793388429752
11468.78051757812	-1.537706588351639	0.4194748697663036	9.590219611721281	0.3551283498142748	-0.7326647257590937	0.7190490765435364	0.1560574948665298	0.1975560081466395	1.278925619834711
11488.31176757812	-1.615030586550435	0.5611401103486927	9.501019551681162	-0.007338653728954708	0.3864979058911098	0.7338653728954707	0.1601642710472279	0.219959266802444	1.241735537190083
11507.84301757812	-1.710130823845601	0.4203910336232556	9.67102746152004	-0.3733820193512872	0.7693546015284886	1.106317877157703	0.1601642710472279	0.2057026476578411	1.266528925619835
11527.37426757812	-1.864688917787359	0.643750583248754	9.489630592911952	-1.098018539124548	0.03310422016208091	1.106201738541772	0.1642710472279261	0.2240325865580448	1.268595041322314
11546.90551757812	-1.603881104790776	0.2114117761176492	9.462703493025856	-1.0978326095538	-1.826005557754678	1.087608781466896	0.1519507186858316	0.219959266802444	1.272727272727273
11566.43676757812	-1.505184769262193	0.6199902579385577	9.50615897540642	-0.37297297429564	-3.320686909888381	1.065413371592978	0.1519507186858316	0.2118126272912423	1.289256198347108
11585.96801757812	-1.528328342695544	0.4091738358617742	9.610944756518125	0.3479012538277694	-1.461632686618039	1.441758675194082	0.1560574948665298	0.1995926680244399	1.278925619834711
11605.49926757812	-1.508610526000342	0.3788825965932227	9.620350866678075	-0.01452856380131042	-0.7142920105511876	1.452856380131041	0.1642710472279261	0.2077393075356415	1.262396694214876
11625.03051757812	-1.345969097213734	0.6581366585675595	9.532303240457788	-0.01087782989390794	-0.7216299857050666	1.087782989390794	0.1827515400410678	0.219959266802444	1.278925619834711
11644.56176757812	-1.396390968430832	0.5385002535406979	9.546365614361049	-0.01102657355050694	0.7656578366283405	1.102657355050694	0.1601642710472279	0.2118126272912423	1.270661157024793
11664.09301757812	-1.674830703423628	0.4518047392263605	9.494356780787582	0.3514404299927226	-0.3535047950218628	1.087841058698759	0.1806981519507187	0.2077393075356415	1.264462809917355
11683.62426757812	-1.37740893236102	0.5779711118699369	9.580297745367329	-0.3622067021441813	-1.483591057433259	-0.01121384355289078	0.1540041067761807	0.2016293279022403	1.274793388429752
11703.15551757812	-1.412724036525633	0.5565525615233787	9.757467884187761	-0.3623182598866305	-0.3681251906832038	-5.806930796573191e-05	0.1581108829568789	0.230142566191446	1.268595041322314
11722.68676757812	-1.580236758906061	0.4390567812870403	9.67455863020202	-0.358667525979228	-0.3754631658370828	-0.3651314600482136	0.1683778234086242	0.2240325865580448	1.266528925619835
11742.21801757812	-1.271534595490209	0.4088704807914991	9.384486516340296	1.449384597288971	0.3570348959827598	-0.01092349701306212	0.1581108829568789	0.2057026476578411	1.28305785123967
11761.74926757812	-1.388589170223991	0.7376895016275762	9.619639007466372	0.7246737056874109	0.3644284257830558	-0.003602452799043552	0.1683778234086242	0.230142566191446	1.274793388429752
11781.28051757812	-1.332761322386264	0.4090738390951081	9.42537741287545	0.7283988114231127	-0.3865534605375267	-0.3761130263692414	0.162217659137577	0.2118126272912423	1.28305785123967
11800.81176757812	-1.457578264425204	0.3720496945025174	9.252608814173463	-0.7138702476218023	1.100845471088715	-1.0767433537618	0.1683778234086242	0.2179226069246436	1.262396694214876
11820.34301757812	-1.356428538193954	0.7580881059839548	9.547617939798476	-0.358667525979228	-0.3754631658370828	-0.3651314600482136	0.1560574948665298	0.2179226069246436	1.264462809917355
11839.87426757812	-1.632255581641288	0.4022373619359836	9.408519388042921	-0.3550167920718256	-0.3828011409909618	-0.7302048507884614	0.1724845995893224	0.2342158859470468	1.266528925619835
11859.40551757812	-1.502406467929665	0.4508885753694084	9.413548930988824	-0.7098476545729024	-2.624712059898683	-1.479002658651798	0.1560574948665298	0.2036659877800407	1.28099173553719
11878.93676757812	-1.492406791263059	0.587455137491611	9.74689304210195	-0.7137215039652034	-0.3864423512446928	-1.0916177194217	0.1540041067761807	0.2138492871690428	1.285123966942149
11898.46801757812	-1.699866171519691	0.4503766045419668	9.662205717323019	-1.072426215858581	-0.3900835614984237	-1.453030588054939	0.1498973305954825	0.2057026476578411	1.276859504132231
11917.99926757812	-1.722247151314508	0.6431400877416424	9.408238377150266	-1.431205299580258	0.3499191394145488	-1.807006273858227	0.1683778234086242	0.2362525458248472	1.262396694214876
11937.53051757812	-1.576992384315649	0.3801057957379401	9.566412810521635	-1.789724081902887	-1.512831848755941	-2.187012099566341	0.1581108829568789	0.2097759674134419	1.252066115702479
11957.06176757812	-1.58572475180219	0.3806156635839588	9.524158393406312	-0.7137215039652034	-0.3864423512446928	-1.0916177194217	0.1601642710472279	0.2057026476578411	1.272727272727273
11976.59301757812	-1.686657608074187	0.4113140400560129	9.555253602472895	-1.431093741837809	-0.7655467273355065	-1.818162048103152	0.1663244353182751	0.2097759674134419	1.272727272727273
11996.12426757812	-1.53259949796576	0.3811261623244043	9.419983265525326	-0.7100335841436511	-0.7656022819819236	-1.460409701576923	0.162217659137577	0.1995926680244399	1.260330578512397
12015.65551757812	-1.492964344212845	0.1172748620378468	9.765478140428161	-0.7103310714568492	2.208973362684891	-1.430660970257123	0.1540041067761807	0.2179226069246436	1.276859504132231
12035.18676757812	-1.729353388415674	0.3308424044122653	9.645112947189141	0.365671506480835	3.335362860196139	-0.335266590112482	0.1498973305954825	0.2240325865580448	1.28305785123967
12054.71801757812	-1.503493183580026	0.4038705373091249	9.116439452667539	0.3693594263023872	2.956202929458909	-0.7040585722677049	0.1724845995893224	0.2138492871690428	1.276859504132231
12074.24926757812	-1.618190579011247	0.4234517127863636	9.273019300374882	0.3618348430026838	5.201810613266777	0.04839975770264093	0.1683778234086242	0.2240325865580448	1.264462809917355
12093.78051757812	-1.664025059126637	0.5419652308823873	9.467501970887902	-1.44953334094557	1.130252926350647	0.02579786267296218	0.1642710472279261	0.2077393075356415	1.272727272727273
12113.31176757812	-1.715502889890784	0.5653207322686464	9.183429663026143	-0.7354771637530193	-1.829702322654826	1.083948259359887	0.1601642710472279	0.1975560081466395	1.28305785123967
12132.84301757812	-1.435826601821235	0.5990827320778008	9.527553394041149	-0.3768096377737912	-1.454239156817743	1.449079719408101	0.1540041067761807	0.2158859470468432	1.268595041322314
12152.37426757812	-1.4277858523502	0.4283492410734354	9.592861745006667	-1.105320006939353	0.04778017046983887	1.836348520022267	0.162217659137577	0.2219959266802444	1.274793388429752
12171.90551757812	-1.604901576526311	0.4710818235898261	9.496719217543701	-1.453109703024673	0.3939469903378227	0.38343407058326	0.162217659137577	0.2077393075356415	1.278925619834711
12191.43676757812	-1.748754969279385	0.5712358932663323	9.625165642646149	-0.7284359973372625	0.7583754161208786	0.3798316177842165	0.1704312114989733	0.230142566191446	1.28099173553719
12210.96801757812	-1.453632808402883	0.3366587252830679	9.787760280096094	-1.083415603494938	0.003752319546564981	-0.35409182441922	0.1519507186858316	0.2260692464358452	1.28099173553719
12230.49926757812	-1.701969415815419	0.3796965555530144	9.732313860513973	-1.442083129474167	-0.3717108462905178	-0.7192232844674336	0.1478439425051335	0.2118126272912423	1.293388429752066
12250.03051757812	-1.898668103002979	0.3627639800290369	9.622270100099286	0	0	0	0.1601642710472279	0.2097759674134419	1.272727272727273
12269.56176757812	-1.31323356263717	0.4353878147473149	9.774452087905674	-1.083266859838339	-1.483535502786842	-0.3689661900791201	0.1498973305954825	0.2321792260692464	1.266528925619835
12289.09301757812	-1.542857841347401	0.6978092979643403	9.761928044913374	-0.7282500677665138	-1.10073436179588	0.3612386607093414	0.1642710472279261	0.1975560081466395	1.270661157024793
12308.62426757812	-1.76993015210076	0.5210559174874209	9.664338403358672	-0.7319008016739164	-1.093396386642001	0.7263120514495892	0.1498973305954825	0.230142566191446	1.28305785123967
12328.15551757812	-1.62571162919811	0.3176865732259446	9.857054306603651	-1.090456769910695	-2.58432541922914	0.3500248171564506	0.1560574948665298	0.2158859470468432	1.287190082644628
12347.68676757812	-1.607800536417987	0.5101444932248511	9.593351213932882	0.0004462309697970019	-4.461863467000222	-0.04462309697970018	0.1786447638603696	0.2179226069246436	1.28099173553719
12367.21801757812	-1.530370863402682	0.5085134208331329	9.679028780089393	0.7215435745781048	-4.83374097722999	0.3094106581315541	0.1601642710472279	0.2057026476578411	1.28099173553719
12386.74926757812	-1.507543525800822	0.5092275933244009	9.584784193360729	1.08725226697309	-1.870200072617203	-0.02957452339590293	0.1663244353182751	0.2036659877800407	1.276859504132231
12406.28051757812	-1.485753220913204	0.3596064585713974	9.525107363773463	1.08714070923064	-0.7547342058671476	-0.01841874915097788	0.1683778234086242	0.2179226069246436	1.258264462809917
12425.81176757812	-1.383852730313925	0.6658876171984974	9.795091010464173	0.7319379875880661	0.7215744310586497	-0.7300306428645642	0.1724845995893224	0.2097759674134419	1.266528925619835
12445.34301757812	-1.497985475233056	0.3789846963413118	9.599515841101878	0.7321239171588148	-1.13753534685811	-0.7486235999394393	0.1806981519507187	0.2016293279022403	1.28305785123967
12464.87426757812	-1.590080289202006	0.5492073731580183	9.669342973400177	-0.3513660581644231	-0.3901391161448408	-1.095278241528709	0.1868583162217659	0.230142566191446	1.278925619834711
