Time Stamp	Accelerometer X	Accelerometer Y	Accelerometer Z	Gyroscope X	Gyroscope Y	Gyroscope Z	Magnetometer X	Magnetometer Y	Magnetometer Z
1859.405517578125	-0.2698083106145622	-9.633904687098708	-2.339722979514595	-50.34237243175474	5.667991873210343	-1.994640882497794	0.1540041067761807	-0.4256619144602851	0.5785123966942149
1878.936767578125	-0.7855842200685941	-9.717338897822179	-2.480525997713533	5.801784097689684	-4.528349680556468	-0.4682648414320966	0.1540041067761807	-0.3991853360488798	0.5557851239669421
1898.468017578125	-0.3500770085509854	-9.633191566098152	-2.330766381633822	-2.540027296770415	-1.082250537295141	0.3795412712443878	0.1560574948665298	-0.4134419551934826	0.5433884297520661
1917.999267578125	-0.1275013978254647	-9.5445587852969	-2.416620072484512	-1.086954779659892	-1.104375572049612	-0.000174207923897194	0.162217659137577	-0.405295315682281	0.5805785123966942
1937.530517578125	-0.2442121350965782	-9.655628590347893	-2.192928830114063	-0.3514776159068723	0.7253267506052147	-1.084122467283784	0.1560574948665298	-0.4358452138492871	0.5681818181818182
1957.061767578125	-0.2754264254862422	-9.675721210907218	-2.152452483791928	-0.3550167920718256	-0.3828011409909618	-0.7302048507884614	0.1478439425051335	-0.4256619144602851	0.5681818181818182
1976.593017578125	-0.3086729845486069	-9.533137598337381	-2.377567181713105	-1.445771049295719	0.00744908444671297	-0.3504313023122107	0.1581108829568789	-0.4073319755600814	0.5785123966942149
1996.124267578125	-0.3602217909357821	-9.743138379069237	-2.325940302140598	-0.0001859295707487508	1.859109777916759	0.01859295707487508	0.1540041067761807	-0.4297352342158859	0.5743801652892562
2015.655517578125	-0.2004454114654022	-9.728144016373813	-1.985152951153262	-0.3769211955162404	-0.3387732900676879	1.460235493653026	0.1642710472279261	-0.4215885947046843	0.5640495867768596
2035.186767578125	-0.1593773387453561	-9.754865339527665	-2.354088708488133	-1.08319248801004	-2.227179413953546	-0.3764033729090701	0.1560574948665298	-0.4276985743380855	0.5702479338842975
2054.718017578125	-0.1525368659215278	-9.545986919981294	-2.248771135949074	-7.437182829950031e-05	0.7436439111667036	0.007437182829950031	0.162217659137577	-0.4236252545824847	0.5661157024793388
2074.249267578125	-0.4541051906050357	-9.853494011628962	-2.196493646498812	0.003576362079102979	0.7363059360128246	-0.3576362079102978	0.1519507186858316	-0.4195519348268839	0.5454545454545454
2093.780517578125	-0.3246614265627058	-9.744973861255275	-2.177952447909807	-0.0001115577424492505	1.115465866750055	0.01115577424492505	0.1560574948665298	-0.4195519348268839	0.5661157024793388
2113.311767578125	-0.5642806502313412	-9.692450743574801	-2.19064499228863	0.3624670035432295	-1.119162631650203	-0.01481629635193433	0.1560574948665298	-0.3991853360488798	0.5681818181818182
2132.843017578125	-0.2213248625241613	-9.694895038882812	-2.289171249194624	-0.3621695162300315	-1.855413013016611	-0.0149324349678658	0.1375770020533881	-0.4256619144602851	0.5805785123966942
2152.374267578125	-0.1665119660957335	-9.627172202370954	-2.116267796808883	-0.01095220172220744	0.02201392546163695	1.095220172220744	0.1683778234086242	-0.4195519348268839	0.5371900826446281
2171.905517578125	0.01884008482375569	-9.760575039240319	-1.961336160791856	-0.3624298176290798	0.7473406760668516	0.01109770493695932	0.1560574948665298	-0.405295315682281	0.5619834710743802
2191.436767578125	-0.3223168651486821	-9.414215786398076	-2.25610449504393	0.01087782989390794	0.7216299857050666	-1.087782989390794	0.1478439425051335	-0.4134419551934826	0.5619834710743802
2210.968017578125	-0.1641232420718258	-9.536399848269889	-2.195891930939141	-0.3586303400650783	-0.7472851214204346	-0.3688500514631886	0.1560574948665298	-0.4297352342158859	0.5619834710743802
2230.499267578125	-0.1223745919887449	-9.666234451409695	-2.254180267041838	-0.3587418978075275	0.3681807453296208	-0.3576942772182636	0.1601642710472279	-0.4297352342158859	0.5743801652892562
2250.030517578125	-0.1193849410232004	-9.555267797597502	-2.353835299226655	-0.7319751735022159	-0.3497524754752979	0.7337492342795393	0.1437371663244353	-0.415478615071283	0.5619834710743802
2269.561767578125	-0.5360252547039095	-9.593314832354265	-2.132491509869686	-0.362243888058331	-1.111769101849907	-0.007495252137915762	0.1581108829568789	-0.4236252545824847	0.5764462809917356
2289.093017578125	-0.315518189080637	-9.668684214469407	-1.816060363978767	-0.3695081699589862	-1.468915107125501	0.7189329379276049	0.1560574948665298	-0.4236252545824847	0.5599173553719008
2308.624267578125	-0.1377920745464855	-9.837886104103363	-2.073597515117151	0.7209114140375591	1.48723226768699	0.3726267121861294	0.1498973305954825	-0.415478615071283	0.5702479338842975
2328.155517578125	-0.1623520059682613	-9.875827148596406	-2.25493313439129	-0.00398540713475023	3.353735575404045	0.398540713475023	0.1601642710472279	-0.4317718940936863	0.5640495867768596
2347.686767578125	-0.5320750669733866	-9.70203760498806	-2.264164434220449	-0.3550539779859753	-0.01097918540760998	-0.7264862593734864	0.1581108829568789	-0.4256619144602851	0.5826446280991736
2367.218017578125	-0.4393438382512869	-9.735387841034584	-2.021872058290439	-0.717186308301857	-2.238214154007573	-0.7451372857563272	0.162217659137577	-0.4195519348268839	0.5640495867768596
2386.749267578125	-0.09859539242027665	-9.528545843549223	-2.046820252657445	-1.456425763704728	-2.945112634758464	0.7150401385887327	0.162217659137577	-0.4175152749490835	0.5785123966942149
2406.280517578125	-0.06021177548675478	-9.729468474074052	-1.992940817108174	-0.003390432508354228	-2.595415713929583	0.3390432508354227	0.1745379876796715	-0.4338085539714867	0.5681818181818182
2425.811767578125	-0.3259381991591755	-9.735386684394802	-2.135393361360818	-0.7138702476218023	1.100845471088715	-1.0767433537618	0.1683778234086242	-0.4276985743380855	0.5557851239669421
2445.343017578125	-0.5280341881689946	-9.660731054174642	-2.398860394366849	0.7245249620308118	1.851716248116463	0.01127191286085651	0.1560574948665298	-0.4114052953156823	0.5537190082644629
2464.874267578125	-0.441301976828825	-9.832687639174653	-2.289934105705835	-0.003576362079102979	-0.7363059360128246	0.3576362079102978	0.1601642710472279	-0.405295315682281	0.5495867768595042
2484.405517578125	-0.1924086050845359	-9.615545448977333	-2.253046497182136	-1.094144689732247	-2.205165488491909	0.7188167993116735	0.1457905544147844	-0.4175152749490835	0.5681818181818182
2503.936767578125	0.01393251480038894	-9.925495153547875	-2.464417160012965	-1.083266859838339	-1.483535502786842	-0.3689661900791201	0.162217659137577	-0.4256619144602851	0.5619834710743802
2523.468017578125	-0.1130405089425342	-9.436549764558087	-2.23198303524886	-0.373270461608838	-0.3461112652215669	1.095162102912778	0.162217659137577	-0.4297352342158859	0.5764462809917356
2542.999267578125	-0.1710339019006484	-9.768634294947876	-1.965536603311723	-0.3659318078798833	-0.7326091711126765	0.3612967300173071	0.1498973305954825	-0.4175152749490835	0.5619834710743802
2562.530517578125	0.0186145400661335	-9.820647965378615	-1.95381800220445	0.3622067021441813	1.483591057433259	0.01121384355289078	0.1560574948665298	-0.4134419551934826	0.5764462809917356
2582.061767578125	-0.2751567181187359	-9.855634005525058	-2.161442729375469	-0.7177440970141032	3.339115179742704	-0.689358414531702	0.1540041067761807	-0.4073319755600814	0.5578512396694215
2601.593017578125	-0.4040886690572308	-9.673988669661837	-2.197044364758973	0.3659318078798833	0.7326091711126765	-0.3612967300173071	0.1498973305954825	-0.4236252545824847	0.5723140495867769
2621.124267578125	-0.4124456543597565	-9.713357428242988	-2.25181152134145	0	0	0	0.1519507186858316	-0.3971486761710794	0.5537190082644629
2640.655517578125	-0.4350782033073063	-9.844008619069362	-2.164059889756456	-1.08319248801004	-2.227179413953546	-0.3764033729090701	0.1663244353182751	-0.4338085539714867	0.5723140495867769
2660.186767578125	-0.1217137300765512	-9.686020772724751	-2.276208997448295	-0.7280269522816153	-3.331666095295991	0.3389271122194913	0.1683778234086242	-0.4093686354378818	0.5702479338842975
2679.718017578125	0.1981505329874981	-9.372597994334042	-1.938351099583268	-0.3731589038663887	-1.461577131971622	1.084006328667853	0.1519507186858316	-0.4175152749490835	0.5599173553719008
2699.249267578125	0.03326548589517216	-9.769244159560563	-2.108849529839072	0.3655599487383858	4.450828726946194	-0.324110815867557	0.1663244353182751	-0.4195519348268839	0.5537190082644629
2718.780517578125	-0.7196502321297183	-9.559353575055274	-2.344992262342727	-0.717632539271654	2.223649312992649	-0.7005141887766271	0.162217659137577	-0.4358452138492871	0.5661157024793388
2738.311767578125	-0.3020091621643149	-9.697649629099796	-1.933027927856171	-0.3693222403882375	-3.32802488504226	0.7003399808527299	0.162217659137577	-0.4175152749490835	0.5599173553719008
2757.843017578125	-0.08015513693957849	-9.759250160943798	-1.994828768680718	-0.7209114140375591	-1.48723226768699	-0.3726267121861294	0.1519507186858316	-0.4073319755600814	0.5454545454545454
2777.374267578125	-0.04049395879155328	-9.759759713342602	-1.983534706948224	-0.003650733907402479	0.007337975153878983	0.3650733907402479	0.162217659137577	-0.4276985743380855	0.5681818181818182
2796.905517578125	-0.2106651125633951	-9.788115053062166	-1.977829581220166	0.7209485999517089	1.115410312103638	0.3689081207711543	0.1806981519507187	-0.4134419551934826	0.5516528925619835
2816.436767578125	-0.3034862437413302	-9.694793885476365	-2.217125208622329	0.365968993794033	0.3607872155293249	-0.3650153214322821	0.1786447638603696	-0.4338085539714867	0.5599173553719008
2835.968017578125	-0.02843283458500161	-10.01585994984915	-2.385572180499947	0.3622067021441813	1.483591057433259	0.01121384355289078	0.1581108829568789	-0.4338085539714867	0.5723140495867769
2855.499267578125	-0.461019004905993	-9.592396144919606	-2.299366503133573	-0.7211345295224576	0.7436994658131205	-0.3503151636962792	0.1560574948665298	-0.4256619144602851	0.5640495867768596
2875.030517578125	-0.313360530140587	-9.774653238078789	-2.221315661980436	-1.079690497759237	-0.7472295667740175	-0.7266023979894179	0.1498973305954825	-0.4276985743380855	0.5702479338842975
2894.561767578125	-0.07239907857868952	-9.740075702073776	-1.920030714043684	-0.003687919821552229	0.3791599307372308	0.3687919821552229	0.1704312114989733	-0.4195519348268839	0.5619834710743802
2914.093017578125	-0.3645631332109924	-9.794542079738221	-2.18122889296692	-0.3659318078798833	-0.7326091711126765	0.3612967300173071	0.135523613963039	-0.4175152749490835	0.5702479338842975
2933.624267578125	-0.1504194265011936	-9.695302281235387	-2.319352449960214	-0.3623554458007803	0.003696764900147988	0.003660522107009284	0.1601642710472279	-0.4276985743380855	0.5433884297520661
2953.155517578125	-0.2200772687949365	-9.474491650243696	-2.330757706835452	-1.079690497759237	-0.7472295667740175	-0.7266023979894179	0.1540041067761807	-0.4032586558044806	0.5681818181818182
2972.686767578125	-0.3427523242544997	-9.817489918175621	-1.908255858183345	-1.086917593745742	-1.476197527632963	-0.00389279933887221	0.1519507186858316	-0.4256619144602851	0.5578512396694215
2992.218017578125	-0.03511085209389918	-9.631352508843696	-1.829638263536694	-0.3622067021441813	-1.483591057433259	-0.01121384355289078	0.1642710472279261	-0.4032586558044806	0.5619834710743802
3011.749267578125	-0.202007663790051	-9.73864914462545	-1.933077873664968	0.003650733907402479	-0.007337975153878983	-0.3650733907402479	0.1560574948665298	-0.4175152749490835	0.5723140495867769
3031.280517578125	-0.4534230360059336	-9.536606781641918	-1.885898799802215	0.003501990250803478	1.479949847179528	-0.3501990250803478	0.1724845995893224	-0.4134419551934826	0.5599173553719008
3050.811767578125	-0.4315617554952877	-9.452871634276811	-2.281274816823746	0.3806091153377927	-0.0403866406695429	-1.829027475808249	0.1498973305954825	-0.4215885947046843	0.5599173553719008
3070.343017578125	-0.6336388176722995	-9.671543217714044	-2.212039410923359	0.7210229717800084	0.3717664009369348	0.3614709379412043	0.1560574948665298	-0.4175152749490835	0.5537190082644629
3089.874267578125	-0.224898879452636	-9.416050637689686	-2.1700373515788	-0.3695081699589862	-1.468915107125501	0.7189329379276049	0.1642710472279261	-0.4134419551934826	0.5557851239669421
3109.405517578125	-0.3888817475144732	-9.572405098363014	-2.37060841618423	-0.003613547993252729	-0.3644839804294728	0.3613547993252729	0.1519507186858316	-0.4317718940936863	0.5578512396694215
3128.936767578125	0.03134283512914803	-9.749865816641575	-2.044761170971601	-1.438320837824315	-1.494514688194452	-1.095452449452607	0.1478439425051335	-0.4175152749490835	0.5661157024793388
3148.468017578125	-0.2044902333599624	-9.486118508786388	-2.183658888001256	0.3584444104943295	2.606394899337194	0.3874430085380637	0.1498973305954825	-0.4134419551934826	0.5557851239669421
3167.999267578125	-0.3039814958664586	-9.574954016996822	-2.200616804451381	0.3622067021441813	1.483591057433259	0.01121384355289078	0.1540041067761807	-0.4012219959266802	0.5578512396694215
3187.530517578125	-0.3636309866952252	-9.574240685698124	-2.212300443492495	-0.7174094237867555	-0.007282420507461989	-0.7228257372664771	0.1519507186858316	-0.4134419551934826	0.5578512396694215
3207.061767578125	-0.2366966052359506	-9.686531902359626	-2.110113158801648	-0.7136843180510536	-0.7582643068280446	-1.095336310836675	0.1437371663244353	-0.4175152749490835	0.5702479338842975
3226.593017578125	-0.2537504702135026	-9.608712652035699	-1.874984326216581	1.08714070923064	-0.7547342058671476	-0.01841874915097788	0.1519507186858316	-0.405295315682281	0.5640495867768596
3246.124267578125	-0.1151295581136572	-9.727225223790084	-2.162348062878093	-0.01098938763635719	0.3938358810449887	1.098938763635719	0.1560574948665298	-0.415478615071283	0.5764462809917356
3265.655517578125	-0.1365894320451784	-9.587497249694607	-2.113685598494055	-0.3622810739724808	-0.7399471462665556	-0.003776660722940747	0.162217659137577	-0.4175152749490835	0.5681818181818182
3285.186767578125	-0.2224226188269938	-10.0152499800874	-2.252579372433541	-0.3587047118933778	-0.003641210253730994	-0.3614128686332386	0.1704312114989733	-0.4195519348268839	0.5702479338842975
3304.718017578125	-0.2038751112937201	-9.685919619318303	-2.204162956876	0.00383666347815123	-1.866447753070638	-0.3836663478151229	0.1765913757700205	-0.4114052953156823	0.5599173553719008
3324.249267578125	-0.2053932010084848	-9.936410468326077	-2.153559966383842	-0.003725105735701979	0.7509818863205826	0.3725105735701979	0.1663244353182751	-0.405295315682281	0.5805785123966942
3343.780517578125	-0.1234408035702316	-9.586579193154375	-2.218639880992281	0.3695081699589862	1.468915107125501	-0.7189329379276049	0.1581108829568789	-0.415478615071283	0.5681818181818182
3363.311767578125	-0.3134354488537832	-9.724677461796057	-2.218818371540562	0.3695825417872857	0.7252711959587976	-0.726370120757555	0.1581108829568789	-0.415478615071283	0.5805785123966942
3382.843017578125	-0.5715564402097409	-9.821469915667818	-2.281451993008638	-0.7209114140375591	-1.48723226768699	-0.3726267121861294	0.1560574948665298	-0.4236252545824847	0.5661157024793388
3402.374267578125	-0.2326107752036409	-9.675210817315845	-2.24630749321197	-0.3659318078798833	-0.7326091711126765	0.3612967300173071	0.1498973305954825	-0.4175152749490835	0.5557851239669421
3421.905517578125	-0.2535004782968374	-9.705298487982644	-2.216650723438753	-0.3587418978075275	0.3681807453296208	-0.3576942772182636	0.1540041067761807	-0.4175152749490835	0.5599173553719008
3441.436767578125	-0.0386454381206917	-9.519162024992356	-2.045152062643611	3.718591414975016e-05	-0.3718219555833518	-0.003718591414975016	0.1540041067761807	-0.4358452138492871	0.5516528925619835
3460.968017578125	-0.2552133566659122	-9.825852318655311	-2.159554777802926	-0.003576362079102979	-0.7363059360128246	0.3576362079102978	0.1786447638603696	-0.4175152749490835	0.5537190082644629
3480.499267578125	-0.1593481598781112	-9.984855905027256	-2.355061337396293	-0.003650733907402479	0.007337975153878983	0.3650733907402479	0.1396303901437372	-0.4276985743380855	0.5702479338842975
3500.030517578125	-0.3299388584438517	-9.733346897563512	-2.335371385204947	0.7246737056874109	0.3644284257830558	-0.003602452799043552	0.1683778234086242	-0.4338085539714867	0.5743801652892562
3519.561767578125	0.08299652771479786	-9.609831122705549	-2.099884257159929	-0.3587790837216773	0.7400027009129726	-0.3539756858032885	0.1581108829568789	-0.4134419551934826	0.5702479338842975
3539.093017578125	-0.2841091100366629	-9.778528612245188	-1.863029665444571	-0.365968993794033	-0.3607872155293249	0.3650153214322821	0.1519507186858316	-0.4256619144602851	0.5743801652892562
3558.624267578125	-0.1927548084013057	-9.805657388049756	-2.241506386623145	-0.0001487436565990006	1.487287822333407	0.01487436565990006	0.1704312114989733	-0.4215885947046843	0.5537190082644629
3578.155517578125	-0.4262101935189793	-9.724474629237804	-2.126326882700691	-0.003613547993252729	-0.3644839804294728	0.3613547993252729	0.1724845995893224	-0.405295315682281	0.5516528925619835
3597.686767578125	-0.4015004246708112	-9.78648513731023	-1.949985844306296	-0.362243888058331	-1.111769101849907	-0.007495252137915762	0.1437371663244353	-0.4073319755600814	0.5599173553719008
3617.218017578125	-0.1091612968350393	-9.778628819309995	-2.027956772165358	-0.7209114140375591	-1.48723226768699	-0.3726267121861294	0.1437371663244353	-0.4297352342158859	0.5537190082644629
3636.749267578125	-0.3508230412108126	-9.626766116658164	-1.972565292972914	-0.36239263171493	0.3755187204834998	0.007379113521984299	0.1642710472279261	-0.4236252545824847	0.5681818181818182
3656.280517578125	-0.2780556780104114	-9.816571335890032	-2.064810732986289	0.3550539779859753	0.01097918540760998	0.7264862593734864	0.1396303901437372	-0.4256619144602851	0.5557851239669421
3675.811767578125	-0.09494566816057212	-9.647365766038584	-2.16847772798093	-0.3623554458007803	0.003696764900147988	0.003660522107009284	0.1540041067761807	-0.4175152749490835	0.5619834710743802
3695.343017578125	-0.1576289725647673	-9.517633367795941	-2.079034247841092	-0.01106375946465669	1.137479792211692	1.106375946465669	0.1519507186858316	-0.4195519348268839	0.5599173553719008
3714.874267578125	-0.430180885318377	-9.742425152919608	-2.327303822720769	-1.079764869587536	-0.003585655607314001	-0.7191652151594679	0.1540041067761807	-0.4134419551934826	0.5681818181818182
3734.405517578125	-0.2359001010219701	-9.586274365997104	-2.136663299267663	-0.3657830642232843	-2.219896993446084	0.346422364357407	0.1683778234086242	-0.4114052953156823	0.5537190082644629
3753.936767578125	-0.2323804987378169	-9.688469694591893	-1.920650042072772	-0.3621323303158818	-2.227234968599963	-0.01865102638284081	0.1786447638603696	-0.4175152749490835	0.5619834710743802
3773.468017578125	-0.1303412113646168	-9.755476991674559	-2.321959621179441	-0.00383666347815123	1.866447753070638	0.3836663478151229	0.162217659137577	-0.4093686354378818	0.5764462809917356
3792.999267578125	-0.1982222972285597	-9.737425209437234	-2.059256759048012	0.007041166415756707	2.588077738775705	-0.7041166415756707	0.1642710472279261	-0.4012219959266802	0.5764462809917356
3812.530517578125	-0.5706542611792522	-9.581178211114626	-2.311524627358263	0.7246737056874109	0.3644284257830558	-0.003602452799043552	0.1601642710472279	-0.4195519348268839	0.5516528925619835
3832.061767578125	-0.3726795900132567	-9.783833067437619	-2.244013666224777	0.358965013292426	-2.599112478829731	0.3353827287284135	0.1519507186858316	-0.4073319755600814	0.5619834710743802
3851.593017578125	0.1144158587932094	-9.656338872323531	-2.480528626440312	-0.3658574360515838	-1.47625308227938	0.3538595471873571	0.1540041067761807	-0.3991853360488798	0.5640495867768596
3871.124267578125	-0.05456290451176264	-9.497642005792136	-2.181236516274579	-0.3661549233647818	1.498322562387434	0.3836082785071572	0.1683778234086242	-0.4073319755600814	0.5764462809917356
3890.655517578125	-0.4005990342583561	-9.756193687743536	-1.980032191388133	-0.00387384939230098	2.23826970865399	0.387384939230098	0.1601642710472279	-0.4236252545824847	0.5640495867768596
3910.186767578125	-0.3424518607836813	-9.807392768320058	-1.918271307210624	0.003576362079102979	0.7363059360128246	-0.3576362079102978	0.1745379876796715	-0.4256619144602851	0.5557851239669421
3929.718017578125	-0.2593733167933845	-9.577197372429861	-2.020889440220519	3.718591414975016e-05	-0.3718219555833518	-0.003718591414975016	0.1540041067761807	-0.4317718940936863	0.5599173553719008
3949.249267578125	-0.307241642817543	-9.716008131177672	-2.091945239415234	-7.437182829950031e-05	0.7436439111667036	0.007437182829950031	0.1704312114989733	-0.4256619144602851	0.5475206611570248
3968.780517578125	-0.5526035830071742	-9.552008491838988	-2.246547233094198	0.7245249620308118	1.851716248116463	0.01127191286085651	0.1478439425051335	-0.415478615071283	0.5743801652892562
3988.311767578125	-0.1877912464975502	-9.39738583636754	-2.073625116748328	-0.3622810739724808	-0.7399471462665556	-0.003776660722940747	0.1663244353182751	-0.4276985743380855	0.5764462809917356
4007.843017578125	-0.01538357198229397	-9.808307354940943	-2.153880933923535	-1.44551074789667	-2.59530460463675	-0.3764614422170358	0.1704312114989733	-0.405295315682281	0.5516528925619835
4027.374267578125	0.0884537645076145	-9.741399949475872	-1.948458816920483	-0.724636519773261	-0.7362503813664076	-0.0001161386159314638	0.1498973305954825	-0.4215885947046843	0.5599173553719008
4046.905517578125	-0.1570745740871155	-9.887454112288166	-2.09751419709615	0.3620579584875823	2.970878879766667	0.02608820921279084	0.1498973305954825	-0.4215885947046843	0.5661157024793388
4066.436767578125	-0.2670102938311932	-9.886333328338752	-2.099656872293561	-0.3550539779859753	-0.01097918540760998	-0.7264862593734864	0.1601642710472279	-0.4093686354378818	0.5681818181818182
4085.968017578125	-0.3242410931507735	-9.814837953452084	-2.191963561640883	-0.717335051958456	-0.7509263316741656	-0.7302629200964272	0.1396303901437372	-0.4358452138492871	0.5764462809917356
4105.499267578125	-0.2050919489196328	-9.716313063484016	-2.163601702678909	0.7172606801301565	1.494570242840869	0.7377001029263772	0.1457905544147844	-0.415478615071283	0.5578512396694215
4125.030517578125	-0.1989935656654635	-9.7843412528985	-2.36688114448455	-0.003762291649851729	1.122803841903934	0.3762291649851729	0.1540041067761807	-0.415478615071283	0.5785123966942149
4144.561767578125	-0.2974580474921552	-9.786178102022465	-2.084731750261493	-0.00383666347815123	1.866447753070638	0.3836663478151229	0.1416837782340863	-0.4073319755600814	0.5681818181818182
4164.093017578125	-0.1953540934401964	-9.966497823545662	-2.154863551993456	-0.0001115577424492505	1.115465866750055	0.01115577424492505	0.1683778234086242	-0.4215885947046843	0.5537190082644629
4183.624267578125	-0.5832618976831192	-9.521921346917543	-2.224603410562697	-0.0001859295707487508	1.859109777916759	0.01859295707487508	0.1457905544147844	-0.4073319755600814	0.5743801652892562
4203.155517578125	-0.5310388228771783	-9.761702552730288	-2.298705904094058	-3.718591414975016e-05	0.3718219555833518	0.003718591414975016	0.1519507186858316	-0.4256619144602851	0.5640495867768596
4222.686767578125	-0.2274382295209698	-9.616871694211779	-2.085392349301008	0.003687919821552229	-0.3791599307372308	-0.3687919821552229	0.1540041067761807	-0.415478615071283	0.5743801652892562
4242.218017578125	-0.2500857622111588	-9.737527729781609	-1.99714125962804	-0.358667525979228	-0.3754631658370828	-0.3651314600482136	0.1519507186858316	-0.4338085539714867	0.5578512396694215
4261.749267578125	-0.3056793904928942	-9.705503002926035	-2.144020316903528	0.3587047118933778	0.003641210253730994	0.3614128686332386	0.1498973305954825	-0.4114052953156823	0.5702479338842975
4281.280517578125	-0.09437549732224748	-9.81718141080086	-2.187483422591751	-0.00379947756400148	1.494625797487286	0.3799477564001479	0.1560574948665298	-0.4256619144602851	0.5681818181818182
4300.811767578125	-0.2053529814887689	-9.893064130681369	-2.48823395037437	-0.36239263171493	0.3755187204834998	0.007379113521984299	0.1478439425051335	-0.4256619144602851	0.5702479338842975
4320.343017578125	-0.6570970497010744	-9.672461379403346	-2.096765009964189	-0.365968993794033	-0.3607872155293249	0.3650153214322821	0.1642710472279261	-0.4195519348268839	0.5743801652892562
4339.874267578125	-0.1634126972235125	-9.659503438768937	-1.886243425882917	-0.007152724158205957	-1.472611872025649	0.7152724158205956	0.1663244353182751	-0.4093686354378818	0.5640495867768596
4359.405517578125	-0.01655545838028897	-9.868686264876295	-2.114818053990368	-0.3623554458007803	0.003696764900147988	0.003660522107009284	0.1581108829568789	-0.4012219959266802	0.5516528925619835
4378.936767578125	-0.2774839299360194	-9.566386470679312	-2.083869002132686	0.007078352329906457	2.216255783192353	-0.7078352329906457	0.1457905544147844	-0.4276985743380855	0.5785123966942149
4398.468017578125	-0.5707749197383997	-9.711217224048751	-2.307502675386679	0.3551283498142748	-0.7326647257590937	0.7190490765435364	0.1498973305954825	-0.4175152749490835	0.5743801652892562
4417.999267578125	-0.03594126688332636	-9.428287676292275	-2.135291103889122	-0.3622067021441813	-1.483591057433259	-0.01121384355289078	0.1478439425051335	-0.4276985743380855	0.5537190082644629
4437.530517578125	-0.2966023969256515	-9.935901441672629	-2.113253435811618	-0.003650733907402479	0.007337975153878983	0.3650733907402479	0.1642710472279261	-0.4175152749490835	0.5516528925619835
4457.061767578125	-0.385603462348615	-9.934678452826052	-2.14655125504617	-0.3513660581644231	-0.3901391161448408	-1.095278241528709	0.1519507186858316	-0.4236252545824847	0.5619834710743802
4476.593017578125	-0.1924086050845359	-9.615545448977333	-2.253046497182136	3.718591414975016e-05	-0.3718219555833518	-0.003718591414975016	0.1396303901437372	-0.4073319755600814	0.5640495867768596
4496.124267578125	-0.1434448886116459	-9.786380513984433	-2.218503712945139	0.0001487436565990006	-1.487287822333407	-0.01487436565990006	0.1437371663244353	-0.415478615071283	0.5723140495867769
4515.655517578125	-0.2597195201101542	-9.767309311502283	-2.009349329661528	0.3696569136155852	-0.01837271520790595	-0.733807303587505	0.1581108829568789	-0.4256619144602851	0.5578512396694215
4535.186767578125	-0.4037787421700088	-9.810555126634968	-2.540708594333043	-0.7174094237867555	-0.007282420507461989	-0.7228257372664771	0.1581108829568789	-0.4195519348268839	0.5702479338842975
4554.718017578125	-0.279186556270657	-9.623603653194179	-2.360448124311438	-1.086843221917442	-2.219841438799667	-0.01132998216882224	0.1560574948665298	-0.4297352342158859	0.5537190082644629
4574.249267578125	-0.4196110378134461	-9.775674235559679	-2.012965406218464	-1.086880407831592	-1.848019483216315	-0.007611390753847227	0.1581108829568789	-0.4175152749490835	0.5681818181818182
4593.780517578125	-0.1596115583013483	-9.458274403850771	-2.012948056621723	-0.362243888058331	-1.111769101849907	-0.007495252137915762	0.1581108829568789	-0.4093686354378818	0.5681818181818182
4613.311767578125	-0.1023365963718839	-9.769755499493575	-1.922113454270537	0.007115538244056207	1.844433827609001	-0.7115538244056206	0.1581108829568789	-0.4256619144602851	0.5723140495867769
4632.843017578125	-0.5231770896997811	-9.602493925669595	-2.227430343340633	-0.0001487436565990006	1.487287822333407	0.01487436565990006	0.1540041067761807	-0.4195519348268839	0.5702479338842975
4652.374267578125	-0.3284617768668364	-9.736202641186946	-2.051274104438789	-0.003576362079102979	-0.7363059360128246	0.3576362079102978	0.1663244353182751	-0.4093686354378818	0.5537190082644629
4671.905517578125	-0.09532183896262031	-9.817487394597913	-2.15593870124599	-0.3621695162300315	-1.855413013016611	-0.0149324349678658	0.1498973305954825	-0.4195519348268839	0.5516528925619835
4691.436767578125	-0.2458043549065054	-9.646143408086436	-2.13985483644982	0.0001859295707487508	-1.859109777916759	-0.01859295707487508	0.1437371663244353	-0.4175152749490835	0.5475206611570248
4710.968017578125	0.02119332103614945	-9.786480826198312	-2.373110701204982	0.3584444104943295	2.606394899337194	0.3874430085380637	0.1498973305954825	-0.4012219959266802	0.5537190082644629
4730.499267578125	-0.4878123025990485	-9.684392644507026	-2.072923246698385	0.3584815964084793	2.234572943753842	0.3837244171230887	0.1457905544147844	-0.4175152749490835	0.5702479338842975
4750.030517578125	-0.4809876021358932	-9.675519324690605	-1.967079928803564	0.00379947756400148	-1.494625797487286	-0.3799477564001479	0.1314168377823409	-0.4317718940936863	0.5661157024793388
4769.561767578125	-0.4215486723221095	-9.746300737384148	-1.948377589263018	7.437182829950031e-05	-0.7436439111667036	-0.007437182829950031	0.1683778234086242	-0.4032586558044806	0.5537190082644629
4789.093017578125	-0.7086300837275767	-9.68245706040525	-2.045663875747445	-0.3549796061576758	-0.7546230965743135	-0.7339234422034364	0.1663244353182751	-0.4175152749490835	0.5640495867768596
4808.624267578125	-0.2590129183520091	-9.607080843600482	-2.032902721599696	-0.003501990250803478	-1.479949847179528	0.3501990250803478	0.1540041067761807	-0.415478615071283	0.5661157024793388
4828.155517578125	-0.07456698955317695	-9.697443326622196	-2.181100348227436	3.718591414975016e-05	-0.3718219555833518	-0.003718591414975016	0.1745379876796715	-0.415478615071283	0.5867768595041323
4847.686767578125	-0.2543009256009862	-9.52222396594432	-2.52330247996713	0.003576362079102979	0.7363059360128246	-0.3576362079102978	0.1396303901437372	-0.415478615071283	0.5743801652892562
4867.218017578125	-0.5290862046258757	-9.801071206162367	-2.363793179137478	-1.804289831618348	-1.855301903723777	-0.7304371280203243	0.1540041067761807	-0.4175152749490835	0.5599173553719008
4886.749267578125	-0.1553916632033192	-9.746909971102406	-2.153611226556029	-0.003353246594204478	-2.967237669512935	0.3353246594204478	0.1416837782340863	-0.4134419551934826	0.5702479338842975
4906.280517578125	0.02418770370989581	-9.748845975800466	-2.139590123663194	-0.365968993794033	-0.3607872155293249	0.3650153214322821	0.1704312114989733	-0.4032586558044806	0.5681818181818182
4925.811767578125	-0.2224163098827247	-9.668581273528748	-1.919456337242513	-0.3588906414641265	1.855468567663028	-0.3428199115583635	0.1560574948665298	-0.4276985743380855	0.5702479338842975
4945.343017578125	-0.2155364061572142	-9.626356771324167	-2.148786461426194	0.007264281900655208	0.3571460052755938	-0.7264281900655207	0.1683778234086242	-0.4276985743380855	0.5599173553719008
4964.874267578125	-0.2550926981067647	-9.695813305721188	-2.163576729774511	0.7209857858658586	0.7435883565202867	0.3651895293561793	0.1416837782340863	-0.4297352342158859	0.5661157024793388
4984.405517578125	-0.2978066166630259	-9.272957472721046	-2.406446111232471	0.0001487436565990006	-1.487287822333407	-0.01487436565990006	0.162217659137577	-0.4297352342158859	0.5764462809917356
5003.936767578125	-0.1169173551959282	-9.797803278180018	-2.102754826802393	-0.7174466097009052	0.3645395350758898	-0.7191071458515021	0.1437371663244353	-0.415478615071283	0.5619834710743802
5023.468017578125	-0.3335444200936721	-9.854512695830287	-2.215185996877598	-0.7209485999517089	-1.115410312103638	-0.3689081207711543	0.1498973305954825	-0.4276985743380855	0.5619834710743802
5042.999267578125	-0.2185560246080372	-9.717333114623266	-2.048132513065429	-0.003576362079102979	-0.7363059360128246	0.3576362079102978	0.1601642710472279	-0.4134419551934826	0.5475206611570248
5062.530517578125	-0.3304341105689801	-9.613507029083971	-2.318862981033999	-0.00379947756400148	1.494625797487286	0.3799477564001479	0.1457905544147844	-0.4215885947046843	0.5413223140495868
5082.061767578125	-0.3731598583957459	-9.673988354214623	-2.228004720141804	-0.358518782322629	-1.86275098817049	-0.3800058257081136	0.1519507186858316	-0.4195519348268839	0.5743801652892562
5101.593017578125	-0.2263822699739205	-9.759863600624902	-1.787257667535987	-0.362243888058331	-1.111769101849907	-0.007495252137915762	0.1724845995893224	-0.4276985743380855	0.5805785123966942
5121.124267578125	-0.1524169959804139	-9.625948162033668	-2.25276680065287	-0.36239263171493	0.3755187204834998	0.007379113521984299	0.1683778234086242	-0.4093686354378818	0.5702479338842975
5140.655517578125	-0.2435071105745004	-9.915400632419088	-2.216429647516655	0.003650733907402479	-0.007337975153878983	-0.3650733907402479	0.1519507186858316	-0.4215885947046843	0.5681818181818182
5160.186767578125	-0.1002025959728432	-9.509065506031218	-1.993246800905228	0.003650733907402479	-0.007337975153878983	-0.3650733907402479	0.1581108829568789	-0.4195519348268839	0.5743801652892562
5179.718017578125	-0.2782804341499999	-9.666644007041834	-2.05731886166667	-0.003687919821552229	0.3791599307372308	0.3687919821552229	0.1704312114989733	-0.4032586558044806	0.5681818181818182
5199.249267578125	-0.3146073352517781	-9.785056371731407	-2.179755491607395	-1.08714070923064	0.7547342058671476	0.01841874915097788	0.1663244353182751	-0.4175152749490835	0.5537190082644629
5218.780517578125	-0.1204464208964852	-9.548944342756531	-1.985119303450493	-0.003576362079102979	-0.7363059360128246	0.3576362079102978	0.1478439425051335	-0.4195519348268839	0.5785123966942149
5238.311767578125	-0.02062472743389214	-9.470001995203626	-1.979175752203596	0.3661549233647818	-1.498322562387434	-0.3836082785071572	0.1375770020533881	-0.4256619144602851	0.5578512396694215
5257.843017578125	-0.2715968963148668	-9.91448299647514	-2.280103456171107	0.003650733907402479	-0.007337975153878983	-0.3650733907402479	0.1498973305954825	-0.4276985743380855	0.5516528925619835
5277.374267578125	-0.2654772203737892	-9.645837634587526	-2.150759320873694	0.3514776159068723	-0.7253267506052147	1.084122467283784	0.1478439425051335	-0.4175152749490835	0.5661157024793388
5296.905517578125	-0.1371753752441759	-9.617686704662283	-2.094154158527471	-0.7246737056874109	-0.3644284257830558	0.003602452799043552	0.1478439425051335	-0.4317718940936863	0.5661157024793388
5316.436767578125	-0.3268395895716306	-9.765678133961496	-2.105347014278981	-0.7174466097009052	0.3645395350758898	-0.7191071458515021	0.1560574948665298	-0.4297352342158859	0.5847107438016529
5335.968017578125	-0.3558607332097306	-9.775061637071147	-2.137975559675647	-0.7172606801301565	-1.494570242840869	-0.7377001029263772	0.1663244353182751	-0.4276985743380855	0.5619834710743802
5355.499267578125	-0.3194439296521169	-9.716620203920851	-2.018535678262769	0.3622067021441813	1.483591057433259	0.01121384355289078	0.1498973305954825	-0.4236252545824847	0.5475206611570248
5375.030517578125	-0.2339474827706675	-9.625643019429184	-2.201750574311083	0.007152724158205957	1.472611872025649	-0.7152724158205956	0.1581108829568789	-0.415478615071283	0.5640495867768596
5394.561767578125	-0.3495115694208626	-9.729675407446081	-2.682947685971247	0.3698056572721842	-1.505660537541313	-0.7486816692474051	0.1540041067761807	-0.4175152749490835	0.5599173553719008
5414.093017578125	-0.6309046789496555	-9.600659179527057	-2.303177368344819	-0.7282500677665138	-1.10073436179588	0.3612386607093414	0.1601642710472279	-0.4012219959266802	0.5557851239669421
5433.624267578125	-0.03054948538730216	-9.656544333608561	-2.315017153756595	-1.086806036003293	-2.591663394383019	-0.01504857358379726	0.1704312114989733	-0.4093686354378818	0.5537190082644629
5453.155517578125	-0.1787142529303075	-9.627784275114134	-2.042858235656418	-0.7209857858658586	-0.7435883565202867	-0.3651895293561793	0.1745379876796715	-0.4134419551934826	0.5454545454545454
5472.686767578125	-0.02645892364679061	-9.718555051979129	-2.118035878440313	-1.079764869587536	-0.003585655607314001	-0.7191652151594679	0.1581108829568789	-0.4114052953156823	0.5661157024793388
5492.218017578125	-0.139924497709459	-9.678575587592723	-2.002516743018036	-0.3623182598866305	-0.3681251906832038	-5.806930796573191e-05	0.1704312114989733	-0.4215885947046843	0.5661157024793388
5511.749267578125	-0.1272821620121116	-9.831154565717251	-1.757261266262947	0.3514404299927226	-0.3535047950218628	1.087841058698759	0.1745379876796715	-0.4093686354378818	0.5475206611570248
5531.280517578125	-0.204980753776889	-9.439610443721193	-1.833974874103703	1.090531141738995	1.840681508062436	-0.3574619999864007	0.1581108829568789	-0.4297352342158859	0.5826446280991736
5550.811767578125	-0.4297605519064447	-9.812289245116416	-2.341314936451845	0.3693594263023872	2.956202929458909	-0.7040585722677049	0.1642710472279261	-0.4215885947046843	0.5681818181818182
5570.343017578125	-0.5012361587677372	-9.642066358001568	-2.292128041075433	-0.3585559682367788	-1.490929032587138	-0.3762872342931387	0.1704312114989733	-0.4276985743380855	0.5661157024793388
5589.874267578125	-0.2125025925817857	-9.755375838268112	-2.249913580607146	-0.01080345806560844	-1.46527389687177	1.080345806560844	0.1663244353182751	-0.4073319755600814	0.5681818181818182
5609.405517578125	0.04373596752786384	-9.595858703832658	-2.457865584262128	-0.362243888058331	-1.111769101849907	-0.007495252137915762	0.1560574948665298	-0.4358452138492871	0.5681818181818182
5628.936767578125	-0.1897304582422809	-9.788012848165003	-2.008984725257306	-0.3588906414641265	1.855468567663028	-0.3428199115583635	0.1560574948665298	-0.4012219959266802	0.5599173553719008
5648.468017578125	-0.529471050226294	-9.614528972906502	-2.017631659123535	-0.7175581674433545	1.480005401825945	-0.7079513716065771	0.1601642710472279	-0.4236252545824847	0.5516528925619835
5667.999267578125	-0.1571494928003117	-9.837478336005434	-2.095016906656278	0.3550167920718256	0.3828011409909618	0.7302048507884614	0.162217659137577	-0.4236252545824847	0.5681818181818182
5687.530517578125	-0.5349140918945051	-9.702955556379223	-2.169530270183167	-0.7172234942160068	-1.866392198424221	-0.7414186943413522	0.1560574948665298	-0.4175152749490835	0.5805785123966942
5707.061767578125	-0.2138692676340908	-9.685817729868356	-2.20435774553031	-1.442045943560017	-0.7435328018738696	-0.7229418758824087	0.1375770020533881	-0.4256619144602851	0.5557851239669421
5726.593017578125	-0.4712789255237016	-9.695713519252664	-1.957369149209949	-0.3622810739724808	-0.7399471462665556	-0.003776660722940747	0.1642710472279261	-0.415478615071283	0.5785123966942149
5746.124267578125	-0.05562990471128301	-9.627987002523316	-2.145669842957234	-0.007189910072355707	-1.100789916442297	0.7189910072355706	0.1540041067761807	-0.4236252545824847	0.5599173553719008
5765.655517578125	-0.1467491981726143	-9.687448907409147	-2.108360060912857	-0.0001115577424492505	1.115465866750055	0.01115577424492505	0.1519507186858316	-0.4195519348268839	0.5599173553719008
5785.186767578125	-0.36065631947232	-9.453278876629385	-2.311456017589336	0.003539176164953228	1.108127891596177	-0.3539176164953228	0.1560574948665298	-0.4317718940936863	0.5764462809917356
5804.718017578125	-0.2004603952080414	-9.718148861117266	-1.984653493065287	-0.003687919821552229	0.3791599307372308	0.3687919821552229	0.1457905544147844	-0.415478615071283	0.5537190082644629
5824.249267578125	-0.3408344051966775	-9.76353645768026	-2.30551982677742	0.358518782322629	1.86275098817049	0.3800058257081136	0.1765913757700205	-0.4195519348268839	0.5640495867768596
5843.780517578125	-0.4474602950535512	-9.724678828733982	-2.084656831548296	0.358518782322629	1.86275098817049	0.3800058257081136	0.1560574948665298	-0.4073319755600814	0.5557851239669421
5863.311767578125	-0.5389399869562578	-9.75425726244919	-2.035333768124743	-0.72478526342986	0.7510374409669995	0.0147582270439686	0.1704312114989733	-0.4175152749490835	0.5557851239669421
5882.843017578125	-0.2327464175054277	-9.795254674993423	-2.241786083152411	-0.362095144401732	-2.599056924183315	-0.02236961779781583	0.1581108829568789	-0.4317718940936863	0.5723140495867769
5902.374267578125	-0.1279777231177857	-9.71804613047475	-2.067409229407146	0.3695081699589862	1.468915107125501	-0.7189329379276049	0.1601642710472279	-0.4297352342158859	0.5454545454545454
5921.905517578125	-0.4123108006760034	-9.803313825551909	-2.25630664413322	3.718591414975016e-05	-0.3718219555833518	-0.003718591414975016	0.1663244353182751	-0.4256619144602851	0.5516528925619835
5941.436767578125	-0.5837737107869542	-9.812086833154448	-2.207542973768198	-1.08322967392419	-1.855357458370194	-0.3726847814940951	0.1786447638603696	-0.4175152749490835	0.5599173553719008
5960.968017578125	0.08292239761963532	-9.349855091436318	-2.097413253987844	-0.728212881852364	-1.472556317379232	0.3575200692943664	0.1519507186858316	-0.4093686354378818	0.5764462809917356
5980.499267578125	-0.2345042471024202	-9.885823039896449	-2.18319176325266	-0.3623182598866305	-0.3681251906832038	-5.806930796573191e-05	0.1540041067761807	-0.4317718940936863	0.5599173553719008
6000.06103515625	-0.324991068900769	-9.52508044561125	-2.166964369974367	-0.3624298176290798	0.7473406760668516	0.01109770493695932	0.1683778234086242	-0.4378818737270875	0.5661157024793388
6019.561767578125	-0.2381539713621248	-9.767003117407087	-2.061534287929176	-0.3659318078798833	-0.7326091711126765	0.3612967300173071	0.1581108829568789	-0.4134419551934826	0.5578512396694215
6039.093017578125	-0.1791511473209463	-9.967925537633773	-2.028295089301792	0.003725105735701979	-0.7509818863205826	-0.3725105735701979	0.1581108829568789	-0.4215885947046843	0.5702479338842975
6058.624267578125	-0.5106688190681533	-9.455116251498703	-1.977706031061561	0.3585559682367788	1.490929032587138	0.3762872342931387	0.1396303901437372	-0.415478615071283	0.5681818181818182
6078.155517578125	-0.603236015239255	-9.741712978260693	-2.225466158691504	0.003687919821552229	-0.3791599307372308	-0.3687919821552229	0.1457905544147844	-0.4195519348268839	0.5743801652892562
6097.686767578125	-0.2512473965747165	-9.734569991559159	-2.291753447509452	0.3587790837216773	-0.7400027009129726	0.3539756858032885	0.1642710472279261	-0.4134419551934826	0.5681818181818182
6117.218017578125	-0.4291146737368903	-9.822080411174928	-2.362844208770326	-0.717335051958456	-0.7509263316741656	-0.7302629200964272	0.1560574948665298	-0.4236252545824847	0.5681818181818182
6136.749267578125	-0.5409880279896313	-9.791586129049982	-2.300399067012292	7.437182829950031e-05	-0.7436439111667036	-0.007437182829950031	0.1601642710472279	-0.415478615071283	0.5702479338842975
6156.280517578125	-0.136650155633769	-9.757516883654919	-2.111661478874368	-1.083266859838339	-1.483535502786842	-0.3689661900791201	0.1642710472279261	-0.4256619144602851	0.5723140495867769
6175.811767578125	-0.1297402844229801	-9.73528269196343	-2.341990519233999	-0.3660061797081828	0.01103474005402697	0.3687339128472572	0.1683778234086242	-0.4236252545824847	0.5661157024793388
6195.343017578125	-0.02874197285419005	-9.669293237889523	-2.041934238193665	0.362243888058331	1.111769101849907	0.007495252137915762	0.1437371663244353	-0.4276985743380855	0.5475206611570248
6214.874267578125	-0.07594864834812126	-9.617890062965893	-2.135045055062625	0.362095144401732	2.599056924183315	0.02236961779781583	0.1560574948665298	-0.4073319755600814	0.5413223140495868
6234.405517578125	-0.2923004855521233	-9.717843823661852	-1.923317148262556	0.003613547993252729	0.3644839804294728	-0.3613547993252729	0.1540041067761807	-0.4175152749490835	0.5619834710743802
6253.936767578125	-0.2317992872470212	-9.584948436209871	-2.27335709176596	-0.3622067021441813	-1.483591057433259	-0.01121384355289078	0.1560574948665298	-0.4114052953156823	0.5578512396694215
6273.468017578125	-0.1309113822029414	-9.585661346912284	-2.302953926568621	-0.003762291649851729	1.122803841903934	0.3762291649851729	0.1581108829568789	-0.4073319755600814	0.5516528925619835
6292.999267578125	-0.2759516450966491	-9.535891031914582	-2.13494516344503	0.7211717154366073	-1.115521421396473	0.3465965722813042	0.1663244353182751	-0.4358452138492871	0.5599173553719008
6312.530517578125	-0.247756973157808	-9.606774754654358	-2.0747675614064	0.7137215039652034	0.3864423512446928	1.0916177194217	0.1498973305954825	-0.4215885947046843	0.5661157024793388
6332.061767578125	-0.1517356299993455	-9.519061187033122	-1.942145666688485	0.7174094237867555	0.007282420507461989	0.7228257372664771	0.1663244353182751	-0.4012219959266802	0.5578512396694215
6351.593017578125	-0.197501500345809	-9.797192151778479	-2.083283321806366	0.3695081699589862	1.468915107125501	-0.7189329379276049	0.1765913757700205	-0.415478615071283	0.5681818181818182
6371.124267578125	-0.3989366274434345	-9.742322842873376	-2.368779085218853	0.7243762183742128	3.33900407044987	0.02614627852075657	0.1786447638603696	-0.4256619144602851	0.5640495867768596
6390.655517578125	-0.3033805689248218	-9.554759717285693	-2.220647702505939	-0.003613547993252729	-0.3644839804294728	0.3613547993252729	0.162217659137577	-0.4114052953156823	0.5681818181818182
6410.186767578125	-0.1321534556059308	-9.669396283979252	-1.928218146468976	-0.362243888058331	-1.111769101849907	-0.007495252137915762	0.1498973305954825	-0.4378818737270875	0.5599173553719008
6429.718017578125	0.03039728210680884	-9.540171545452132	-2.013242736893628	-0.7135355743944546	-2.245552129161452	-1.110210676496575	0.1663244353182751	-0.4215885947046843	0.5557851239669421
6449.249267578125	-0.1392936032825438	-9.678371598394689	-2.023546557248543	-1.453221260767123	1.509412857087878	0.394589844828185	0.1519507186858316	-0.4114052953156823	0.5764462809917356
6468.780517578125	-0.3600214819552365	-9.736406945832195	-1.999283934825451	1.082969372525141	4.458111147453657	0.3987149213989202	0.1540041067761807	-0.4114052953156823	0.5702479338842975
6488.311767578125	-0.301576999481878	-9.284176563165808	-2.280766683937402	0.3623554458007803	-0.003696764900147988	-0.003660522107009284	0.1396303901437372	-0.4276985743380855	0.5599173553719008
6507.843017578125	-0.276523393171041	-9.786075897125304	-2.115886894298633	-0.7245621479449615	-1.479894292533111	-0.007553321445881495	0.1601642710472279	-0.4093686354378818	0.5805785123966942
6527.374267578125	-0.0549240915711716	-9.677758789608012	-2.169196947627614	0.7210229717800084	0.3717664009369348	0.3614709379412043	0.1540041067761807	-0.4175152749490835	0.5785123966942149
6546.905517578125	-0.2484935424012315	-9.747012912043065	-2.050215253292283	0.7209114140375591	1.48723226768699	0.3726267121861294	0.1560574948665298	-0.4338085539714867	0.5661157024793388
6566.436767578125	-0.19938235435605	-9.31446696124179	-2.353921521465	-0.007189910072355707	-1.100789916442297	0.7189910072355706	0.1663244353182751	-0.4338085539714867	0.5619834710743802
6585.968017578125	-0.2054972985889258	-9.656444126543754	-2.150090047035808	-0.007487397385553709	1.873785728224517	0.7487397385553708	0.1601642710472279	-0.4073319755600814	0.5702479338842975
6605.499267578125	-0.09897708354856036	-9.835335923680701	-2.367430548381322	0.007301467814804958	-0.01467595030775797	-0.7301467814804957	0.1273100616016427	-0.4032586558044806	0.5475206611570248
6625.030517578125	-0.5455990776323479	-9.663077035101127	-2.146697412255071	0.7172978660443063	1.122748287257517	0.7339815115114022	0.1704312114989733	-0.4073319755600814	0.5826446280991736
6644.561767578125	-0.6059094303733082	-9.642577382487371	-2.136352320889729	-0.007152724158205957	-1.472611872025649	0.7152724158205956	0.1437371663244353	-0.405295315682281	0.5599173553719008
6664.093017578125	-0.07408672117068774	-9.80728803984519	-2.19710929431041	-0.7210601576941581	5.555464641699391e-05	-0.3577523465262293	0.1642710472279261	-0.4175152749490835	0.5702479338842975
6683.624267578125	-0.2936782012568995	-9.921622618406397	-2.544059958103353	0.007264281900655208	0.3571460052755938	-0.7264281900655207	0.1519507186858316	-0.4236252545824847	0.5330578512396694
6703.155517578125	-0.1243879338286381	-9.796885431937927	-2.187068872378732	-1.086991965574041	-0.7325536164662596	0.003544383491077821	0.1581108829568789	-0.3971486761710794	0.5578512396694215
6722.686767578125	0.01592140948123916	-9.638185410934399	-2.197380316041305	-1.090605513567294	-1.097037596895733	0.3648991828163506	0.1478439425051335	-0.4032586558044806	0.5495867768595042
6742.218017578125	-0.1912785154423241	-10.01851338665969	-1.957382818589199	-0.3625785612856788	2.234628498400259	0.02597207059685937	0.1519507186858316	-0.4236252545824847	0.5681818181818182
6761.749267578125	-0.6036366332003462	-9.755175844734778	-1.878778893321798	-0.369694099529735	0.3901946707912577	0.73752589500248	0.1642710472279261	-0.4195519348268839	0.5599173553719008
6781.280517578125	-0.318526766878989	-9.486323654624206	-2.049107770700369	0.3549796061576758	0.7546230965743135	0.7339234422034364	0.162217659137577	-0.4297352342158859	0.5599173553719008
6800.811767578125	-0.4557565567674863	-9.594027953354821	-2.141448107750459	0.358667525979228	0.3754631658370828	0.3651314600482136	0.1519507186858316	-0.4012219959266802	0.5557851239669421
6820.343017578125	-0.3175362626287321	-9.726003391583291	-2.082124579042266	0.36239263171493	-0.3755187204834998	-0.007379113521984299	0.1519507186858316	-0.4175152749490835	0.5743801652892562
6839.874267578125	-0.4171016552303908	-9.554862868524493	-2.096611492320306	0.3478268819994699	-0.7179887754513357	1.449195858024032	0.1601642710472279	-0.4338085539714867	0.5557851239669421
6859.405517578125	-0.3600861486339954	-9.623094521391659	-2.330461712200158	-0.003539176164953228	-1.108127891596177	0.3539176164953228	0.1560574948665298	-0.4073319755600814	0.5537190082644629
6878.936767578125	0.04778236665849132	-9.417883701447089	-2.259412221949711	-0.007152724158205957	-1.472611872025649	0.7152724158205956	0.1601642710472279	-0.4175152749490835	0.5537190082644629
6898.468017578125	-0.0153985557249332	-9.798312199684396	-2.15338147583556	0.7172606801301565	1.494570242840869	0.7377001029263772	0.1601642710472279	-0.4276985743380855	0.5433884297520661
6917.999267578125	-0.2182413660126132	-9.927231375010745	-2.058621132912895	0.3656343205666853	3.707184815779491	-0.331547998697507	0.1540041067761807	-0.4236252545824847	0.5702479338842975
6937.530517578125	-0.4541044019870021	-9.643493756642464	-2.1965199337666	0.727915394539166	4.447131962046047	-0.3277713379745663	0.1601642710472279	-0.4175152749490835	0.5599173553719008
6957.061767578125	-0.3532764319134791	-9.604226046318692	-2.224118936217362	0.3585559682367788	1.490929032587138	0.3762872342931387	0.1540041067761807	-0.4276985743380855	0.5640495867768596
6976.593017578125	-0.3536526027155273	-9.774347674878021	-2.211579909482422	-0.358667525979228	-0.3754631658370828	-0.3651314600482136	0.1642710472279261	-0.4276985743380855	0.5723140495867769
6996.124267578125	-0.5269324887759939	-9.623708171370906	-2.102250374133539	0.003501990250803478	1.479949847179528	-0.3501990250803478	0.1663244353182751	-0.4073319755600814	0.5599173553719008
7015.655517578125	-0.504780996828967	-9.593212522308033	-2.17396677236777	-0.3585931541509285	-1.119107077003786	-0.3725686428781636	0.1560574948665298	-0.4317718940936863	0.5537190082644629
7035.186767578125	-0.2944983640118892	-9.655221137697179	-2.18338786627036	-1.815279219254705	-1.461466022678788	0.3685016356153942	0.1457905544147844	-0.4419551934826884	0.5599173553719008
7054.718017578125	-0.2840089555463901	-9.775162895626664	-2.199701481786998	-0.7318636157597666	-1.465218342225353	0.7225934600346142	0.1560574948665298	-0.4012219959266802	0.5702479338842975
7074.249267578125	-0.01460205151095273	-9.698054663321876	-2.179931616301576	-0.3697684713580345	1.133838581957961	0.7449630778324301	0.135523613963039	-0.415478615071283	0.5785123966942149
7093.780517578125	-0.272101611856399	-9.647979521166903	-1.929946271453368	-0.3661549233647818	1.498322562387434	0.3836082785071572	0.1642710472279261	-0.4195519348268839	0.5681818181818182
7113.311767578125	-0.2563552755786288	-9.906221539103758	-2.121490814045708	-0.3623182598866305	-0.3681251906832038	-5.806930796573191e-05	0.1560574948665298	-0.4236252545824847	0.5785123966942149
7132.843017578125	-0.3290019802198825	-9.586377306937763	-2.033267326003917	-0.003613547993252729	-0.3644839804294728	0.3613547993252729	0.1478439425051335	-0.4175152749490835	0.5661157024793388
7152.374267578125	-0.07337459908630717	-9.510391120371239	-1.887513363789762	0.3622810739724808	0.7399471462665556	0.003776660722940747	0.1498973305954825	-0.4093686354378818	0.5702479338842975
7171.905517578125	-0.4561918739220577	-9.514168705901467	-2.126937535931409	0.3694337981306867	2.212559018292205	-0.7114957550976549	0.1416837782340863	-0.4195519348268839	0.5764462809917356
7191.436767578125	-0.4052897343224707	-9.504377014097599	-2.157008855917645	-0.3551655357284246	1.104486681342445	-0.7153304851285613	0.1560574948665298	-0.4175152749490835	0.5681818181818182
7210.968017578125	-0.1121998421186697	-9.576277948951704	-2.260005262711011	0.007338653728954708	-0.3864979058911098	-0.7338653728954707	0.1540041067761807	-0.4134419551934826	0.5557851239669421
7230.499267578125	-0.405986872664212	-9.811269088828094	-2.467104244526268	-0.3551283498142748	0.7326647257590937	-0.7190490765435364	0.1560574948665298	-0.4358452138492871	0.5599173553719008
7250.030517578125	-0.4613652082227626	-9.782508083992026	-2.287826392574583	-0.7245249620308118	-1.851716248116463	-0.01127191286085651	0.162217659137577	-0.4195519348268839	0.5743801652892562
7269.561767578125	0.1686175762455631	-9.672146983680602	-1.953919208185434	-0.7245249620308118	-1.851716248116463	-0.01127191286085651	0.1601642710472279	-0.4276985743380855	0.5702479338842975
7289.093017578125	-0.09614831066187926	-9.897754620447341	-2.128389644604026	-0.728361625508963	0.01473150495417496	0.3723944349542664	0.1519507186858316	-0.4093686354378818	0.5702479338842975
7308.624267578125	-0.06901906168649123	-9.678982829945298	-2.032697943783626	-0.7247108916015605	0.007393529800295976	0.007321044214018567	0.1396303901437372	-0.4093686354378818	0.5785123966942149
7328.155517578125	0.01115973379409655	-9.619725019406577	-2.038657793136552	-0.3590393851207255	3.342756389996435	-0.3279455458984634	0.162217659137577	-0.4236252545824847	0.5599173553719008
7347.686767578125	-0.4230115587745191	-9.963440404003762	-2.232948040849362	-0.358816269635827	1.111824656496325	-0.3502570943883135	0.1601642710472279	-0.4093686354378818	0.5599173553719008
7367.218017578125	-0.5020026954964391	-9.762314204877182	-2.266576816785367	-0.3587047118933778	-0.003641210253730994	-0.3614128686332386	0.1745379876796715	-0.4236252545824847	0.5661157024793388
7386.749267578125	-0.4544648004283774	-9.613610285471843	-2.184506652387423	-0.7245621479449615	-1.479894292533111	-0.007553321445881495	0.1375770020533881	-0.4215885947046843	0.5743801652892562
7406.280517578125	-0.4796808620541451	-9.705096812064172	-2.010637931528502	-0.3659318078798833	-0.7326091711126765	0.3612967300173071	0.1519507186858316	-0.4093686354378818	0.5619834710743802
7425.811767578125	-0.1487672717207094	-9.744768084523029	-2.374424275976355	-0.7244505902025123	-2.595360159283167	-0.01870909569080654	0.1540041067761807	-0.4236252545824847	0.5599173553719008
7445.343017578125	-0.26873657870684	-9.576891493781879	-2.042114043105336	-0.3587047118933778	-0.003641210253730994	-0.3614128686332386	0.1540041067761807	-0.4215885947046843	0.5640495867768596
7464.874267578125	-0.309319651336195	-9.733346687265371	-2.356011622126835	-0.3660061797081828	0.01103474005402697	0.3687339128472572	0.1663244353182751	-0.405295315682281	0.5599173553719008
7484.405517578125	-0.3079332608330488	-9.886231754336018	-2.068891305565041	-0.7210601576941581	5.555464641699391e-05	-0.3577523465262293	0.1601642710472279	-0.4114052953156823	0.5599173553719008
7503.936767578125	-0.1552268420342876	-9.856856678924419	-2.159105265523749	0.003687919821552229	-0.3791599307372308	-0.3687919821552229	0.1519507186858316	-0.4175152749490835	0.5557851239669421
7523.468017578125	-0.2434913382138275	-9.715395532689138	-2.216955392872418	-0.3660061797081828	0.01103474005402697	0.3687339128472572	0.1478439425051335	-0.4114052953156823	0.5723140495867769
7542.999267578125	0.005506919728936204	-9.568219429287643	-2.18356399096454	-0.7247108916015605	0.007393529800295976	0.007321044214018567	0.1601642710472279	-0.4114052953156823	0.5516528925619835
7562.530517578125	-0.3377051688391779	-9.815858004591334	-2.076494372027403	0.3585559682367788	1.490929032587138	0.3762872342931387	0.1683778234086242	-0.4114052953156823	0.5516528925619835
7582.061767578125	-0.1850571077749064	-9.326501798180553	-2.164763074169789	0.0001115577424492505	-1.115465866750055	-0.01115577424492505	0.1704312114989733	-0.415478615071283	0.5578512396694215
7601.593017578125	-0.4200313712253784	-9.705810143362871	-1.998954292487388	-0.3660433656223325	0.3828566956373787	0.3724525042622321	0.1663244353182751	-0.4256619144602851	0.5785123966942149
7621.124267578125	-0.1585153792345831	-9.557919972619182	-2.04948735884723	0.3586303400650783	0.7472851214204346	0.3688500514631886	0.1786447638603696	-0.415478615071283	0.5640495867768596
7640.655517578125	-0.428658852513444	-9.77526636231268	-2.044704916218534	0.007189910072355707	1.100789916442297	-0.7189910072355706	0.1437371663244353	-0.4236252545824847	0.5702479338842975
7660.186767578125	-0.2642154315199587	-9.645429656191453	-2.192818949334709	0.007227095986505457	0.7289679608589457	-0.7227095986505457	0.1457905544147844	-0.4134419551934826	0.5723140495867769
7679.718017578125	-0.3060752767457836	-9.79229767281447	-2.464157441807218	0.3587790837216773	-0.7400027009129726	0.3539756858032885	0.1601642710472279	-0.415478615071283	0.5475206611570248
7699.249267578125	-0.3357422985534381	-9.791890009865611	-2.475256714885402	-0.7246737056874109	-0.3644284257830558	0.003602452799043552	0.1560574948665298	-0.395112016293279	0.5640495867768596
7718.780517578125	-0.233572100586653	-9.665521645856353	-2.214263313778235	-1.094181875646397	-1.833343532908557	0.7225353907266485	0.1540041067761807	-0.4317718940936863	0.5537190082644629
7738.311767578125	-0.04864038307909604	-9.729060390528909	-2.045320564030133	-1.086917593745742	-1.476197527632963	-0.00389279933887221	0.162217659137577	-0.4134419551934826	0.5619834710743802
7757.843017578125	-0.096749237603516	-9.917948920158469	-2.108358746549468	-0.3551283498142748	0.7326647257590937	-0.7190490765435364	0.1581108829568789	-0.4073319755600814	0.5599173553719008
7777.374267578125	-0.7200216712235646	-9.802807007028953	-1.999277625881182	-0.358667525979228	-0.3754631658370828	-0.3651314600482136	0.1457905544147844	-0.4093686354378818	0.5537190082644629
7796.905517578125	-0.2755313116847168	-9.605755124111392	-2.148956277176106	0.36239263171493	-0.3755187204834998	-0.007379113521984299	0.1581108829568789	-0.4236252545824847	0.5743801652892562
7816.436767578125	-0.08803027662354768	-9.488463122774949	-2.065657445881745	0.7245993338591113	1.108072336949759	0.003834730030906479	0.162217659137577	-0.4114052953156823	0.5681818181818182
7835.968017578125	-0.2986291452721166	-9.636556756971318	-2.045695157596113	0.007152724158205957	1.472611872025649	-0.7152724158205956	0.1683778234086242	-0.415478615071283	0.5619834710743802
7855.499267578125	-0.4332588615036896	-9.373420365219527	-2.224704616543681	-0.7209857858658586	-0.7435883565202867	-0.3651895293561793	0.1519507186858316	-0.4215885947046843	0.5537190082644629
7875.030517578125	-0.1822046763472159	-9.755579512018933	-2.25984412175947	-0.3658946219657335	-1.104431126696028	0.3575781386023321	0.1663244353182751	-0.405295315682281	0.5702479338842975
7894.561767578125	-0.3970439441626888	-9.741710875279269	-2.431868527910375	3.718591414975016e-05	-0.3718219555833518	-0.003718591414975016	0.1704312114989733	-0.405295315682281	0.5537190082644629
7914.093017578125	-0.2888605336893681	-9.696731572559562	-2.037982210354397	-1.079616125930937	-1.490873477940721	-0.7340395808193679	0.1416837782340863	-0.4338085539714867	0.5681818181818182
7933.624267578125	-0.01016607507170511	-9.779953697606517	-1.994464164276497	-0.3514404299927226	0.3535047950218628	-1.087841058698759	0.1457905544147844	-0.4114052953156823	0.5537190082644629
7953.155517578125	-0.3807006240334501	-9.69642653510415	-1.976645865551666	0.7282872536806635	0.7289124062125286	-0.3649572521243164	0.1581108829568789	-0.4236252545824847	0.5702479338842975
7972.686767578125	-0.2546873484374717	-9.755682242661448	-2.177088385417611	-0.007264281900655208	-0.3571460052755938	0.7264281900655207	0.1704312114989733	-0.4073319755600814	0.5475206611570248
7992.218017578125	0.01553025493655173	-9.798311884237183	-2.184341831218391	-0.7209485999517089	-1.115410312103638	-0.3689081207711543	0.162217659137577	-0.4256619144602851	0.5681818181818182
8011.749267578125	-0.1344964397838871	-9.580153848863457	-1.850118673870429	-0.3697312854438847	0.7620166263746095	0.741244486417455	0.1519507186858316	-0.4073319755600814	0.5578512396694215
8031.280517578125	-0.2464052818481422	-9.666337707797567	-2.119823938395262	-0.7173722378726058	-0.3791043760908138	-0.7265443286814521	0.1663244353182751	-0.4073319755600814	0.5619834710743802
8050.811767578125	-0.3023143573433351	-9.634414975541011	-2.256188088555496	-0.007227095986505457	-0.7289679608589457	0.7227095986505457	0.1642710472279261	-0.4236252545824847	0.5599173553719008
8070.343017578125	-0.01210844128857033	-9.677248396016639	-2.263051957047656	-0.3550167920718256	-0.3828011409909618	-0.7302048507884614	0.1683778234086242	-0.4134419551934826	0.5640495867768596
8089.874267578125	-0.3522354561090691	-9.737222797475265	-1.925484796364366	-0.3551655357284246	1.104486681342445	-0.7153304851285613	0.1601642710472279	-0.4358452138492871	0.5557851239669421
8109.405517578125	-0.2250660664757686	-9.936104694827165	-2.164464450807716	-1.08714070923064	0.7547342058671476	0.01841874915097788	0.162217659137577	-0.4073319755600814	0.5557851239669421
8128.936767578125	-0.2784760114223436	-9.746707243693224	-2.050799619255213	-0.01087782989390794	-0.7216299857050666	1.087782989390794	0.1663244353182751	-0.4276985743380855	0.5661157024793388
8148.468017578125	-0.2559798933946142	-9.946100165530925	-2.134003553512859	-0.007301467814804958	0.01467595030775797	0.7301467814804957	0.1704312114989733	-0.4276985743380855	0.5557851239669421
8167.999267578125	-0.2886957125203365	-9.806678280381576	-2.043476249322117	-0.3513660581644231	-0.3901391161448408	-1.095278241528709	0.1683778234086242	-0.4215885947046843	0.5578512396694215
8187.530517578125	-0.1006536854880876	-9.629211358307815	-1.978210483730416	-0.3660805515364823	0.7546786512207306	0.3761710956772072	0.1724845995893224	-0.4215885947046843	0.5661157024793388
8207.061767578125	-0.3021495361743035	-9.744361683363024	-2.261682127523216	-0.362541375371529	1.862806542816907	0.02225347918188436	0.1519507186858316	-0.4195519348268839	0.5723140495867769
8226.593017578125	-0.4559671177824692	-9.664096034749667	-2.134429407251027	-0.3622067021441813	-1.483591057433259	-0.01121384355289078	0.1683778234086242	-0.4012219959266802	0.5681818181818182
8246.124267578125	-0.1406350425577722	-9.555471997093681	-2.31216524807426	-0.7171491223877073	-2.610036109590924	-0.7488558771713023	0.1663244353182751	-0.4114052953156823	0.5495867768595042
8265.655517578125	-0.1977712077133153	-9.617279357160639	-2.074293076222824	0	0	0	0.1601642710472279	-0.4175152749490835	0.5702479338842975
8285.186767578125	-0.3344300381454544	-9.684799045667031	-2.185665395151524	0.72478526342986	-0.7510374409669995	-0.0147582270439686	0.1540041067761807	-0.4073319755600814	0.5702479338842975
8304.718017578125	-0.1692658202692184	-9.614729281887048	-2.357805991026052	-0.3622067021441813	-1.483591057433259	-0.01121384355289078	0.1581108829568789	-0.3971486761710794	0.5578512396694215
8324.249267578125	0.04015012132888447	-9.800351460770328	-2.005004044296149	0.007189910072355707	1.100789916442297	-0.7189910072355706	0.1868583162217659	-0.4073319755600814	0.5578512396694215
8343.780517578125	-0.4779671950670365	-9.374542726405009	-2.067760164432118	-0.003687919821552229	0.3791599307372308	0.3687919821552229	0.1683778234086242	-0.4256619144602851	0.5537190082644629
8363.311767578125	-0.3292929802742972	-9.743138063622023	-2.356900657523429	-0.7318636157597666	-1.465218342225353	0.7225934600346142	0.1642710472279261	-0.4195519348268839	0.5537190082644629
8382.843017578125	-0.2277891645459414	-9.733651829869856	-2.407027848468622	-0.3622810739724808	-0.7399471462665556	-0.003776660722940747	0.1601642710472279	-0.4338085539714867	0.5599173553719008
8402.374267578125	-0.3764349890894695	-9.80504731313893	-2.118833697017683	-1.076039763851834	-0.7545675419278965	-1.091675788729666	0.1416837782340863	-0.4114052953156823	0.5640495867768596
8421.905517578125	-0.3347604691015512	-9.674905885009501	-2.174651029948295	-0.007227095986505457	-0.7289679608589457	0.7227095986505457	0.1498973305954825	-0.4114052953156823	0.5640495867768596
8441.436767578125	-0.125723852777631	-9.537317379064767	-2.142538240745633	0.3513660581644231	0.3901391161448408	1.095278241528709	0.1601642710472279	-0.4012219959266802	0.5681818181818182
8460.968017578125	-0.2500865508291925	-9.947527984768106	-1.997114972360252	0.007078352329906457	2.216255783192353	-0.7078352329906457	0.1601642710472279	-0.4276985743380855	0.5640495867768596
8480.499267578125	-0.5641749754148329	-9.552416575384129	-2.19416748617224	-0.7174466097009052	0.3645395350758898	-0.7191071458515021	0.1334702258726899	-0.4195519348268839	0.5640495867768596
8500.030517578125	-0.4360245449476792	-9.844314602866415	-2.132515168410695	-0.7245993338591113	-1.108072336949759	-0.003834730030906479	0.1560574948665298	-0.4175152749490835	0.5805785123966942
8519.561767578125	-0.1810777411771386	-9.665215136313943	-2.297408627428713	-0.3658946219657335	-1.104431126696028	0.3575781386023321	0.1581108829568789	-0.4012219959266802	0.5599173553719008
8539.093017578125	0.1619569083334056	-10.00096726630553	-2.065230277780187	0.007338653728954708	-0.3864979058911098	-0.7338653728954707	0.1765913757700205	-0.4215885947046843	0.5661157024793388
8558.624267578125	-0.3859031372013997	-9.73477534769512	-2.136562093286678	-0.3551283498142748	0.7326647257590937	-0.7190490765435364	0.1601642710472279	-0.4276985743380855	0.5681818181818182
8578.155517578125	-0.1184039001893472	-9.648283927727888	-2.05320332702176	-0.3696197277014355	-0.3534492403754458	0.73008871217253	0.1683778234086242	-0.4256619144602851	0.5723140495867769
8597.686767578125	-0.1062765320679694	-9.597696078701977	-2.124115597734353	1.083452789409088	-0.3755742751299168	0.350373233004245	0.162217659137577	-0.4093686354378818	0.5578512396694215
8617.218017578125	-0.09120525282699851	-9.61615636508073	-2.29315823910005	0.7174094237867555	0.007282420507461989	0.7228257372664771	0.1581108829568789	-0.415478615071283	0.5743801652892562
8636.749267578125	-0.02014367043336928	-9.369846453440124	-1.995210985554358	-0.717483795615055	0.7363614906592416	-0.7153885544365272	0.1642710472279261	-0.4236252545824847	0.5640495867768596
8656.280517578125	-0.3302243381720308	-9.753439202675624	-2.325855394265643	-0.7245621479449615	-1.479894292533111	-0.007553321445881495	0.1786447638603696	-0.4114052953156823	0.5681818181818182
8675.811767578125	-0.4766919997066342	-9.804130413238479	-2.11026667644553	-1.453072517110524	0.02212503475447094	0.379715479168285	0.1704312114989733	-0.4114052953156823	0.5702479338842975
8695.343017578125	-0.1729762681175136	-9.665928993357998	-2.234124396082882	-1.086991965574041	-0.7325536164662596	0.003544383491077821	0.1683778234086242	-0.3930753564154786	0.5392561983471075
8714.874267578125	-0.3002363488246831	-9.617076419453316	-1.992121705843896	-0.7100335841436511	-0.7656022819819236	-1.460409701576923	0.1704312114989733	-0.4012219959266802	0.5640495867768596
8734.405517578125	-0.2812495810466696	-9.650937364538423	-1.625013965111012	1.094293433388846	0.7178776661585017	-0.7336911649715735	0.1683778234086242	-0.4114052953156823	0.5557851239669421
8753.936767578125	-0.2982782102471451	-9.519776621313243	-1.7240596584285	3.257213605072272	3.320464691302713	0.3655960145119395	0.1416837782340863	-0.4134419551934826	0.5516528925619835
8773.468017578125	-0.8656281618654288	-9.866553105669821	-1.479061271152379	3.260975896722124	2.197660849398779	-0.01063315047323346	0.1786447638603696	-0.4195519348268839	0.5371900826446281
8792.999267578125	-0.3803000060723589	-9.682963668630062	-1.323333130921371	6.888441390036378	-0.4493984638400425	-0.4383419021883993	0.162217659137577	-0.4276985743380855	0.5475206611570248
8812.530517578125	-0.467549550842599	-9.937841021439107	-0.748348305246702	11.22586609566598	-1.587211583930237	0.6017962305033079	0.1601642710472279	-0.4256619144602851	0.5330578512396694
8832.061767578125	0.2617084147910044	-9.945380945884242	-0.723613826366813	14.49384597288971	3.570348959827598	-0.1092349701306212	0.162217659137577	-0.4317718940936863	0.5330578512396694
8851.593017578125	-0.3508640493485621	-9.880112709289369	-0.6378650217145976	17.40334425370497	6.493336559831591	-1.203990587887639	0.1519507186858316	-0.4338085539714867	0.5082644628099173
8871.124267578125	-0.556520648780284	-9.956608343105627	-0.7826450406572026	20.65373980784638	4.99479177885849	-0.156589480289879	0.1683778234086242	-0.4663951120162932	0.5247933884297521
8890.655517578125	-0.4239744613935985	-10.37375174251726	-1.200851286880051	22.83252723624051	-5.073919586446776	-0.6440279718765078	0.1868583162217659	-0.4704684317718941	0.493801652892562
8910.186767578125	-0.1912477593390119	-9.82850344218628	-0.9584080220329364	23.9159800256496	-5.449493861576692	-0.293654738872263	0.1806981519507187	-0.4663951120162932	0.475206611570248
8929.718017578125	0.2207712526645432	-9.725283961638466	-1.692375088818106	24.64817831463671	-7.330673119601506	-1.049715521641652	0.2053388090349076	-0.4745417515274948	0.4607438016528926
8949.249267578125	-0.02504256565836595	-9.891430429562872	-1.831914478054469	23.92644881048786	-0.6378223644547559	-1.340533222698331	0.2053388090349076	-0.4989816700610997	0.4607438016528926
8968.780517578125	-0.086359195010256	-9.831256139719985	-1.788026832991467	23.92242621743896	3.087735166532641	-0.9382739178083332	0.1991786447638604	-0.5050916496945009	0.4628099173553719
8988.311767578125	-0.2031992656388871	-9.715701095889907	-1.226691145370431	23.92622569500296	1.593109369045355	-1.318221674208481	0.2197125256673511	-0.525458248472505	0.4173553719008264
9007.843017578125	-0.1371864158966469	-9.891023607806583	-0.7604528034451041	25.37203393021283	1.21383832901529	-0.9715089633112455	0.2176591375770021	-0.5356415478615071	0.4318181818181818
9027.374267578125	-0.2829182968058604	-10.01147691596723	-0.5693901064713207	28.63703241998385	-0.314058352573328	-1.384401418674477	0.2299794661190965	-0.5560081466395111	0.4152892561983471
9046.905517578125	-0.01365649848861354	-9.907748934511318	-0.2114500503795487	31.539154861156	3.367249108905127	-1.741573072121049	0.2238193018480493	-0.570264765784114	0.4235537190082645
9066.436767578125	-0.1486742147927394	-10.29807132944965	-0.04419284024202157	35.87970969789491	7.427605391827978	-1.01444805035994	0.2320328542094456	-0.5763747454175152	0.3987603305785124
9085.968017578125	-0.3015904059884499	-10.1875142312696	0.05301353294833002	39.85805783248964	10.00437061731757	-0.2985368721517208	0.2402464065708419	-0.6109979633401221	0.4090909090909091
9105.499267578125	-0.07365850157841899	-10.44381624884369	0.4552833859472998	43.47770125519099	12.57749463255343	0.05596143742325937	0.2340862422997947	-0.6089613034623217	0.3966942148760331
9125.030517578125	-0.05727496192946444	-10.35518557102386	0.5758320643154807	47.45917952089503	20.35242926105607	0.4588595047008804	0.2505133470225873	-0.6537678207739307	0.4008264462809917
9144.561767578125	-0.233339458266728	-10.38211309150624	0.4446486088909323	50.71255646248915	25.53934170542942	1.208121867027943	0.2464065708418891	-0.6598778004073319	0.4028925619834711
9164.093017578125	-0.8912054105506053	-10.13815641607803	0.7068470183535074	53.58930969588022	27.41290521506827	3.387870991688231	0.2381930184804928	-0.6659877800407331	0.4090909090909091
9183.624267578125	-1.251220583561573	-10.19456132201824	0.7073527853857511	54.65528971994944	19.26575974845736	5.48552075867924	0.2505133470225873	-0.7026476578411405	0.4028925619834711
9203.155517578125	-0.8458322719848965	-10.44015243460845	0.8610757328298795	56.09144726043235	5.894734188471622	6.797302942273094	0.2505133470225873	-0.6924643584521384	0.4132231404958678
9222.686767578125	-0.6907765600639096	-10.153351087754	1.025885335463653	58.61757815394199	-0.0582805297014057	7.807401997105172	0.2607802874743327	-0.7270875763747453	0.4338842975206612
9242.218017578125	-0.04687939900996892	-10.13182433901322	1.229313300332297	60.78768823569778	3.645096411885103	8.187698169353114	0.2484599589322382	-0.7270875763747453	0.4297520661157025
9261.749267578125	-0.07383830649008984	-10.32387438576513	1.461276883002994	63.67446402295732	14.79219488564611	9.365191907167034	0.2628336755646817	-0.7596741344195519	0.4359504132231405
9281.280517578125	-0.3011456254174747	-10.41403708555165	1.704854180582489	68.72102985079098	23.34371098153828	11.95498593539507	0.2566735112936345	-0.7780040733197555	0.4545454545454546
9300.811767578125	-0.5614684383233666	-10.16487479505789	2.048947944112217	71.96751436962595	24.45525786480252	13.3934905736379	0.2587268993839836	-0.7759674134419551	0.4462809917355372
9320.343017578125	-0.956213560917983	-10.42250905136348	2.207118697266098	73.02585825265301	19.66918594874954	16.25475444484418	0.2546201232032854	-0.7983706720977596	0.4896694214876033
9339.874267578125	-0.6650124089047594	-10.77835401221254	2.500413630158646	76.97220505810655	13.76008797220695	20.1707985371702	0.2484599589322382	-0.810590631364562	0.5041322314049587
9359.405517578125	-0.7323375190549833	-10.71012246449444	2.744583968499441	80.57426415772561	9.677106662711873	22.28372915497687	0.215605749486653	-0.8126272912423624	0.5330578512396694
9378.936767578125	-0.9585675857484105	-10.60660351939199	2.618919524947011	84.16511075422338	8.218892967761898	25.51791008490911	0.2402464065708419	-0.8126272912423624	0.5475206611570248
9398.468017578125	-1.556510396745847	-10.82660502828116	3.217013224861551	86.32925806107374	-1.448644541344501	26.49448374769845	0.2381930184804928	-0.8370672097759674	0.5785123966942149
9417.999267578125	-1.003762496638516	-10.84454987391312	3.458749887950521	89.59455403815797	-5.951116867599933	26.05184256101541	0.2114989733059548	-0.8370672097759674	0.5888429752066116
9437.530517578125	-0.9247335062509809	-10.29899716702115	3.824450208366028	90.68195504878767	-9.308604762550544	26.00739367195961	0.1950718685831622	-0.8350305498981669	0.6136363636363636
9457.061767578125	-0.9429285015232159	-10.09154688215917	4.097616717440524	91.43568588207769	-7.515592315665113	23.09807845889848	0.1786447638603696	-0.8492871690427698	0.6590909090909091
9476.593017578125	-1.154066784906797	-9.879814927119865	4.135559496893239	92.53698329596814	-3.837814955147554	21.66398924376622	0.1909650924024641	-0.8411405295315681	0.6756198347107438
9496.124267578125	-1.009446855425022	-9.859721149920759	3.981561847500725	93.61637630641418	-0.1160097437067222	22.42034037307543	0.1663244353182751	-0.8065173116089612	0.7231404958677686
9515.655517578125	-1.50028666265523	-9.735092687591857	4.009555421840987	92.89140511341355	2.494137475177036	22.45369155719428	0.1683778234086242	-0.8085539714867617	0.737603305785124
9535.186767578125	-1.495879076465193	-9.377000901390412	4.195969215506438	93.24686813645519	-1.584924850832224	23.13927331100304	0.1806981519507187	-0.7983706720977596	0.7851239669421488
9554.718017578125	-1.619252847502565	-9.113558420692497	3.975094916752166	92.17064244303262	-0.480382614843361	22.06619047934825	0.1663244353182751	-0.7841140529531567	0.8016528925619835
9574.249267578125	-1.862411388906195	-8.875513015746337	4.413712963539822	90.37395156654227	-5.32493611354171	20.57585783852763	0.1601642710472279	-0.7820773930753564	0.8223140495867769
9593.780517578125	-1.380132030431193	-8.552909356506087	4.671067681039756	87.85899599023972	-1.624867054330431	18.44822706298496	0.1560574948665298	-0.745417515274949	0.8615702479338844
9613.311767578125	-1.228395611813814	-8.1571812478198	4.946520393793786	86.05381369668179	5.443557975946236	17.80703612892403	0.1745379876796715	-0.7515274949083502	0.8698347107438017
9632.843017578125	-1.884674864613999	-8.059378206225194	4.822495487133303	84.9626875803164	9.552027757217429	18.22399559155003	0.1334702258726899	-0.7230142566191445	0.9090909090909092
9652.374267578125	-2.260912699195058	-8.031028439406402	5.363756639835252	82.43715166143313	9.555891186056828	17.15439907407836	0.1273100616016427	-0.7169042769857433	0.9338842975206612
9671.905517578125	-2.351140065660338	-7.913535287896843	5.704668855344583	79.16972957292167	-1.178998691451285	17.80965140348766	0.1211498973305955	-0.6904276985743381	0.9566115702479339
9691.436767578125	-1.954137129635399	-7.758504338582112	5.804570987846607	78.0796818480666	-7.853365622097294	18.11877171507938	0.1129363449691992	-0.6822810590631364	0.987603305785124
9710.968017578125	-1.674300752105019	-7.761357243180623	5.810025070167289	77.32878365857268	-1.473633021302865	20.74482254852971	0.108829568788501	-0.6578411405295315	0.9958677685950413
9730.499267578125	-2.264190195742882	-7.458754829956866	6.139673191429404	75.13561641003383	6.393498511117805	22.67024305458748	0.1170431211498973	-0.6211812627291242	1.016528925619835
9750.030517578125	-2.665983197704175	-7.155334567257683	6.199439923472505	75.12514762519558	1.581827013995869	23.71712153841355	0.09650924024640657	-0.6109979633401221	1.043388429752066
9769.561767578125	-2.589154451630507	-7.177159939360531	6.305148387683573	72.95172148275974	-5.460609552686927	23.66843143417108	0.09240246406570843	-0.6028513238289205	1.049586776859504
9789.093017578125	-2.353924675937135	-6.757768978553007	6.130822531237818	71.49905801070486	-9.528526029349326	24.00724240777464	0.106776180698152	-0.5682281059063136	1.078512396694215
9808.624267578125	-2.169812332566534	-6.344905987529846	6.660411085551124	67.87531762312631	-7.632448602431086	24.06244058591961	0.08008213552361397	-0.5478615071283095	1.088842975206612
9828.155517578125	-1.76770309477375	-6.438224000643513	6.590103159124981	66.79536682396802	-5.776924480121642	23.36186832783502	0.08213552361396304	-0.4989816700610997	1.101239669421488
9847.686767578125	-1.813356192741402	-6.019651835653054	6.77853975804673	65.0050105815246	-0.9687830839606025	21.23807228232325	0.06981519507186859	-0.5091649694501018	1.109504132231405
9867.218017578125	-1.938903395079497	-5.850245431075703	6.963446502649887	64.28700618311146	4.973085784865564	20.57474400769637	0.07597535934291581	-0.4745417515274948	1.144628099173554
9886.749267578125	-2.680588403687263	-5.693390250525549	7.019613456242082	61.04014980513499	7.579758457434842	19.17342528360329	0.07597535934291581	-0.4643584521384928	1.12603305785124
9906.280517578125	-2.489537010238629	-5.48828363331049	7.317900341287597	60.68919279202621	3.099577829873132	18.03724253650986	0.0513347022587269	-0.4297352342158859	1.152892561983471
9925.811767578125	-1.813192948808438	-5.216265720114729	7.439764960281252	63.24743657241949	4.51696044698223	15.8360529029792	0.0595482546201232	-0.4195519348268839	1.171487603305785
9945.343017578125	-1.738196162426925	-5.068683425851372	7.606538747564156	63.24971142750335	18.26703482841237	15.60856739459303	0.0431211498973306	-0.4195519348268839	1.173553719008265
9964.874267578125	-2.328460988248803	-4.726202386200446	7.948699608293422	62.89398810306268	24.94885084350509	14.9490157806891	0.02874743326488707	-0.3788187372708757	1.202479338842975
9984.405517578125	-2.723544427979853	-4.407279365046819	8.451480932661745	63.98083132498012	27.16869228230475	14.96034576285792	0.03285420944558522	-0.3564154786150712	1.177685950413223
10003.93676757812	-2.199205703916514	-4.141076510933006	8.306856797217124	65.42962094764269	33.47487846762115	15.00891972848446	0.01642710472279261	-0.3197556008146639	1.231404958677686
10023.46801757812	-2.91729289510355	-4.146591369416814	8.576429836784982	64.68643327101924	35.74989360669095	16.86391927488956	0.01437371663244353	-0.2973523421588594	1.221074380165289
10042.99926757812	-3.531898416533851	-4.128647154679278	8.396613884461674	63.58513585712878	32.07211624617339	18.29800849002183	-0.02874743326488707	-0.2484725050916497	1.235537190082645
10062.53051757812	-3.665380693526471	-3.648473090906893	8.512689784215704	61.7526813598474	19.86450338734679	20.38403792830419	-0.03901437371663245	-0.2403258655804481	1.229338842975207
10082.06176757812	-3.772717128231659	-3.48651187146157	8.423904274388605	58.83994139018039	12.85881225107981	21.80296243123673	-0.05544147843942505	-0.219959266802444	1.235537190082645
10101.59301757812	-3.636303558007983	-3.395738150422581	8.21011860026608	54.84024664085349	4.748745542763213	23.22171272624538	-0.06570841889117043	-0.1975560081466395	1.254132231404959
10121.12426757812	-3.469035307217985	-3.044988082667148	7.967843573932809	51.94579752663765	-2.665457424856518	22.8115516840617	-0.0595482546201232	-0.1547861507128309	1.256198347107438
10140.65551757812	-3.17982068403151	-3.058142021170188	7.994022801050334	49.77985878158737	-11.58167971976383	22.01412184126386	-0.08829568788501027	-0.1405295315682281	1.262396694214876
10160.18676757812	-3.247024347004553	-2.649871205531472	8.234144900151756	46.89211616055993	-13.06140734835769	20.93331148023929	-0.07392197125256673	-0.120162932790224	1.287190082644628
10179.71801757812	-2.875527684041763	-2.533087284506836	8.184256134725402	42.20738517572895	-16.41111283098309	18.3919172097139	-0.04517453798767967	-0.1160896130346232	1.272727272727273
10199.24926757812	-2.900838379831567	-2.49127107614554	8.027945994385565	39.32351640409382	-20.12911016823094	16.92372190945924	-0.04722792607802875	-0.06517311608961303	1.268595041322314
10218.78051757812	-2.922582944873234	-2.161635152175679	8.08609816244112	36.43555066758148	-19.37790606332468	15.86522309692451	-0.03901437371663245	-0.05498981670061099	1.264462809917355
10238.31176757812	-2.897091655553725	-2.113392968629038	8.236388518457472	34.2687938324199	-20.11404533539826	15.14960226525612	-0.03901437371663245	-0.04887983706720977	1.278925619834711
10257.84301757812	-2.674330719590297	-2.008033599334196	8.477690653009905	32.83006394953995	-17.51851851217584	14.09505432136824	-0.02874743326488707	-0.02647657841140529	1.254132231404959
10277.37426757812	-2.235613832675758	-1.889515139231828	8.187127755858578	31.74225389385461	-10.07098910580836	14.18040771598877	-0.02258726899383984	-0.01018329938900204	1.260330578512397
10296.90551757812	-2.838386929129264	-1.694411773751795	8.279564304308773	29.94075952011822	-3.381724006268927	13.17042479977263	-0.04928131416837783	-0.006109979633401222	1.291322314049587
10316.43676757812	-2.647591047923529	-1.529387772161941	8.586368264117642	29.95543682757613	-4.154719818051146	11.70269405398168	-0.04106776180698152	-0.01018329938900204	1.28099173553719
10335.96801757812	-2.94562794105238	-1.455753034273603	8.52093136841264	27.42289692819127	-7.110756083570803	11.3334955866707	-0.03080082135523614	0.03665987780040733	1.262396694214876
10355.49926757812	-3.065647719592663	-1.394559429334961	8.521590653088767	25.26399934955674	-13.43890063970241	9.831949102297189	-0.02258726899383984	0.02036659877800407	1.285123966942149
10375.03051757812	-2.528140651603537	-1.21076547735181	8.604688386784549	24.90186701924086	-15.66613560830237	9.813298075914348	-0.01026694045174538	0.04684317718940936	1.278925619834711
10394.56176757812	-2.22003468342112	-1.334477880972829	8.667822780703988	24.90875944200002	-11.59077004719326	9.124055799998578	0.008213552361396304	0.06109979633401221	1.28099173553719
10414.09301757812	-2.279599003502253	-1.320403677799062	8.319966783408422	23.81357354667157	-3.384920779351322	9.946993158929553	-0.01848049281314168	0.0570264765784114	1.264462809917355
10433.62426757812	-2.335016769962486	-1.124988755621204	8.833892332082847	22.37119292988421	-0.7820559809750253	9.257518605781918	-0.006160164271047228	0.07128309572301425	1.295454545454545
10453.15551757812	-2.932428052405246	-1.138151736944363	8.747601746841518	22.73026950091909	-4.496634326554812	9.581745560265407	0.002053388090349076	0.09164969450101833	1.274793388429752
10472.68676757812	-2.806122988136819	-0.8306464328309049	8.870766271227296	20.20160345092653	-9.69094030072846	8.825162153724326	0.002053388090349076	0.1018329938900204	1.276859504132231
10492.21801757812	-2.439318602474211	-0.8820463481333279	8.643953415807006	19.48087796645972	-13.03728234633221	8.433942484463321	0.008213552361396304	0.1221995926680244	1.295454545454545
10511.74926757812	-2.268074928176613	-0.586677560110438	8.93583093922042	18.04565007383056	-8.961805675930265	7.029195515495092	0.004106776180698152	0.1079429735234216	1.266528925619835
10531.28051757812	-2.290737444609441	-0.6973384404237193	9.024581486981361	18.39627241371199	-1.135227448118386	8.198845585323303	0.01642710472279261	0.1446028513238289	1.28099173553719
10550.81176757812	-2.516486454302346	-0.4936639535577583	8.882881810078169	18.04132999346846	-2.261672500276052	7.461203551704891	0.01232032854209446	0.1221995926680244	1.278925619834711
10570.34301757812	-2.924768994062496	-0.2823419747468733	9.158966468749828	16.59946997947919	-4.86431508006668	6.719668718747607	0.004106776180698152	0.1466395112016293	1.276859504132231
10589.87426757812	-2.533584481889782	-0.1758589824776959	9.119482729659373	15.16148381488223	-9.705227368511299	5.590748946560225	0.02874743326488707	0.1446028513238289	1.274793388429752
10609.40551757812	-2.280050881635531	-0.3172164517288216	9.001696054517691	15.51985385354826	-6.355188558007401	5.985629137928239	0.01437371663244353	0.1608961303462322	1.272727272727273
10628.93676757812	-2.604746218773684	-0.4255346107368242	9.158207292456106	14.43632669231087	-5.235970371710781	5.642693087753944	0.03285420944558522	0.1771894093686354	1.28099173553719
10648.46801757812	-2.41586352491757	-0.3877958730566809	9.195450830585656	15.16085165434168	-3.384254123594318	5.653965000614801	0.02258726899383984	0.1914460285132383	1.291322314049587
10667.99926757812	-2.629935467386307	-0.04367913445490591	8.997848912876897	13.36013818480243	-4.50325009130527	4.565891664684179	0.02669404517453799	0.185336048879837	1.262396694214876
10687.53051757812	-2.715401158164445	0.0553536255268297	9.180038605481473	11.54854688536928	-6.343876044721289	4.56560131814435	0.02874743326488707	0.175152749490835	1.287190082644628
10707.06176757812	-2.458242280809533	-0.04816500412841541	9.274742693651072	10.10292457973016	-7.823714782607984	4.200295650172239	0.02464065708418891	0.1894093686354379	1.289256198347108
10726.59301757812	-2.55510429079186	0.003849612643965504	9.170143026395309	9.023048152400179	-6.711834571465243	3.492286209257696	0.03696098562628337	0.2138492871690428	1.28099173553719
10746.12426757812	-2.713538442368977	0.07595590363403076	9.117948078965901	8.649852062619638	-7.801589747853512	4.580011129340524	0.04106776180698152	0.1975560081466395	1.256198347107438
10765.65551757812	-2.470869632764241	0.0944188187395623	9.028987758808009	8.646126956883936	-7.05060786153293	4.952521702910722	0.03285420944558522	0.1914460285132383	1.274793388429752
10785.18676757812	-2.690935860906706	0.2265974049734985	9.031195363556856	8.638825489069133	-7.035931911225172	5.682668484391217	0.06160164271047228	0.2077393075356415	1.285123966942149
10804.71801757812	-2.581707531538806	-0.1447521018642142	9.056917717960223	7.559395292708945	-10.38591516708265	4.930035946496974	0.03696098562628337	0.1934826883910387	1.289256198347108
10824.24926757812	-2.304739357796791	0.0814676076457044	9.15797859322635	7.193389113000761	-10.37488042702863	5.298769859344231	0.0595482546201232	0.2057026476578411	1.278925619834711
10843.78051757812	-2.336854249980877	0.2410837925061834	9.228474999362533	6.468306362257703	-6.649267341394811	5.343276817708	0.03080082135523614	0.2158859470468432	1.270661157024793
10863.31176757812	-2.274245864289878	0.1613271705462731	9.141528809662569	5.01907050862533	-8.493590059710979	5.339325949061163	0.06160164271047228	0.219959266802444	1.295454545454545
10882.84301757812	-2.136144651474204	0.3193132293566743	9.204821715806769	4.667667264546758	-8.511907220272468	4.247766298947428	0.07802874743326489	0.2097759674134419	1.270661157024793
10902.37426757812	-2.238024638004607	0.139705367045177	9.267487933486903	4.66740696314771	-5.909153531189005	4.273796438852253	0.06160164271047228	0.2281059063136456	1.276859504132231
10921.90551757812	-2.104530531741482	0.1428684614035876	8.817684391382718	4.674596873220065	-4.808363614746708	3.554805431616683	0.07186858316221766	0.2260692464358452	1.278925619834711
10941.43676757812	-2.0964535058409	0.2988133664447759	9.215116861363315	3.221375612452943	-3.29895075765883	3.949395276444868	0.06160164271047228	0.2219959266802444	1.28305785123967
10960.96801757812	-2.499434166560861	0.3418496194786551	9.314472218695347	2.859131724394611	-4.410719859508737	3.941900024306952	0.08829568788501027	0.2321792260692464	1.270661157024793
10980.49926757812	-2.215377105314418	0.2603614026150048	9.179236843813936	2.160310643372217	-7.801089756035759	1.360240010604461	0.05749486652977413	0.2118126272912423	1.287190082644628
11000.03051757812	-2.018707596994104	0.5072845436385732	9.290253233136783	2.881184871495626	-5.942035532765418	1.736585314205565	0.06365503080082136	0.2342158859470468	1.28099173553719
11019.56176757812	-2.56389501601289	0.4643406114891658	9.129833867096306	1.438804254708261	-3.339170734389121	1.047110761057931	0.09240246406570843	0.230142566191446	1.276859504132231
11039.09301757812	-2.119131794634401	-0.0118526135984562	9.304393154480021	2.152339829102716	-1.09361860522767	2.157321437554506	0.08829568788501027	0.2260692464358452	1.295454545454545
11058.62426757812	-2.296051941538168	0.1109432055693257	9.201731384605598	2.521885184975852	0.003474546314480013	1.434669908211927	0.06160164271047228	0.2321792260692464	1.264462809917355
11078.15551757812	-2.700037301632991	0.6136546058053328	9.334576721099712	1.423903831765454	-0.3352431891067909	2.537153055338723	0.07597535934291581	0.2342158859470468	1.287190082644628
11097.68676757812	-2.314682253964975	0.3982527378846583	9.489408465499144	-0.3761774772332454	-7.775212401734723	1.385863665353525	0.07186858316221766	0.230142566191446	1.262396694214876
11117.21801757812	-2.431218706650653	0.0305726181829557	9.373956888355082	-1.444952959184424	-8.172633938387028	-0.4322403134416611	0.08829568788501027	0.2260692464358452	1.274793388429752
11136.74926757812	-2.044344780649837	0.2756618542565527	9.478159354994567	-1.803657671077802	-8.176275148640759	-0.7936531820748997	0.08418891170431211	0.2423625254582485	1.291322314049587
11156.28051757812	-2.043533292693218	0.3659242353625264	9.451109756440577	-0.3657458783091345	-2.591718949029436	0.342703772942432	0.1108829568788501	0.2158859470468432	1.28305785123967
11175.81176757812	-2.171039422226884	0.2280305868133076	9.367980740896128	-0.01080345806560844	-1.46527389687177	1.080345806560844	0.1006160164271047	0.2219959266802444	1.28305785123967
11195.34301757812	-2.213905544063639	0.1208372074194236	9.130184802121278	1.43899018427901	-5.19828051230588	1.028517803983056	0.09856262833675565	0.2484725050916497	1.278925619834711
11214.87426757812	-2.218276853824127	0.08942381726353221	9.275895127470903	1.076709110306529	-5.938227658572435	1.024741143260115	0.1129363449691992	0.230142566191446	1.276859504132231
11234.40551757812	-1.728101851596281	0.2679137346505358	8.936728386542706	-0.02872245437527308	-4.774981621352541	2.872245437527308	0.09445585215605749	0.2240325865580448	1.268595041322314
11253.93676757812	-1.832939944370884	0.3773494179867475	9.097998145696129	-0.3765121504605932	-4.428814801484558	1.4193309880883	0.1149897330595483	0.2382892057026476	1.272727272727273
11273.46801757812	-1.743623431734463	0.3762284237391904	9.120781057815428	-0.731789243931467	-2.208862253392057	0.7151562772046642	0.1026694045174538	0.2281059063136456	1.289256198347108
11292.99926757812	-1.958553390623805	0.2400677370316364	8.951779687460158	-1.441934385817567	-1.858998668623925	-0.7340976501273336	0.09034907597535935	0.2342158859470468	1.274793388429752
11312.53051757812	-1.980338963803221	0.3163570683702919	9.344632126774028	-1.442120315388316	0.0001111092928339878	-0.7155046930524586	0.09445585215605749	0.2138492871690428	1.285123966942149
11332.06176757812	-1.449521742593497	0.4013213032281028	9.317391419783219	-1.800973770938293	1.48375772137251	-1.062043196025797	0.1006160164271047	0.2423625254582485	1.28099173553719
11351.59301757812	-2.069229622701474	0.38428242199319	9.640987423382471	-1.442269059044915	1.487398931626241	-0.7006303273925585	0.08418891170431211	0.230142566191446	1.285123966942149
11371.12426757812	-2.558627047548148	0.599377254626099	9.620901584938236	-1.079913613244135	1.483702166726093	-0.7042908494995678	0.1006160164271047	0.2321792260692464	1.278925619834711
11390.65551757812	-2.457799866092658	0.4286447099633739	9.593328869755263	-1.442045943560017	-0.7435328018738696	-0.7229418758824087	0.09856262833675565	0.2118126272912423	1.276859504132231
11410.18676757812	-2.183091083017032	0.3374672164911597	9.436369433901058	-1.452998145282224	-0.7215188764122327	0.372278296338335	0.09856262833675565	0.219959266802444	1.274793388429752
11429.71801757812	-2.366606442536164	0.2281305835799736	9.553548084538802	-1.811777229003901	0.01848382450073994	0.01830261053504642	0.1252566735112936	0.2321792260692464	1.28305785123967
11449.24926757812	-2.009565148130068	0.3735739354379445	9.652171604335612	-1.445696677467419	-0.7361948267199907	-0.3578684851421607	0.09240246406570843	0.219959266802444	1.28099173553719
11468.78051757812	-2.384055405148572	0.4291554190019618	9.468513504952389	-0.3730473461239395	-2.577042998721678	1.072850554422928	0.08829568788501027	0.2219959266802444	1.272727272727273
11488.31176757812	-2.295459689394901	0.4878013670956486	9.515322979830042	-1.460076497612131	-2.937774659604585	1.080113529328981	0.09856262833675565	0.2219959266802444	1.289256198347108
11507.84301757812	-2.011022514256243	0.2931027203904816	9.700750475208084	-1.822469129327061	-2.562255939121086	1.087492642850965	0.09240246406570843	0.219959266802444	1.268595041322314
11527.37426757812	-2.145353344253065	0.1463357520248425	9.511778141768811	-0.746392179561077	-2.179510352776541	2.175449840165656	0.1108829568788501	0.2342158859470468	1.287190082644628
11546.90551757812	-2.221611919488408	-0.001654520634585165	9.387063982946923	-0.3766980800313419	-2.569705023567799	1.437923945163176	0.106776180698152	0.2138492871690428	1.293388429752066
11566.43676757812	-2.013160457745452	0.3157447853289707	9.438681924848382	-0.01829085545116214	0.4085118313527467	1.829085545116214	0.108829568788501	0.230142566191446	1.28099173553719
11585.96801757812	-2.149663930424963	0.2849419958292621	9.655464347498754	-0.01821648362286265	-0.3351320798139569	1.821648362286264	0.1026694045174538	0.2260692464358452	1.262396694214876
11605.49926757812	-2.050277554116941	0.4437435908355224	9.675918470564699	-0.01806773996626364	-1.822419902147364	1.806773996626364	0.1149897330595483	0.2362525458248472	1.285123966942149
11625.03051757812	-2.108244922679945	0.3750008083334845	9.608164089331495	-0.3769211955162404	-0.3387732900676879	1.460235493653026	0.09650924024640657	0.2240325865580448	1.278925619834711
11644.56176757812	-2.010181058814345	0.363374790983362	9.672701960478143	0.6955050203423407	0.05131027143073588	2.913266081707965	0.106776180698152	0.2260692464358452	1.266528925619835
11664.09301757812	-2.041716316743702	0.2065117242528698	9.390543891456716	1.065161933957926	0.03293755622282993	2.17945877812046	0.1190965092402464	0.2179226069246436	1.270661157024793
11683.62426757812	-1.909248991160381	0.1226761595248103	9.641633038679348	1.065087562129627	0.7765814673895335	2.186895960950409	0.1006160164271047	0.2281059063136456	1.274793388429752
11703.15551757812	-2.147469995055365	0.505651368265432	9.582333168512164	-0.3842226633310454	-0.3240973397599299	2.190382275133521	0.09034907597535935	0.230142566191446	1.260330578512397
11722.68676757812	-1.969157937322216	0.3666389335991502	9.305264577407197	-0.01430544831641191	-2.945223744051298	1.430544831641191	0.09034907597535935	0.2036659877800407	1.28099173553719
11742.21801757812	-1.926548116346396	0.223749442381332	9.551603878213191	-0.01035722709581143	-5.927137363871991	1.035722709581143	0.09445585215605749	0.2219959266802444	1.293388429752066
11761.74926757812	-1.91715883003783	0.4867853116211016	9.238627667927666	-0.3656343205666853	-3.707184815779491	0.331547998697507	0.1170431211498973	0.2260692464358452	1.272727272727273
11781.28051757812	-2.306911211861446	0.4074320414981324	9.563707062048204	-0.007152724158205957	-1.472611872025649	0.7152724158205956	0.1006160164271047	0.2036659877800407	1.28099173553719
11800.81176757812	-1.755149872914204	0.3458348744244074	9.171662430473463	-1.083304045752489	-1.11171354720349	-0.3652475986641451	0.1170431211498973	0.2240325865580448	1.28099173553719
11820.34301757812	-2.085057975254744	0.135831254667633	9.501932508491445	-0.003762291649851729	1.122803841903934	0.3762291649851729	0.1252566735112936	0.2260692464358452	1.278925619834711
11839.87426757812	-2.177723748680051	0.265869321260117	9.590791622668352	1.07253777360103	-0.7253823052516316	1.441874813810013	0.108829568788501	0.2321792260692464	1.278925619834711
11859.40551757812	-1.971771417485712	0.4257939083462864	9.392380582857074	1.420178726029752	0.4157386972137917	2.909663628908921	0.1211498973305955	0.2158859470468432	1.28305785123967
11878.93676757812	-2.061553214761984	0.526764460560292	9.385107158732774	1.405650162228441	-0.298553313337396	4.362520009039963	0.1232032854209446	0.2118126272912423	1.28305785123967
11898.46801757812	-1.939295338242218	0.4462945073016829	9.309844608073924	2.141387627380508	-1.071604679766033	3.25254160977525	0.1129363449691992	0.2423625254582485	1.264462809917355
11917.99926757812	-1.951182177863334	0.4457844291575219	9.372739262111136	1.431279671408558	-1.093563050581252	1.799569091028277	0.1108829568788501	0.2260692464358452	1.264462809917355
11937.53051757812	-1.629101109506712	0.4032573079261633	9.303370316890383	1.427554565672856	-0.3425811642606699	2.172079664598475	0.135523613963039	0.2240325865580448	1.295454545454545
11957.06176757812	-2.114008931887849	0.1498037786895955	9.133631062928302	1.083266859838339	1.483535502786842	0.3689661900791201	0.09445585215605749	0.2443991853360488	1.262396694214876
11976.59301757812	-1.959569919269172	0.2164057261029678	9.318997308972396	0.728510369165562	-1.502019327287582	-0.3872688006141665	0.1006160164271047	0.2240325865580448	1.276859504132231
11996.12426757812	-1.796449799336142	-0.03418543511868571	9.214993311204712	-0.003501990250803478	-1.479949847179528	0.3501990250803478	0.1190965092402464	0.2281059063136456	1.258264462809917
12015.65551757812	-1.909119657802863	-0.103948689356259	9.303988593428761	-0.01091501580805769	-0.3498080301217149	1.091501580805769	0.1190965092402464	0.2342158859470468	1.274793388429752
12035.18676757812	-1.94159415981029	0.2955512216613396	9.386471993676334	-0.0183280413653119	0.7803337869360985	1.832804136531189	0.1170431211498973	0.2240325865580448	1.258264462809917
12054.71801757812	-2.050172667918467	0.3737775040396958	9.672422263948878	3.718591414975016e-05	-0.3718219555833518	-0.003718591414975016	0.1047227926078029	0.2158859470468432	1.287190082644628
12074.24926757812	-2.172466032249746	0.3375693162392489	9.415534408324861	-0.003390432508354228	-2.595415713929583	0.3390432508354227	0.1293634496919918	0.2077393075356415	1.276859504132231
12093.78051757812	-2.042181601383552	0.3063612822193184	9.406053379451716	-1.08311811618174	-2.97082332512025	-0.3838405557390202	0.1026694045174538	0.2077393075356415	1.293388429752066
12113.31176757812	-1.561830414000809	0.5116748328064051	9.394347133360304	-0.7245249620308118	-1.851716248116463	-0.01127191286085651	0.1108829568788501	0.2138492871690428	1.268595041322314
12132.84301757812	-2.005509285583037	0.404885330994818	9.516976186101237	-0.7136843180510536	-0.7582643068280446	-1.095336310836675	0.1252566735112936	0.2240325865580448	1.28305785123967
12152.37426757812	-1.71480732878511	0.4522122970261477	9.493577626170341	-0.717335051958456	-0.7509263316741656	-0.7302629200964272	0.1047227926078029	0.2321792260692464	1.274793388429752
12171.90551757812	-1.972477230625824	0.4755656954309838	9.415907687527453	-0.3551283498142748	0.7326647257590937	-0.7190490765435364	0.106776180698152	0.230142566191446	1.276859504132231
12191.43676757812	-1.903103290824193	0.6546632693001777	9.436776360806419	-0.7247480775157102	0.3792154853836477	0.01103963562899358	0.1232032854209446	0.2321792260692464	1.276859504132231
12210.96801757812	-2.106732353291416	0.4888232057691089	9.224411776380521	-1.079839241415835	0.7400582555593896	-0.7117280323295179	0.1232032854209446	0.2260692464358452	1.270661157024793
12230.49926757812	-2.081422446119645	0.237006742421315	9.380748203988146	-1.076076949765984	-0.3827455863445448	-1.087957197314691	0.1293634496919918	0.2403258655804481	1.270661157024793
12250.03051757812	-2.064001873756448	0.4759727274854151	9.466729125214931	-1.079690497759237	-0.7472295667740175	-0.7266023979894179	0.1211498973305955	0.2342158859470468	1.266528925619835
12269.56176757812	-2.294107998085236	0.4282384139524406	9.47026660284118	-0.7210229717800084	-0.3717664009369348	-0.3614709379412043	0.1108829568788501	0.2321792260692464	1.274793388429752
12289.09301757812	-1.764598305575293	0.3327798811973219	9.486610185843096	-1.08714070923064	0.7547342058671476	0.01841874915097788	0.1293634496919918	0.2240325865580448	1.28099173553719
12308.62426757812	-1.874517464340664	0.7439060198631853	9.483915478022135	-1.815613892482053	1.884931577571378	0.4019689583501693	0.1396303901437372	0.230142566191446	1.276859504132231
12328.15551757812	-2.247441525944351	0.5266605732779934	9.581384198145011	-1.08714070923064	0.7547342058671476	0.01841874915097788	0.1047227926078029	0.1914460285132383	1.266528925619835
12347.68676757812	-1.752976441613481	0.4398709505449744	9.765881387116032	-0.003613547993252729	-0.3644839804294728	0.3613547993252729	0.1190965092402464	0.2138492871690428	1.270661157024793
12367.21801757812	-1.921139773871665	0.405498139781495	9.371325795722168	-0.7283988114231127	0.3865534605375267	0.3761130263692414	0.1232032854209446	0.2321792260692464	1.291322314049587
12386.74926757812	-2.150294824851878	0.2847380066312262	9.676494161729259	-0.3660061797081828	0.01103474005402697	0.3687339128472572	0.09034907597535935	0.2281059063136456	1.268595041322314
12406.28051757812	-2.069124736503	0.3143163351973635	9.63749121676665	-0.3660433656223325	0.3828566956373787	0.3724525042622321	0.1211498973305955	0.2179226069246436	1.274793388429752
12425.81176757812	-1.956559764234753	0.4540456762307633	9.551992141158422	-0.003650733907402479	0.007337975153878983	0.3650733907402479	0.1108829568788501	0.2423625254582485	1.276859504132231
12445.34301757812	-2.022373093614481	0.4260993663979845	9.41243645381603	1.076039763851834	0.7545675419278965	1.091675788729666	0.1129363449691992	0.2260692464358452	1.276859504132231
12464.87426757812	-2.24484224090546	0.6875010087739014	9.494741363515322	0.7174094237867555	0.007282420507461989	0.7228257372664771	0.1149897330595483	0.2219959266802444	1.262396694214876
12484.40551757812	-2.074342233413589	0.2859626778629398	9.478074447119612	-0.3586303400650783	-0.7472851214204346	-0.3688500514631886	0.1149897330595483	0.2219959266802444	1.276859504132231
12503.93676757812	-1.985206314306872	0.1947832917074448	9.506877143562392	0.3549424202435261	1.126445052157665	0.7376420336184115	0.1149897330595483	0.2281059063136456	1.278925619834711
12523.46801757812	-1.955659162440331	0.2743368708109596	9.521972081344373	3.718591414975016e-05	-0.3718219555833518	-0.003718591414975016	0.1108829568788501	0.2382892057026476	1.272727272727273
12542.99926757812	-2.033869567308944	0.3757155065701083	9.462318910298116	-1.083266859838339	-1.483535502786842	-0.3689661900791201	0.108829568788501	0.2158859470468432	1.285123966942149
12562.53051757812	-2.128637796411946	0.6450737791601376	9.621259880398188	-0.7281756959382143	-1.844378272962584	0.3538014778793914	0.1170431211498973	0.2240325865580448	1.293388429752066
12582.06176757812	-1.798896092476505	0.54502359676593	9.296536415883503	-0.7061225488372005	-3.375693946219265	-1.851513232221996	0.1129363449691992	0.2158859470468432	1.28099173553719
12601.59301757812	-1.934784443089774	0.3144196967343065	9.49281476965913	-0.6952819048574422	-2.282242004930847	-2.935577630197814	0.108829568788501	0.2118126272912423	1.295454545454545
12621.12426757812	-2.118282453012166	0.8250886735260664	9.609415100405533	-2.48899139389508	-0.4413382782827426	-4.724049016289133	0.1108829568788501	0.2036659877800407	1.268595041322314
12640.65551757812	-2.205226802603386	0.5069766671582385	9.507560086779527	-3.931223267025845	0.6742386977601468	-5.428397935096665	0.1252566735112936	0.2036659877800407	1.28305785123967
12660.18676757812	-1.707792571375847	0.4044804019218096	9.259752379194889	-2.832944426502249	-1.961619211485397	-6.560629813543263	0.1232032854209446	0.2219959266802444	1.28305785123967
12679.71801757812	-1.658918757358792	0.2936162684539906	9.297291911959734	-1.398423066241936	1.027521274196342	-5.085229607690508	0.1211498973305955	0.2240325865580448	1.28305785123967
12699.24926757812	-1.931450166043527	0.1954977796459263	9.381672201450899	-1.409598383449042	3.28046693315809	-3.967697886979914	0.1211498973305955	0.2138492871690428	1.278925619834711
12718.78051757812	-2.138504196630866	-0.001449690243980027	9.283473221028867	-0.3518866609625196	4.815368262022084	-1.043217961719059	0.1232032854209446	0.2281059063136456	1.262396694214876
12738.31176757812	-2.012124213649243	0.2560798375867447	9.404140454974772	-0.3551283498142748	0.7326647257590937	-0.7190490765435364	0.1026694045174538	0.2219959266802444	1.287190082644628
12757.84301757812	-2.1387581316377	0.3784682041038105	9.291937721256646	-0.373270461608838	-0.3461112652215669	1.095162102912778	0.1232032854209446	0.2118126272912423	1.287190082644628
12777.37426757812	-1.597886819117048	0.4233499284854879	9.262893970568248	-2.170110081755782	-3.703376941586509	-0.3802961722479423	0.1232032854209446	0.2240325865580448	1.278925619834711
12796.90551757812	-1.972161783412366	0.4756676900300017	9.4053927804122	-3.246112659693466	-4.829766439097757	-1.475690552392583	0.1170431211498973	0.2260692464358452	1.274793388429752
12816.43676757812	-1.79954197064606	0.5548147628244408	9.318065688201985	-5.036022671167101	-4.483488509936939	-3.644109694884049	0.1108829568788501	0.2158859470468432	1.262396694214876
12835.96801757812	-1.657265813960275	0.4541507201528447	9.242193798675805	-7.905585994485825	-5.256262103133492	-6.542849826779907	0.1232032854209446	0.2077393075356415	1.268595041322314
12855.49926757812	-1.571931033775722	0.1617422990791833	9.397701125857392	-8.967320310021247	-3.065605901010089	-9.065070447150765	0.1375770020533881	0.2016293279022403	1.264462809917355
12875.03051757812	-1.670400247310616	0.2332372533695677	9.346674910353844	-11.11235867130916	-1.986663246090178	-11.95253866618577	0.1293634496919918	0.2016293279022403	1.28305785123967
12894.56176757812	-1.856559054478523	0.2030459057186111	9.551968482617411	-11.46372472947358	-2.376802362235019	-13.04781690771448	0.1047227926078029	0.1894093686354379	1.295454545454545
12914.09301757812	-1.785098431359869	0.04281817386030892	9.503281045328976	-11.8111425664174	-5.748855098200552	-14.53791727130323	0.1314168377823409	0.2118126272912423	1.28099173553719
12933.62426757812	-1.837262359813287	0.03261850366037058	9.575411993776227	-10.72023956553691	-7.626393145971634	-14.93256518543938	0.1170431211498973	0.2016293279022403	1.287190082644628
12953.15551757812	-1.922789562798048	-0.2483686253047023	9.759652093268278	-10.73871635055882	-5.358771536702129	-13.08488668324829	0.1170431211498973	0.1710794297352342	1.299586776859504
12972.68676757812	-1.861828600179332	-0.3519912473913173	10.06095333931106	-7.517601039504928	-6.054968605277495	-9.109461266898602	0.1047227926078029	0.1710794297352342	1.289256198347108
12992.21801757812	-2.064720304785098	-0.1675928985471816	9.824010159503255	-4.29700633124913	-1.545658295685937	-5.081975570739258	0.1375770020533881	0.185336048879837	1.28305785123967
13011.74926757812	-2.076682063119411	-0.1181272004086093	9.889402103980339	-2.880478339126781	-1.122581623318267	-1.80723855109009	0.1232032854209446	0.1670061099796334	1.264462809917355
13031.28051757812	-2.188766767005168	-0.3677012546650043	9.958892233505594	-1.452589100226577	-4.811560387829102	0.3313737907736098	0.1437371663244353	0.1894093686354379	1.299586776859504
13050.81176757812	-1.900502428549235	-0.09782911856425253	9.683414284974486	-0.3760659194907962	-8.890678268484779	1.3747078911086	0.1437371663244353	0.1710794297352342	1.260330578512397
13070.34301757812	-1.799043564048797	-0.05835741904244422	9.634785468293217	-1.108152650735461	-8.12496487721002	2.119612899633065	0.1375770020533881	0.1894093686354379	1.278925619834711
13089.87426757812	-1.691572275659857	-0.3102750357966869	9.719075855328548	-0.7421464710272784	-8.135999617264048	1.750878986785807	0.1396303901437372	0.175152749490835	1.260330578512397
13109.40551757812	-1.364167246958103	0.02558592348354666	9.805574898603435	0.7070150107767944	-5.548032987781178	1.762267038262596	0.1416837782340863	0.1670061099796334	1.276859504132231
13128.93676757812	-1.788207952266528	0.01181276210048938	9.606931742217588	1.076709110306529	-5.938227658572435	1.024741143260115	0.1293634496919918	0.1792260692464358	1.274793388429752
13148.46801757812	-1.787993448161377	-0.2014512149055117	9.933114938712549	1.072909632742528	-4.44360186108515	1.404688899660263	0.1478439425051335	0.175152749490835	1.264462809917355
13167.99926757812	-1.775690218218496	0.01252682944268625	9.523007273949869	1.43906455610731	-5.941924423472583	1.021080621153106	0.1437371663244353	0.185336048879837	1.272727272727273
13187.53051757812	-1.594503647752715	-0.008889512773377741	9.483454925090486	1.083936206293035	-5.20925969771349	0.3020315446095698	0.1478439425051335	0.1832993890020367	1.266528925619835
13207.06176757812	-1.68563240463045	0.07831218916948794	9.854413487681654	1.438767068794112	-2.96734877880577	1.050829352472906	0.1519507186858316	0.1894093686354379	1.278925619834711
13226.59301757812	-1.630269052814539	0.05954633958996593	9.675635093817943	1.457243853816022	-5.234970388075276	-0.7968491497181831	0.1498973305954825	0.1914460285132383	1.274793388429752
13246.12426757812	-1.506914997228008	-0.1205691824370558	9.563833240933587	1.471586488046584	-2.661568599607329	-2.231112572774349	0.162217659137577	0.1710794297352342	1.266528925619835
13265.65551757812	-1.622143132595871	-0.09782627953933141	9.40477108652901	0.03300534882322131	-1.553329598718318	-3.300534882322131	0.1540041067761807	0.1771894093686354	1.278925619834711
13285.18676757812	-1.216864438925871	-0.2001195019193649	9.228814630862356	-0.3365771929640644	-2.278600794677116	-2.574164761564576	0.1457905544147844	0.1710794297352342	1.28305785123967
13304.71801757812	-1.609444805018134	-0.007053820289196757	9.314826833937808	-0.7100707700578009	-0.3937803263985717	-1.456691110161948	0.1498973305954825	0.1934826883910387	1.289256198347108
13324.24926757812	-1.381937965728238	-0.1201599422521301	9.397932190941249	-1.064864446644728	-3.007513200889644	-2.209207509440259	0.1581108829568789	0.185336048879837	1.264462809917355
13343.78051757812	-1.372513980226192	0.04955381306019808	9.41713267420638	0.01106375946465669	-1.137479792211692	-1.106375946465669	0.1745379876796715	0.1812627291242362	1.268595041322314
13363.31176757812	-1.277564368975451	0.08025418736460413	9.252145632515036	-0.7064200361503985	-0.4011183015524508	-1.821764500902196	0.1601642710472279	0.1690427698574338	1.28305785123967
13382.84301757812	-1.523132927089897	-0.1091463130924	9.437764236329897	-1.069035783350227	2.20533215243116	-1.792073838890361	0.1478439425051335	0.1812627291242362	1.28305785123967
13402.37426757812	-1.517454088629626	0.1026898446764208	9.248469620987544	-2.507207877517942	-0.7764703580966996	-2.902400654002868	0.1540041067761807	0.175152749490835	1.268595041322314
13421.90551757812	-1.562267308391448	0.1715335702867652	9.408910279714929	-3.228268035212101	-0.7764148034502825	-3.260153000529097	0.1498973305954825	0.175152749490835	1.272727272727273
13441.43676757812	-1.414518931170207	-0.07069445441170016	9.483964372340221	-3.952904554985362	-1.51266518481669	-3.260269139145028	0.1519507186858316	0.164969450101833	1.291322314049587
13460.96801757812	-1.355726668144011	-0.3416849560332303	9.524222271467037	-2.865763845754721	-2.267399390683838	-3.278687888296007	0.1663244353182751	0.1812627291242362	1.28099173553719
13480.49926757812	-1.521881390270504	-0.1720749828541296	9.729379675683463	-3.220817823740696	-2.278378576091447	-4.005174147669493	0.1478439425051335	0.1894093686354379	1.264462809917355
13500.03051757812	-1.347624406466353	-0.1323985580907873	9.58748021554508	-3.94910507742136	-3.007290982303977	-3.640216895545177	0.1498973305954825	0.185336048879837	1.28305785123967
13519.56176757812	-1.512473177129131	-0.2023663272717523	9.749105904304356	-3.597701833342787	-2.988973821742487	-2.548657245431442	0.162217659137577	0.1670061099796334	1.266528925619835
13539.09301757812	-1.147336718607679	-0.4043055390164829	9.577890620255969	-2.521624883576804	-2.606228235397943	-1.460700048116752	0.1786447638603696	0.164969450101833	1.274793388429752
13558.62426757812	-1.428359177660659	-0.2418361341102798	9.611972588688641	-0.7210601576941581	5.555464641699391e-05	-0.3577523465262293	0.1519507186858316	0.1690427698574338	1.272727272727273
13578.15551757812	-1.406463197956533	-0.2514231006726123	9.548773265217765	-1.075965392023534	-1.4982114530946	-1.099112971559616	0.1601642710472279	0.1629327902240326	1.270661157024793
13597.68676757812	-1.480347244292574	-0.08864560898793232	9.344908143085805	-0.7134983884803049	-2.617374084744803	-1.11392926791155	0.1765913757700205	0.1608961303462322	1.28305785123967
13617.21801757812	-1.651941853615144	-0.5007945326688964	9.731395120504779	0.01113813129295619	-1.881123703378396	-1.113813129295619	0.1519507186858316	0.164969450101833	1.289256198347108
13636.74926757812	-1.571310391383244	0.09860964011941779	9.710346379441463	-1.072426215858581	-0.3900835614984237	-1.453030588054939	0.1601642710472279	0.1588594704684318	1.285123966942149
13656.28051757812	-1.630575825229626	-0.2972195168242457	9.352527507654194	-1.43489321940181	0.7290790701517795	-1.438214291703004	0.1786447638603696	0.1771894093686354	1.285123966942149
13675.81176757812	-1.689409096393571	-0.2795756078339213	9.646969879785695	-1.442269059044915	1.487398931626241	-0.7006303273925585	0.1663244353182751	0.1690427698574338	1.28305785123967
13695.34301757812	-1.599040567300269	-0.1403564500937536	9.634685576675622	-1.441897199903418	-2.230820624207277	-0.7378162415423086	0.1437371663244353	0.1731160896130346	1.285123966942149
13714.87426757812	-1.666731596218104	-0.1789098827771868	9.557719873936778	-2.163106101254175	-0.7434772472274526	-1.080694222408638	0.1663244353182751	0.1690427698574338	1.276859504132231
13734.40551757812	-1.308263691789146	-0.1430052603451571	9.608789726304854	-1.797137107460142	-0.3826900316981278	-1.44570954384092	0.1540041067761807	0.1466395112016293	1.268595041322314
13753.93676757812	-1.588189971775361	-0.0801814242073666	9.606332392512019	-0.7178556547565526	4.454581046492759	-0.678202640286777	0.1642710472279261	0.1608961303462322	1.270661157024793
13773.46801757812	-1.699176130740252	0.2005997177273184	9.639204358008403	-1.442417802701514	2.974686753959649	-0.6857559617326585	0.1663244353182751	0.1588594704684318	1.264462809917355
13792.99926757812	-1.823663430441129	-0.05631784250929848	9.455447681370975	-1.449458969117271	0.3866090151839437	0.01836067984301215	0.1478439425051335	0.1690427698574338	1.268595041322314
13812.53051757812	-1.586860361770637	-0.6864181836391726	9.228678725687891	-1.453035331196374	-0.3496969208288809	0.37599688775331	0.1540041067761807	0.1690427698574338	1.289256198347108
13832.06176757812	-1.578557791112433	-0.4704003524596865	9.618593037081082	-1.826417350547661	0.4196576806996076	1.482314764911013	0.162217659137577	0.1731160896130346	1.276859504132231
13851.59301757812	-1.678363712214353	-0.3493376002826407	9.612123740478422	-0.7394625708877695	1.524033252749219	1.48248897283491	0.1498973305954825	0.164969450101833	1.28305785123967
13871.12426757812	-1.461555265168871	0.007430464262065125	9.718508838962357	-0.01843959910776114	1.895799653686154	1.843959910776114	0.1765913757700205	0.1771894093686354	1.272727272727273
13890.65551757812	-1.652887406637483	-0.2911002614794527	9.762913554582751	-0.01464012154375966	0.4011738561988677	1.464012154375967	0.1498973305954825	0.164969450101833	1.291322314049587
13910.18676757812	-1.569343578007336	-0.1607544235557052	9.644785933577857	-0.02186721753026512	-0.3277941046600779	2.186721753026512	0.1498973305954825	0.1547861507128309	1.28099173553719
13929.71801757812	-1.513329616313668	-0.262643242608086	9.777653877122269	-1.463727231519533	-2.930436684450706	1.445186920069228	0.1560574948665298	0.1608961303462322	1.276859504132231
13949.24926757812	-1.519282893849647	-0.2212348023447192	9.64276312832156	-1.460262427182879	-1.078664881687827	1.098706486403856	0.1540041067761807	0.1731160896130346	1.28305785123967
13968.78051757812	-1.506950485039522	-0.237247323496112	9.231682834650719	-1.101594901203651	-0.7032017158507436	1.463837946452069	0.1540041067761807	0.1629327902240326	1.272727272727273
13988.31176757812	-1.74600978990427	-0.4178764987357139	9.533659663475655	-0.735663093323768	0.02940745526193293	1.102541216434762	0.162217659137577	0.1670061099796334	1.291322314049587
14007.84301757812	-1.240302955503805	-0.2843646222795636	9.676765183460155	-0.01460293562960992	0.02935190061551593	1.460293562960991	0.1642710472279261	0.1568228105906314	1.266528925619835
14027.37426757812	-1.698276317563864	-0.1891093426789828	9.609210585462142	-0.3731589038663887	-1.461577131971622	1.084006328667853	0.1581108829568789	0.175152749490835	1.276859504132231
14046.90551757812	-1.619132977561451	0.1398136705884641	9.637765918715036	-0.3695825417872857	-0.7252711959587976	0.726370120757555	0.1601642710472279	0.1670061099796334	1.276859504132231
14066.43676757812	-1.609200333427705	-0.2403081078082912	9.64001111425682	0.7139074335359521	-1.472667426672066	1.073024762346825	0.162217659137577	0.1547861507128309	1.266528925619835
14085.96801757812	-1.315328920752563	-0.2019563510433285	9.510964025085414	-0.01449137788716067	-1.08611396613454	1.449137788716066	0.1724845995893224	0.1710794297352342	1.268595041322314
14105.49926757812	-1.509183062692768	-0.08130252360399494	9.639435423092261	0.36239263171493	-0.3755187204834998	-0.007379113521984299	0.1437371663244353	0.1588594704684318	1.278925619834711
14125.03051757812	-1.624020832133977	-0.1084334023899858	9.467361071132558	0.7174466097009052	-0.3645395350758898	0.7191071458515021	0.1745379876796715	0.164969450101833	1.285123966942149
14144.56176757812	-1.604093243041826	-0.2786568152501904	9.469774768060864	0.3552399075567241	-1.848130592509149	0.7078933022986114	0.1683778234086242	0.1670061099796334	1.278925619834711
