Time Stamp	Accelerometer X	Accelerometer Y	Accelerometer Z	Gyroscope X	Gyroscope Y	Gyroscope Z	Magnetometer X	Magnetometer Y	Magnetometer Z
1431.671142578125	-0.03717280517597412	-9.777886578203477	-2.10542767312355	52.61433356385275	-5.884256560248597	4.092100830623929	0.09053497942386832	-0.4539748953974895	0.6819172113289761
1451.202392578125	0.1056227015240678	-9.639750049613422	-2.147597942132097	1.760274439660479	1.172211218264441	-1.497711850081507	0.0925925925925926	-0.4560669456066945	0.6688453159041395
1470.733642578125	0.1451073136650496	-9.73169287591929	-2.172002257528001	-0.2931966346433316	1.483741414393536	1.524271376408086	0.1049382716049383	-0.4602510460251046	0.6535947712418301
1490.264892578125	-0.2076584647938626	-9.654735368275148	-2.252490120738464	-2.422175308287064	1.419872054184224	1.146274192239956	0.1008230452674897	-0.4602510460251046	0.6579520697167757
1509.796142578125	-0.037273845690179	-9.787990629623964	-2.105933886099717	-0.6845067953597235	0.7257334528556262	0.384615825094594	0.08641975308641976	-0.4476987447698744	0.6557734204793029
1529.327392578125	-0.2875501889705165	-9.563099705132458	-2.339616345732187	0.01508376762885473	0.7467211697452836	0.007467211697452836	0.08641975308641976	-0.4435146443514644	0.6601307189542485
1548.858642578125	-0.3802760792614739	-9.744779643319104	-2.511243763160591	-0.3233838946111852	0.7365671398780824	0.7620826525308564	0.07818930041152264	-0.4560669456066945	0.6557734204793029
1568.389892578125	-0.06746172011917001	-9.776475042220035	-2.024851904665729	-1.075777506655827	-1.524810638632511	0.7394688747457504	0.09465020576131689	-0.4581589958158995	0.6579520697167757
1587.921142578125	-0.1375828265722124	-9.717878616817199	-2.366057637894461	-1.798023308152904	-1.546478012677423	-0.01546478012677423	0.0925925925925926	-0.4518828451882845	0.6470588235294118
1607.452392578125	-0.04698080788984151	-9.748585839489204	-2.225272837427096	-0.3309356407806847	0.7363405874929974	0.3847218964409677	0.09465020576131689	-0.4518828451882845	0.6579520697167757
1626.983642578125	-0.2198469820223968	-9.863486081027563	-1.939817218316047	-1.053191304632833	1.087807245935642	-0.7438389086727191	0.09876543209876544	-0.4686192468619246	0.6579520697167757
1646.514892578125	-0.1273484328884004	-9.704540258537014	-2.02185403260927	-1.053161717567617	-0.03159485152702852	0.3770425420507675	0.08436213991769548	-0.4518828451882845	0.6623093681917211
1666.046142578125	-0.1992539148223009	-9.824381381219993	-2.028565143562758	-0.3083099893374026	1.856422342110923	0.395922713987147	0.09053497942386832	-0.4288702928870293	0.6535947712418301
1685.577392578125	-0.02805794038955221	-9.876501109662293	-1.847640988422364	0.04529075230685262	0.7476273792856235	1.516910236057007	0.08230452674897121	-0.4602510460251046	0.673202614379085
1705.108642578125	0.08419605008178171	-9.762213173640014	-2.315551526464012	-0.6845067953597235	0.7257334528556262	0.384615825094594	0.08024691358024692	-0.4435146443514644	0.6492374727668846
1724.639892578125	0.004731727280214375	-9.627837372988665	-2.168213238245318	-0.3158321484416857	0.7367936922631674	1.139443408620745	0.08436213991769548	-0.4581589958158995	0.6514161220043574
1744.171142578125	0.2264035009891513	-9.682882224317199	-2.178849773175666	-1.053161717567617	-0.03159485152702852	0.3770425420507675	0.08436213991769548	-0.4456066945606694	0.6535947712418301
1763.702392578125	-0.0657561562393917	-9.605918654242201	-2.137519150840161	0.09052233048327259	3.734058953496588	0.7920575706670414	0.0925925925925926	-0.4393305439330544	0.6601307189542485
1783.233642578125	-0.4128576034719784	-9.972629034066529	-2.129022654000673	0.0452710275967084	1.493895444260737	0.7696559355746829	0.09053497942386832	-0.4728033472803347	0.6535947712418301
1802.764892578125	-0.3302266709552303	-9.790343863199794	-1.917061884111966	-0.676945186835152	0.3528259727531544	1.135603731425645	0.102880658436214	-0.4435146443514644	0.6601307189542485
1822.296142578125	0.09156897640331153	-10.03502155158804	-2.308916195896177	-1.113486925727964	-3.391613562995719	0.7208008455021183	0.09670781893004116	-0.4665271966527196	0.6601307189542485
1841.827392578125	-0.1069564363115722	-9.685542621056213	-2.101508311577543	-0.3233838946111852	0.7365671398780824	0.7620826525308564	0.0925925925925926	-0.4707112970711297	0.6514161220043574
1861.358642578125	0.1548223591058485	-9.770289341940412	-1.971814728354447	-0.6844969330046514	0.3525994203680694	0.7582429753357562	0.07613168724279835	-0.4581589958158995	0.6557734204793029
1880.889892578125	-0.01698693124812386	-9.779501205620472	-2.226518666967242	-0.6844969330046514	0.3525994203680694	0.7582429753357562	0.09053497942386832	-0.4351464435146443	0.6644880174291939
1900.421142578125	0.3764052171622851	-9.834225758518974	-1.8616846094917	-1.068265209906616	-0.03204795629719848	-0.3776789701290098	0.08230452674897121	-0.4372384937238493	0.6579520697167757
1919.952392578125	-0.2788293821894937	-9.701120037131179	-1.982793790627949	0.4290097174334567	2.997944918388676	0.7846964303159623	0.08024691358024692	-0.4560669456066945	0.6557734204793029
1939.483642578125	-0.1065623783061732	-9.646136820516311	-2.200544181980595	-0.3233740322561131	0.3634331073905256	1.135709802772018	0.08436213991769548	-0.4518828451882845	0.6601307189542485
1959.014892578125	-0.03767901815214056	-9.828507875820119	-2.118064810235154	-0.3459898213443231	-1.129782679714956	1.498136135467002	0.09053497942386832	-0.4435146443514644	0.6644880174291939
1978.546142578125	0.01440938773075747	-9.670172338035366	-2.34195038161032	-0.6995905629885782	-0.02098771688965735	0.3771486133971412	0.08230452674897121	-0.4539748953974895	0.6579520697167757
1998.077392578125	0.1076374493773131	-9.438275264288896	-2.198110115993399	-0.3158420107967578	1.109927724750724	0.7658162583795828	0.08436213991769548	-0.4560669456066945	0.636165577342048
2017.608642578125	0.05188228323392009	-9.963286828123145	-2.285524306452606	-1.022974457599763	0.715579422988425	1.139231265927998	0.09876543209876544	-0.4560669456066945	0.6383442265795207
2037.139892578125	-0.09827503533108921	-9.827503533108922	-2.138822573473404	-0.6769649115452961	1.099094037728268	0.3883494309433204	0.08641975308641976	-0.4560669456066945	0.6492374727668846
2056.671142578125	-0.1270604674229165	-9.675743711988623	-2.171926477142347	-0.3083099893374026	1.856422342110923	0.395922713987147	0.08230452674897121	-0.4476987447698744	0.6579520697167757
2076.202392578125	-0.1984546843549404	-9.744458334483934	-2.115470089830373	-0.6844969330046514	0.3525994203680694	0.7582429753357562	0.09053497942386832	-0.4581589958158995	0.6623093681917211
2095.733642578125	-0.03696870333728027	-9.757476394334091	-2.084203102709674	0.05282277376620787	1.494121996645822	1.147016691664571	0.0925925925925926	-0.4476987447698744	0.6492374727668846
2115.264892578125	0.05422541275833117	-9.728973875682037	-2.081866035616115	-0.6845166577147956	1.098867485343183	0.01098867485343183	0.07613168724279835	-0.4539748953974895	0.6470588235294118
2134.796142578125	-0.2384414678515203	-9.702732643737889	-2.063278622622986	-1.068245485196472	-0.7783160212723121	0.3695753303533146	0.08847736625514405	-0.4414225941422594	0.6492374727668846
2154.327392578125	0.2475128852168341	-9.592145821750934	-2.153899839003055	0.3837781392570367	0.0115133441777111	1.509549095705928	0.08641975308641976	-0.4476987447698744	0.6557734204793029
2173.858642578125	0.2271087637783013	-9.612355945402193	-2.195518426804044	-0.3233838946111852	0.7365671398780824	0.7620826525308564	0.1152263374485597	-0.4372384937238493	0.6383442265795207
2193.389892578125	-0.1478414699794335	-9.733641947438301	-1.942705966617164	-0.6618712815613693	1.472681174985995	0.7694437928819354	0.09465020576131689	-0.4435146443514644	0.6579520697167757
2212.921142578125	-0.09785268598171283	-9.785268598171285	-1.954888421414846	-0.3309356407806847	0.7363405874929974	0.3847218964409677	0.09053497942386832	-0.4393305439330544	0.6514161220043574
2232.452392578125	-0.09625523545213373	-9.625523545213374	-2.138804386180847	0.01510349233899894	0.0004531047701699683	0.7547215121797772	0.0925925925925926	-0.4581589958158995	0.6448801742919391
2251.983642578125	-0.03827414678080728	-9.888020738686791	-2.009935293553663	-0.3158321484416857	0.7367936922631674	1.139443408620745	0.102880658436214	-0.4497907949790795	0.673202614379085
2271.514892578125	-0.0977961032937581	-9.779610329375812	-2.399049386592638	-0.3384577998849678	-0.383288062354758	1.128242591074566	0.07818930041152264	-0.4623430962343096	0.6514161220043574
2291.046142578125	0.03595021495409515	-9.536291635903622	-2.042111645302206	-0.6995807006335061	-0.3941217493772142	0.7507757636383033	0.1008230452674897	-0.4581589958158995	0.6557734204793029
2310.577392578125	0.0828926274485388	-9.892555436964305	-2.221071572846458	0.06035479522556313	2.240616614006021	0.7771231472721357	0.09670781893004116	-0.4393305439330544	0.6427015250544663
2330.108642578125	-0.1369503129532899	-9.654627254924947	-2.100262482037397	-0.3233740322561131	0.3634331073905256	1.135709802772018	0.08847736625514405	-0.4644351464435146	0.6535947712418301
2349.639892578125	0.02282808337430781	-9.838403783781343	-1.976540393203809	-0.6769649115452961	1.099094037728268	0.3883494309433204	0.08847736625514405	-0.4393305439330544	0.6492374727668846
2369.171142578125	0.01253508619225701	-9.857602491885412	-1.896795177772752	-0.3233838946111852	0.7365671398780824	0.7620826525308564	0.09465020576131689	-0.4560669456066945	0.6492374727668846
2388.702392578125	-0.06786790298627361	-9.817093328930394	-2.047088901031938	0.3988421821757472	1.504502578898108	0.7697620069210566	0.08230452674897121	-0.4435146443514644	0.6339869281045752
2408.233642578125	-0.04563797945605869	-9.614302996110922	-1.925615974044551	-0.6467875139325145	2.219402344731279	0.7769110045793883	0.0925925925925926	-0.4539748953974895	0.6470588235294118
2427.764892578125	-0.1368563452750793	-9.645230487103893	-2.170498774676632	-0.3158321484416857	0.7367936922631674	1.139443408620745	0.1008230452674897	-0.4581589958158995	0.6601307189542485
2447.296142578125	-0.1985769433771282	-9.756684236702725	-2.328203819652746	-0.7297580982462877	-1.514430056380224	0.3622141900022355	0.08230452674897121	-0.4539748953974895	0.6666666666666667
2466.827392578125	0.2661023190202473	-9.753404461611634	-2.080968795849975	-0.3535514298688947	-0.7568751996124847	0.7471482291359507	0.08641975308641976	-0.4476987447698744	0.6514161220043574
2486.358642578125	-0.02594417283238619	-9.665124353945693	-1.917859093769043	-0.6920388168190788	-0.02076116450457237	0.7545093694870298	0.09053497942386832	-0.4435146443514644	0.6623093681917211
2505.889892578125	-0.07633913969721048	-9.654115989923071	-1.92791363533757	-1.03806808758369	0.3419922857306982	0.7581369039893825	0.08230452674897121	-0.4476987447698744	0.6819172113289761
2525.421142578125	0.06391923969114705	-9.769692192501461	-2.093906023288768	-1.083339115180399	-1.151903158530039	-0.01151903158530039	0.09053497942386832	-0.4456066945606694	0.6535947712418301
2544.952392578125	-0.2082535934225293	-9.714248231141818	-2.144360604056973	-0.6467776515774426	1.846268312243722	1.15053815482055	0.1008230452674897	-0.4476987447698744	0.6470588235294118
2564.483642578125	-0.2893547725542156	-9.743558063502368	-2.207243168072378	-0.3309159160705404	-0.009927477482116214	1.131976196923292	0.08230452674897121	-0.4351464435146443	0.6557734204793029
2584.014892578125	-0.08774661375094106	-9.784762385195119	-1.884054979336659	-1.083309528115182	-2.271305255992709	1.109362419138186	0.08024691358024692	-0.4476987447698744	0.6448801742919391
2603.546142578125	0.1455326942298521	-9.689154819439038	-1.957749888777128	-1.075787369010899	-1.151676606144954	0.3658417245045882	0.08641975308641976	-0.4393305439330544	0.6492374727668846
2623.077392578125	0.08423141426175343	-9.758676755642844	-1.961838998387	0.06037451993570735	1.494348549030907	1.52437744775446	0.09465020576131689	-0.4476987447698744	0.6514161220043574
2642.608642578125	-0.02624931518528491	-9.695638589235564	-1.939589877159086	-0.3083001269823305	1.483288309623366	0.7695498642283092	0.08641975308641976	-0.4456066945606694	0.6623093681917211
2662.139892578125	-0.04889653603916597	-9.940158654421651	-2.194466595051171	-0.2856843378941205	2.976504096728848	0.4071235315333263	0.09053497942386832	-0.4456066945606694	0.6318082788671024
2681.671142578125	-0.3798355426195406	-9.700725979125778	-2.145400310948141	-0.6694230277308688	1.47245462260091	0.3920830367920469	0.09465020576131689	-0.4581589958158995	0.6623093681917211
2701.202392578125	-0.209471131618698	-9.836002050758696	-2.200965520924829	3.944942028843296e-05	-1.492536129950227	1.494508600964649	0.09053497942386832	-0.4476987447698744	0.6557734204793029
2720.733642578125	0.08676348954772763	-9.505469227045424	-1.888547240598208	-0.6920289544640067	-0.3938951969921292	1.128136519728192	0.1049382716049383	-0.4707112970711297	0.6579520697167757
2740.264892578125	-0.1799723534965843	-9.916427268850351	-2.103681693038089	-0.3158321484416857	0.7367936922631674	1.139443408620745	0.08436213991769548	-0.4539748953974895	0.6579520697167757
2759.796142578125	0.002826103182310406	-9.818399782779062	-2.036346273561676	-0.714674330617433	-0.767708886634941	0.3696814016996884	0.09876543209876544	-0.4539748953974895	0.6557734204793029
2779.327392578125	-0.01718193944053927	-9.799002024862013	-2.156788587304173	-0.3158420107967578	1.109927724750724	0.7658162583795828	0.08847736625514405	-0.4497907949790795	0.6514161220043574
2798.858642578125	0.03372126121073557	-9.759187010239577	-2.113884764162498	-0.3309356407806847	0.7363405874929974	0.3847218964409677	0.0720164609053498	-0.4309623430962343	0.6557734204793029
2818.389892578125	-0.1370503430623527	-9.66463026583123	-2.090662622782791	-1.023013907020052	2.208115552938652	-0.3552773350366513	0.08641975308641976	-0.4456066945606694	0.6535947712418301
2837.921142578125	-0.2784363345892367	-9.661815277105482	-2.091935733261773	0.06035479522556313	2.240616614006021	0.7771231472721357	0.07407407407407408	-0.4518828451882845	0.6514161220043574
2857.452392578125	-0.1174888995122886	-9.728687931026837	-2.396700194637374	-0.361093313683322	-1.130235784485127	0.7434146232872243	0.08436213991769548	-0.4456066945606694	0.6557734204793029
2876.983642578125	0.2167116948666195	-9.641961826469366	-2.146597641041469	0.03773900613735315	0.7474008269005386	1.139549479967119	0.08847736625514405	-0.4435146443514644	0.6492374727668846
2896.514892578125	0.09481540812471423	-9.710378379447771	-2.161338441658819	-0.278132591724621	2.976730649113933	0.7844842876232149	0.09465020576131689	-0.4518828451882845	0.6448801742919391
2916.046142578125	-0.1661116157579593	-9.540454505088862	-1.852421215149397	-0.6769747739003683	1.472228070215825	0.01472228070215825	0.09053497942386832	-0.4581589958158995	0.6339869281045752
2935.577392578125	0.2564064712771474	-9.71288822582062	-2.089140952638866	-0.3308961913603962	-0.7561955424572299	1.879230497405616	0.08641975308641976	-0.4539748953974895	0.6579520697167757
2955.108642578125	0.02494185093147382	-9.627027028064743	-2.046758498550488	-1.015462160850552	2.208342105323737	0.02208342105323737	0.09053497942386832	-0.4581589958158995	0.6383442265795207
2974.639892578125	-0.1167684806460078	-9.656646044398761	-2.261777764804176	-1.399190988332229	0.3311585987082421	0.3806700765531202	0.08230452674897121	-0.4456066945606694	0.6492374727668846
2994.171142578125	0.1358277528404737	-9.649547948275869	-2.056876695642964	-2.12896881128866	-0.4370033926968688	-0.004370033926968688	0.08436213991769548	-0.4518828451882845	0.6601307189542485
3013.702392578125	-0.05524289073637428	-9.56469311404147	-2.034342640164993	0.007561608524571581	-0.3729074801024718	0.7509879063310508	0.09670781893004116	-0.4330543933054393	0.6688453159041395
3033.233642578125	0.06449719143239895	-9.71189701837627	-2.373838767893379	0.3837584145468925	0.7577814091528248	0.7622947952236038	0.08230452674897121	-0.4456066945606694	0.6688453159041395
3052.764892578125	-0.1265380879644773	-9.623505766144703	-1.997592184338395	-1.053161717567617	-0.03159485152702852	0.3770425420507675	0.0925925925925926	-0.4456066945606694	0.6535947712418301
3072.296142578125	-0.07811037991122198	-9.831240011324219	-2.472141084163303	-0.7071324468030056	-0.3943483017622991	0.3734150075484148	0.08641975308641976	-0.4476987447698744	0.6514161220043574
3091.827392578125	0.004341710895383551	-9.666839011471748	-2.028753078919179	-0.7146644682623609	-1.140842919122498	0.7433085519408505	0.09670781893004116	-0.4581589958158995	0.6535947712418301
3111.358642578125	0.001614627416993934	-9.93954735931071	-2.032314757044901	-0.6769649115452961	1.099094037728268	0.3883494309433204	0.08847736625514405	-0.4476987447698744	0.6492374727668846
3130.889892578125	0.09402729211391619	-9.789189980527576	-1.963266700852714	-1.384117083058446	1.451013800941082	0.01451013800941083	0.102880658436214	-0.4581589958158995	0.6688453159041395
3150.421142578125	0.08401215634592885	-9.780602547225303	-2.134654652262452	0.03771928142720893	1.493668891875652	0.3922951794847943	0.09465020576131689	-0.4623430962343096	0.6557734204793029
3169.952392578125	-0.2072482403061908	-9.613712919507966	-2.189828835449168	-0.7222162144318603	-1.141069471507583	0.3659477958509619	0.0925925925925926	-0.4456066945606694	0.6557734204793029
3189.483642578125	-0.2200450214302384	-9.883290021811719	-1.900405355345293	-0.3761770813121768	-1.87695695423041	0.7359474115897714	0.09465020576131689	-0.4518828451882845	0.6535947712418301
3209.014892578125	0.06593600835467639	-9.568015326148526	-2.124206052688526	-0.7146644682623609	-1.140842919122498	0.7433085519408505	0.09053497942386832	-0.4414225941422594	0.6448801742919391
3228.546142578125	0.05250873442199032	-9.900641709316123	-2.080365583980172	-0.6769649115452961	1.099094037728268	0.3883494309433204	0.08847736625514405	-0.4414225941422594	0.6688453159041395
3248.077392578125	0.002720010642395279	-9.829009036770575	-2.087382847691701	-1.038077949938762	0.715126318218255	0.3845097537482203	0.1069958847736626	-0.4456066945606694	0.6644880174291939
3267.608642578125	0.03339490034985381	-9.791823096327754	-2.347843064398748	-0.3233838946111852	0.7365671398780824	0.7620826525308564	0.09670781893004116	-0.4456066945606694	0.6666666666666667
3287.139892578125	-0.2701459603987265	-9.842878868155479	-1.999895908062266	-0.7146940553275772	-0.02144082165982732	-0.3775728987826361	0.09670781893004116	-0.4456066945606694	0.6535947712418301
3306.671142578125	-0.1789498234928309	-9.814174268475014	-1.977346696507164	-1.053161717567617	-0.03159485152702852	0.3770425420507675	0.08024691358024692	-0.4351464435146443	0.6710239651416122
3326.202392578125	0.1352023120575455	-9.712092026568687	-2.251929345884627	-0.6995807006335061	-0.3941217493772142	0.7507757636383033	0.07818930041152264	-0.4414225941422594	0.6535947712418301
3345.733642578125	-0.07726062918675897	-9.746264938877918	-2.053742418892329	0.01510349233899894	0.0004531047701699683	0.7547215121797772	0.09053497942386832	-0.4414225941422594	0.6557734204793029
3365.264892578125	-0.1572736019804588	-9.666754137439815	-2.343496301477654	-0.6845067953597235	0.7257334528556262	0.384615825094594	0.1008230452674897	-0.4414225941422594	0.6383442265795207
3384.796142578125	0.03424768228974297	-9.706544902338837	-1.899126182435459	-0.7297482358912155	-1.887564088867781	0.7358413402433978	0.09053497942386832	-0.4351464435146443	0.6535947712418301
3404.327392578125	-0.06806998401468337	-9.837301431771369	-2.048101326984271	-1.04561983375319	0.3417657333456133	0.3807761478994939	0.08230452674897121	-0.4288702928870293	0.6623093681917211
3423.858642578125	-0.09928341966285388	-9.928341966285389	-2.123672558773524	-0.669442752441013	2.218722687576024	-0.3551712636902775	0.102880658436214	-0.4476987447698744	0.6644880174291939
3443.389892578125	-0.3493273697605202	-9.680211723526764	-2.053160425530509	-0.6543195353918699	1.47290772737108	1.146804548971824	0.07407407407407408	-0.4476987447698744	0.6579520697167757
3462.921142578125	-0.08545905650934264	-9.556006661035276	-2.236230681192615	-1.090880998994826	-1.525263743402681	-0.01525263743402681	0.08436213991769548	-0.4372384937238493	0.6514161220043574
3482.452392578125	0.194614134410013	-9.831515851928	-1.954276115898765	0.3536007416442552	-1.108794962825299	1.12098752206986	0.07818930041152264	-0.4393305439330544	0.6623093681917211
3501.983642578125	0.255299067241462	-9.823628629389166	-2.054285006453609	0.4063840659901746	1.87786316377075	0.7734956127697831	0.07818930041152264	-0.4414225941422594	0.636165577342048
3521.514892578125	-0.07888738146545748	-9.908940166747771	-2.16290254881871	0.4441033474173836	3.371532055646402	1.165790792254577	0.08847736625514405	-0.4414225941422594	0.6427015250544663
3541.046142578125	-0.1079819975307517	-9.788098742974164	-2.258161524800784	-0.6845067953597235	0.7257334528556262	0.384615825094594	0.09876543209876544	-0.4539748953974895	0.6710239651416122
3560.577392578125	-0.1981252922786325	-9.711519126853146	-1.851193572901807	-1.429348661234866	-1.535417773269882	0.7393628033993768	0.0925925925925926	-0.4560669456066945	0.6601307189542485
3580.108642578125	0.0328270526600224	-9.848607865310894	-1.96684959748642	-1.053161717567617	-0.03159485152702852	0.3770425420507675	0.1069958847736626	-0.4497907949790795	0.6557734204793029
3599.639892578125	0.1041262915086936	-9.789391051150844	-1.96317576438993	-0.3460095460544673	-0.383514614739843	0.7508818349846771	0.0925925925925926	-0.4393305439330544	0.6862745098039217
3619.171142578125	-0.2593608959124979	-9.774473429633636	-2.208488997612524	-1.060723326092188	0.3413126285754433	-0.3739453642802834	0.08641975308641976	-0.4435146443514644	0.6601307189542485
3638.702392578125	-0.01951597531867193	-10.03240561267528	-2.269492208063718	-0.3158518731518299	1.483061757238281	0.3921891081384206	0.08436213991769548	-0.4435146443514644	0.6623093681917211
3658.233642578125	-0.05726370102047181	-9.766774142451224	-2.044466899688322	-1.038038500518474	-0.7774098117319722	1.879018354712869	0.09465020576131689	-0.4476987447698744	0.6753812636165578
3677.764892578125	0.00353035556631839	-9.747974544378263	-2.063120999420826	-0.6920190921089346	-0.767029229479686	1.501763669969354	0.09465020576131689	-0.4518828451882845	0.6579520697167757
3697.296142578125	0.2952767570917634	-9.866263684763055	-2.197431123737942	-1.038097674648906	1.461394383193369	-0.3627445467341041	0.1049382716049383	-0.4351464435146443	0.6601307189542485
3716.827392578125	0.1142212492829029	-9.789996283830931	-2.003509116850233	-1.022994182309908	1.461847487963539	0.3919769654456732	0.102880658436214	-0.4476987447698744	0.6688453159041395
3736.358642578125	-0.06627146286183656	-9.657449316486689	-2.241110938028711	-1.060703601382045	-0.4049554363996703	0.3733089362020411	0.08641975308641976	-0.4456066945606694	0.6688453159041395
3755.889892578125	-0.02394053943570348	-9.464761014277421	-2.079538062168834	-0.6769649115452961	1.099094037728268	0.3883494309433204	0.07818930041152264	-0.4581589958158995	0.6579520697167757
3775.421142578125	-0.1336159759845289	-9.321193558048853	-2.083557453823905	0.05280304905606366	2.240390061620936	0.3997623911822471	0.07613168724279835	-0.4476987447698744	0.6601307189542485
3794.952392578125	-0.3281290698803371	-9.580583755710471	-2.148977145150994	-0.7071324468030056	-0.3943483017622991	0.3734150075484148	0.0925925925925926	-0.4623430962343096	0.6579520697167757
3814.483642578125	-0.2587496008015585	-9.713343918539685	-2.154921358601667	-0.3535317051587504	-1.503143264587598	1.494402529618275	0.0925925925925926	-0.4518828451882845	0.6514161220043574
3834.014892578125	0.1356226405966378	-9.670059172659458	-2.088207338287613	-0.3158420107967578	1.109927724750724	0.7658162583795828	0.09053497942386832	-0.4581589958158995	0.6710239651416122
3853.546142578125	-0.1601775063587069	-9.957144575264632	-2.095418599786415	-0.669432890085941	1.845588655088467	0.01845588655088467	0.08641975308641976	-0.4602510460251046	0.673202614379085
3873.077392578125	-0.05798310948161053	-9.838714988565096	-2.169283257290748	-0.6920388168190788	-0.02076116450457237	0.7545093694870298	0.1049382716049383	-0.4414225941422594	0.6644880174291939
3892.608642578125	-0.008396466730425246	-9.93055576395162	-2.163278419531552	-0.3309257784256125	0.3632065550054406	0.75834904668213	0.08436213991769548	-0.4456066945606694	0.6862745098039217
3912.139892578125	0.124603162117454	-9.761906010476832	-2.204020986074384	0.03016753525770946	1.493442339490567	0.01493442339490567	0.09053497942386832	-0.4456066945606694	0.6535947712418301
3931.671142578125	-0.2092498528925894	-9.813874178147827	-2.007937722587833	-1.075807093721043	-0.4054085411698403	-0.3814125759777361	0.09876543209876544	-0.4393305439330544	0.6535947712418301
3951.202392578125	-0.1394682425672754	-9.9064202163235	-2.032069228595383	-0.7071324468030056	-0.3943483017622991	0.3734150075484148	0.08847736625514405	-0.4560669456066945	0.6405228758169935
3970.733642578125	0.2347898636681561	-9.854346966517731	-2.136834096153852	-1.045609971398118	-0.03136829914194354	0.7544032981406561	0.0925925925925926	-0.4456066945606694	0.6579520697167757
3990.264892578125	0.0143123888371208	-9.679872227399034	-2.302032305663399	0.3837485521918205	1.130915441640381	0.3886676449824416	0.1049382716049383	-0.4560669456066945	0.6514161220043574
4009.796142578125	-0.1584870985560594	-9.788103794999873	-2.359676929422423	-0.669432890085941	1.845588655088467	0.01845588655088467	0.102880658436214	-0.4456066945606694	0.6514161220043574
4029.327392578125	-0.2609654192780714	-9.934925766190981	-2.095315538461926	-1.421826502130583	-0.4157891234221265	-0.004157891234221264	0.09876543209876544	-0.4497907949790795	0.6688453159041395
4048.858642578125	-0.04696868302813693	-9.747373353318745	-2.103999970657835	-0.3611031760383941	-0.7571017519975698	0.3697874730460621	0.08436213991769548	-0.4435146443514644	0.6514161220043574
4068.389892578125	0.05512366292961253	-9.639148858553902	-2.188476913369106	-0.6920486791741509	0.3523728679829845	0.3808822192458676	0.1008230452674897	-0.4602510460251046	0.6623093681917211
4087.921142578125	-0.08766780214986125	-9.776881225087138	-2.105882355437472	-0.3158321484416857	0.7367936922631674	1.139443408620745	0.0925925925925926	-0.4476987447698744	0.6492374727668846
4107.452392578125	-0.05625733749899124	-9.666137790303168	-2.079829058849744	-1.045600109043046	-0.4045023316295003	1.128030448381818	0.09876543209876544	-0.4476987447698744	0.6535947712418301
4126.983642578125	0.02320193327686585	-9.80101879352554	-2.277697708222297	-0.6845067953597235	0.7257334528556262	0.384615825094594	0.0925925925925926	-0.4435146443514644	0.6688453159041395
4146.514892578125	0.005549145040131828	-9.546095596996921	-2.073208884359041	-0.3158420107967578	1.109927724750724	0.7658162583795828	0.09876543209876544	-0.4476987447698744	0.6514161220043574
4166.046142578125	-0.218440498064665	-9.722837685254374	-2.013578814495891	-1.083329252825327	-1.525037191017595	0.3621081186558618	0.09053497942386832	-0.4330543933054393	0.6623093681917211
4185.577392578125	-0.1268503031533704	-9.65472728503401	-2.090065473343841	-1.098422882809253	-1.898624328275322	-0.01898624328275322	0.08230452674897121	-0.4602510460251046	0.6601307189542485
4205.108642578125	-0.06685648743908279	-9.715951774211312	-2.031920699039502	-0.3309553654908289	1.482608652468111	-0.3625324040413567	0.1008230452674897	-0.4372384937238493	0.6535947712418301
4224.639892578125	-0.1771634272016887	-9.635534639360793	-2.291629174320865	0.06035479522556313	2.240616614006021	0.7771231472721357	0.09670781893004116	-0.4581589958158995	0.6514161220043574
4244.171142578125	-0.3796375032116991	-9.680922038341624	-2.184812173918895	-1.060703601382045	-0.4049554363996703	0.3733089362020411	0.0925925925925926	-0.4497907949790795	0.6579520697167757
4263.702392578125	0.06331097579563369	-9.830518582052795	-2.11715544560731	-1.113496788083036	-3.018479530508163	0.3471736952609561	0.0925925925925926	-0.4497907949790795	0.6492374727668846
4283.233642578125	0.02465287506084788	-9.655924615127336	-1.906792126248183	-0.3158518731518299	1.483061757238281	0.3921891081384206	0.09876543209876544	-0.4435146443514644	0.6405228758169935
4302.764892578125	-0.2372097839833628	-9.579564256922144	-1.865188694524325	-1.038087812293834	1.088260350705812	0.01088260350705812	0.08436213991769548	-0.4393305439330544	0.6427015250544663
4322.296142578125	-0.1298784873640906	-9.957545706106025	-2.074933645936518	-1.075777506655827	-1.524810638632511	0.7394688747457504	0.08847736625514405	-0.4560669456066945	0.6492374727668846
4341.827392578125	-0.1065553054701789	-9.645429536916877	-2.129801676365192	-0.3459996836993952	-0.7566486472273998	1.124508985225839	0.09876543209876544	-0.4476987447698744	0.636165577342048
4361.358642578125	0.3154798079070285	-9.866160623438565	-2.146718889658515	-0.3083001269823305	1.483288309623366	0.7695498642283092	0.09465020576131689	-0.4581589958158995	0.6644880174291939
4380.889892578125	0.04574104078054767	-9.567310063359376	-2.09406970892178	-0.3158321484416857	0.7367936922631674	1.139443408620745	0.08847736625514405	-0.4539748953974895	0.6644880174291939
4400.421142578125	0.1141131359327036	-9.800807618850852	-2.074757835441801	-0.3384479375298957	-0.7564220948423148	1.501869741315728	0.08641975308641976	-0.4456066945606694	0.6448801742919391
4419.952392578125	0.1128076924891766	-9.931351963203554	-2.000490026285791	-0.3158222860866136	0.3636596597756105	1.513070558861907	0.102880658436214	-0.4288702928870293	0.6448801742919391
4439.483642578125	-0.1176546059555846	-9.745258575356436	-2.033894020281923	0.06034493287049102	2.613750646493577	0.4034959970309736	0.09876543209876544	-0.4351464435146443	0.6579520697167757
4459.014892578125	-0.5119338900807123	-9.779247593929815	-2.180950405465985	-0.2932262217085478	2.603143511856206	0.4033899256845999	0.08847736625514405	-0.4456066945606694	0.6514161220043574
4478.546142578125	-0.2996497905465505	-9.762958852634847	-2.147710097102864	-0.7448320035200703	-2.634285258613065	0.7283741285459449	0.09670781893004116	-0.4476987447698744	0.6557734204793029
4498.077392578125	0.225093005519914	-9.813931771240924	-2.155112325173514	-1.45198417503322	-2.282365495400251	0.3545348356120352	0.09670781893004116	-0.4435146443514644	0.6579520697167757
4517.608642578125	0.1045152974883824	-9.750490453181964	-2.112741995946841	-0.3158321484416857	0.7367936922631674	1.139443408620745	0.09670781893004116	-0.4644351464435146	0.6535947712418301
4537.139892578125	-0.006274615932122828	-9.718370684121378	-2.152647947032057	-0.6920388168190788	-0.02076116450457237	0.7545093694870298	0.08641975308641976	-0.4539748953974895	0.6644880174291939
4556.671142578125	-0.114120208768698	-9.391818856667779	-2.036388710577642	-0.3158518731518299	1.483061757238281	0.3921891081384206	0.08847736625514405	-0.4497907949790795	0.6557734204793029
4576.202392578125	-0.1580778844735296	-9.747182386746896	-2.307121716363898	-0.6996004253436504	0.3521463155978994	0.003521463155978994	0.09053497942386832	-0.4623430962343096	0.6601307189542485
4595.733642578125	-0.1784304752498179	-9.762239444173709	-1.833330620395527	0.02264537615342631	0.3738136896428118	0.7584551180285036	0.1111111111111111	-0.4707112970711297	0.6405228758169935
4615.264892578125	-0.1287609792769846	-9.845794897395431	-2.008728869814057	-1.060703601382045	-0.4049554363996703	0.3733089362020411	0.1131687242798354	-0.4518828451882845	0.6557734204793029
4634.796142578125	0.06241272562435234	-9.920343599180931	-2.010544567854319	-0.6995807006335061	-0.3941217493772142	0.7507757636383033	0.08641975308641976	-0.4644351464435146	0.6666666666666667
4654.327392578125	0.1561954996938928	-9.632975283135986	-2.37907670814976	-0.7071225844479335	-0.7674823342498559	0.7470421577895769	0.1090534979423868	-0.4497907949790795	0.6535947712418301
4673.858642578125	0.02402036144192535	-9.719175977019589	-2.172587282105247	-0.6618811439164415	1.845815207473552	0.3958166426407733	0.102880658436214	-0.4539748953974895	0.6579520697167757
4693.389892578125	0.09463656641457159	-9.728262550462034	-1.929911206303401	-0.3083001269823305	1.483288309623366	0.7695498642283092	0.09876543209876544	-0.4414225941422594	0.6579520697167757
4712.921142578125	-0.1774291637540476	-9.662108294596676	-1.919223140710809	-0.3158222860866136	0.3636596597756105	1.513070558861907	0.08641975308641976	-0.4539748953974895	0.6405228758169935
4732.452392578125	0.09319370787172596	-9.872548404746597	-2.21996821043134	-0.7297580982462877	-1.514430056380224	0.3622141900022355	0.09465020576131689	-0.4518828451882845	0.6427015250544663
4751.983642578125	0.2164095837291469	-9.672172940216623	-2.138010207739196	-0.6920486791741509	0.3523728679829845	0.3808822192458676	0.09670781893004116	-0.4456066945606694	0.6557734204793029
4771.514892578125	0.1848081525064297	-9.802013032185318	-2.053909135740767	-0.3082902646272583	1.110154277135809	1.143177014469471	0.09053497942386832	-0.4351464435146443	0.6514161220043574
4791.046142578125	-0.05708890093089738	-9.749294133493779	-2.316318423966826	-0.6694131653757966	1.099320590113353	0.765710187033209	0.08024691358024692	-0.4435146443514644	0.6427015250544663
4810.577392578125	0.1873260821204152	-9.550220070786764	-2.122102389182781	0.3762165307324652	0.3844208242801829	0.7585611893748774	0.09465020576131689	-0.4476987447698744	0.6666666666666667
4830.108642578125	0.07276533670978401	-9.895183500738774	-2.504132531770851	-0.3535612922239668	-0.383741167124928	0.3735210788947885	0.09053497942386832	-0.4456066945606694	0.6579520697167757
4849.639892578125	-0.0164675830051108	-9.727566381319164	-2.082502590855606	-0.3083099893374026	1.856422342110923	0.395922713987147	0.08641975308641976	-0.4456066945606694	0.6623093681917211
4869.171142578125	0.01331511896191866	-9.779599214919248	-2.17571549642503	-0.6844969330046514	0.3525994203680694	0.7582429753357562	0.08641975308641976	-0.4372384937238493	0.6427015250544663
4888.702392578125	-0.1379314163462192	-9.75273759421788	-1.81224851710668	-0.3384676622400399	-0.0101540298672012	0.7546154408334035	0.1069958847736626	-0.4518828451882845	0.6427015250544663
4908.233642578125	0.07827608635451798	-9.344108536265377	-1.931069130596188	2.958706521632559e-05	-1.11940209746267	1.120881450723487	0.102880658436214	-0.4518828451882845	0.6448801742919391
4927.764892578125	0.1043101852445465	-9.771001677565556	-2.144072638591489	0.07543856285441786	2.987337783751304	0.7845903589695886	0.09053497942386832	-0.4581589958158995	0.6535947712418301
4947.296142578125	-0.2370289214629361	-9.561478004879472	-2.076403785418199	-1.030555790834479	1.83475496806601	-0.3590109408853777	0.08230452674897121	-0.4351464435146443	0.6383442265795207
4966.827392578125	-0.2900590249382236	-9.813983301903168	-2.180468442213228	-1.421836364485655	-0.04265509093456965	-0.3777850414753834	0.09053497942386832	-0.4560669456066945	0.6535947712418301
4986.358642578125	-0.1771411982885636	-9.633311748048285	-2.069295585243886	-1.444442291218793	-1.909004910527609	0.3582684414607617	0.09670781893004116	-0.4623430962343096	0.673202614379085
5005.889892578125	0.1251346352221716	-9.708758700005067	-1.938732043193486	2.958706521632559e-05	-1.11940209746267	1.120881450723487	0.0925925925925926	-0.4393305439330544	0.6535947712418301
5025.421142578125	0.3044815479358277	-9.955885610457639	-2.05030502059908	0.02264537615342631	0.3738136896428118	0.7584551180285036	0.09876543209876544	-0.4602510460251046	0.6601307189542485
5044.952392578125	-0.0161755759190587	-9.698365672713955	-2.192150746465595	-0.6618614192062973	1.099547142498438	1.143070943123098	0.08024691358024692	-0.4330543933054393	0.6448801742919391
5064.483642578125	-0.2398530038349624	-9.843886242082101	-2.040047387597	-1.414294480671227	0.3307054939380721	-0.374051435626657	0.102880658436214	-0.4476987447698744	0.6427015250544663
5084.014892578125	-0.07862871774909298	-9.88307379511132	-2.606051088044168	-0.6995905629885782	-0.02098771688965735	0.3771486133971412	0.1131687242798354	-0.4686192468619246	0.6470588235294118
5103.546142578125	0.02312817370149628	-9.808394751062496	-2.005339970967625	-0.3535612922239668	-0.383741167124928	0.3735210788947885	0.0720164609053498	-0.4351464435146443	0.6623093681917211
5123.077392578125	0.08541055706252433	-9.640762475565754	-2.289264826288471	-1.068255347551544	-0.4051819887847553	-0.004051819887847552	0.09876543209876544	-0.4518828451882845	0.6405228758169935
5142.608642578125	0.2339906332007955	-9.934270013253789	-2.049929149886237	-0.6769353244800799	-0.0203080597344024	1.509230881666807	0.08436213991769548	-0.4518828451882845	0.6470588235294118
5162.139892578125	-0.06808615049695614	-9.838918079998647	-2.209798482676619	-0.2856744755390484	2.603370064241291	0.7807506817744885	0.09465020576131689	-0.4267782426778242	0.6448801742919391
5181.671142578125	-0.2293862169684793	-9.807308565534795	-2.401750199537334	-0.3309257784256125	0.3632065550054406	0.75834904668213	0.1049382716049383	-0.4581589958158995	0.6383442265795207
5201.202392578125	-0.05626238952470149	-9.666642992874191	-2.130359420003603	-1.068245485196472	-0.7783160212723121	0.3695753303533146	0.1008230452674897	-0.4518828451882845	0.6514161220043574
5220.733642578125	-0.09868222860333487	-9.868222860333487	-2.171165642070385	-0.3233838946111852	0.7365671398780824	0.7620826525308564	0.07818930041152264	-0.4393305439330544	0.6405228758169935
5240.264892578125	0.3246835883459508	-9.955883589647355	-2.009698858750423	-0.3309159160705404	-0.009927477482116214	1.131976196923292	0.08436213991769548	-0.4435146443514644	0.6470588235294118
5259.796142578125	0.04513984972102866	-9.627429169311279	-2.046576625624919	-0.3309356407806847	0.7363405874929974	0.3847218964409677	0.09465020576131689	-0.4644351464435146	0.6383442265795207
5279.327392578125	0.05502767444111789	-9.648747707403365	-2.138452765191414	-0.6845166577147956	1.098867485343183	0.01098867485343183	0.09876543209876544	-0.4456066945606694	0.6383442265795207
5298.858642578125	-0.1061743827316265	-9.607337263061638	-2.360216485768277	-0.3158420107967578	1.109927724750724	0.7658162583795828	0.09670781893004116	-0.4539748953974895	0.6535947712418301
5318.389892578125	-0.04656856259188562	-9.707361309693614	-2.142399407676256	-1.045609971398118	-0.03136829914194354	0.7544032981406561	0.08641975308641976	-0.4414225941422594	0.6514161220043574
5337.921142578125	0.2240785587572971	-9.91537644750262	-2.200598743858265	-0.7222162144318603	-1.141069471507583	0.3659477958509619	0.09670781893004116	-0.4581589958158995	0.6557734204793029
5357.452392578125	0.06283103335316052	-9.878512826300112	-1.867034704718848	-1.038058225228618	-0.03114174675685855	1.131764054230545	0.1049382716049383	-0.4560669456066945	0.6535947712418301
5376.983642578125	-0.116855375488224	-9.66533552862038	-2.120798966549538	-0.6995807006335061	-0.3941217493772142	0.7507757636383033	0.08641975308641976	-0.4476987447698744	0.6535947712418301
5396.514892578125	0.1667138172226204	-9.591244540364228	-2.225369836320733	-0.3309356407806847	0.7363405874929974	0.3847218964409677	0.09670781893004116	-0.4435146443514644	0.6601307189542485
5416.046142578125	-0.09554896225784164	-9.554896225784166	-2.145366967578453	-0.3234036193213294	1.482835204853196	0.01482835204853196	0.08436213991769548	-0.4435146443514644	0.6470588235294118
5435.577392578125	-0.02647362512681974	-9.718069583389047	-2.162935892188397	-1.421826502130583	-0.4157891234221265	-0.004157891234221264	0.1008230452674897	-0.4560669456066945	0.6688453159041395
5455.108642578125	-0.3196436874974115	-9.742146527518926	-2.126667399614557	-1.090871136639754	-1.898397775890237	0.3583745128071354	0.1090534979423868	-0.4539748953974895	0.6427015250544663
5474.639892578125	0.08480936600300532	-9.700881581517654	-2.24177174299161	-0.3233740322561131	0.3634331073905256	1.135709802772018	0.08847736625514405	-0.4414225941422594	0.6557734204793029
5494.171142578125	-0.1562338950892906	-9.562783448322998	-2.045358077023609	-1.068255347551544	-0.4051819887847553	-0.004051819887847552	0.09876543209876544	-0.4414225941422594	0.6427015250544663
5513.702392578125	-0.3725848753201987	-9.985760259292594	-2.351498710202681	-0.6845067953597235	0.7257334528556262	0.384615825094594	0.0925925925925926	-0.4560669456066945	0.6601307189542485
5533.233642578125	0.003430325457255569	-9.757977555284546	-2.053521140166221	0.03019712232292578	0.3740402420278968	1.135815874118392	0.09053497942386832	-0.4560669456066945	0.6644880174291939
5552.764892578125	-0.004722633633935928	-9.563172454302688	-1.781236152081777	-0.3158321484416857	0.7367936922631674	1.139443408620745	0.09465020576131689	-0.4497907949790795	0.6666666666666667
5572.296142578125	-0.1384507645892323	-9.804672418519189	-1.956264593218317	-0.6694230277308688	1.47245462260091	0.3920830367920469	0.08847736625514405	-0.4497907949790795	0.6557734204793029
5591.827392578125	-0.006888942258488478	-9.779803316757944	-2.23653380273523	-0.3083099893374026	1.856422342110923	0.395922713987147	0.1090534979423868	-0.4351464435146443	0.6601307189542485
5611.358642578125	-0.20756348671051	-9.645237559939888	-2.312620341146928	-0.676955049190224	0.7259600052407112	0.7619765811844826	0.09465020576131689	-0.4644351464435146	0.6535947712418301
5630.889892578125	-0.1766430685535336	-9.58349877454528	-2.137507025978456	-0.7222063520767882	-1.51420350399514	0.7395749460921242	0.08230452674897121	-0.4435146443514644	0.6514161220043574
5650.421142578125	0.1448971493955034	-9.752709302873905	-2.253863261326508	-0.6920289544640067	-0.3938951969921292	1.128136519728192	0.08230452674897121	-0.4435146443514644	0.6448801742919391
5669.952392578125	0.06623205706129669	-9.538410455486497	-2.193429919375429	-0.676955049190224	0.7259600052407112	0.7619765811844826	0.117283950617284	-0.4539748953974895	0.6383442265795207
5689.483642578125	0.2067036319346265	-9.632667109567659	-2.247243086835804	-1.030545928479407	1.461620935578454	0.01461620935578454	0.08847736625514405	-0.4602510460251046	0.6535947712418301
5709.014892578125	-0.1357267123262688	-9.532267192222841	-1.98302113178491	0.752403474399714	1.888243746023036	0.3962409280262681	0.09465020576131689	-0.4414225941422594	0.6405228758169935
5728.546142578125	-0.2185476010097221	-9.733547979760091	-2.074721460856688	-1.083339115180399	-1.151903158530039	-0.01151903158530039	0.09053497942386832	-0.4518828451882845	0.6492374727668846
5748.077392578125	0.06460227356717202	-9.701388804898963	-2.332908265994125	-1.075797231365971	-0.7785425736573971	-0.007785425736573971	0.09876543209876544	-0.4518828451882845	0.6514161220043574
5767.608642578125	-0.1063370579594963	-9.623604785848624	-1.967092094720511	-0.6920289544640067	-0.3938951969921292	1.128136519728192	0.09876543209876544	-0.4330543933054393	0.6579520697167757
5787.139892578125	0.04615631729392972	-9.525782412021172	-1.980878062478625	0.03019712232292578	0.3740402420278968	1.135815874118392	0.08641975308641976	-0.4581589958158995	0.6623093681917211
5806.671142578125	0.2159003395375544	-9.723097359375881	-2.180965561543116	-0.3158420107967578	1.109927724750724	0.7658162583795828	0.08847736625514405	-0.4309623430962343	0.6579520697167757
5826.202392578125	-0.2602864270226147	-9.867026540645302	-2.37474207009037	-1.053171579922689	0.3415391809605283	0.003415391809605283	0.1008230452674897	-0.4456066945606694	0.6535947712418301
5845.733642578125	-0.3600507995330838	-9.742453690682108	-2.238197940004184	0.07544842520948997	2.614203751263747	1.158217509210751	0.0925925925925926	-0.4309623430962343	0.6492374727668846
5865.264892578125	-0.1666360160266826	-9.592894531961193	-2.046967652414892	-0.7222162144318603	-1.141069471507583	0.3659477958509619	0.08230452674897121	-0.4393305439330544	0.6557734204793029
5884.796142578125	0.1531733779140249	-9.935187461122771	-2.303308447357807	-0.3535612922239668	-0.383741167124928	0.3735210788947885	0.0925925925925926	-0.4476987447698744	0.6383442265795207
5904.327392578125	-0.1287781561643994	-9.847512586136913	-2.180532097737177	0.05280304905606366	2.240390061620936	0.3997623911822471	0.0925925925925926	-0.4351464435146443	0.6579520697167757
5923.858642578125	-0.06817102452888825	-9.847405483191856	-2.048607539960437	-0.6618712815613693	1.472681174985995	0.7694437928819354	0.09670781893004116	-0.4414225941422594	0.6535947712418301
5943.389892578125	-0.06615324546021686	-9.645627576324719	-2.068801497129424	0.02266510086357052	-0.3724543753323019	1.505709418510828	0.08230452674897121	-0.4456066945606694	0.6535947712418301
5962.921142578125	0.1332997191750677	-9.902351314816471	-2.089744164508669	-0.714674330617433	-0.767708886634941	0.3696814016996884	0.09465020576131689	-0.4309623430962343	0.6470588235294118
5982.452392578125	0.06595924767294351	-9.565691394321814	-1.891766391380776	-0.6769846362554405	1.845362102703382	-0.358904869539004	0.1008230452674897	-0.4644351464435146	0.6427015250544663
6001.983642578125	-0.07603803896487996	-9.624005916690018	-1.946607140870614	-0.6694131653757966	1.099320590113353	0.765710187033209	0.08847736625514405	-0.4393305439330544	0.6492374727668846
6021.514892578125	-0.01717284579426083	-9.798092660234168	-2.065833937227227	-1.083319390470254	-1.898171223505152	0.735735268897024	0.09053497942386832	-0.4581589958158995	0.6579520697167757
6041.046142578125	0.06361207652796423	-9.800408508819743	-2.135848951140354	-0.6920486791741509	0.3523728679829845	0.3808822192458676	0.1008230452674897	-0.4497907949790795	0.6557734204793029
6060.577392578125	-0.1190823084212995	-9.888028821927927	-2.172359940948287	-0.3309356407806847	0.7363405874929974	0.3847218964409677	0.09053497942386832	-0.4393305439330544	0.6470588235294118
6080.108642578125	-0.1294783669278392	-9.917533662480894	-2.113333082954939	-1.038077949938762	0.715126318218255	0.3845097537482203	0.09876543209876544	-0.4497907949790795	0.6601307189542485
6099.639892578125	-0.008690494626761431	-9.959958553585238	-2.073842408383106	-0.6844969330046514	0.3525994203680694	0.7582429753357562	0.09876543209876544	-0.4351464435146443	0.6405228758169935
6119.171142578125	-7.072835994337818e-06	-10.10171738460954	-2.090944525817423	-0.007512296749211039	-1.492762682335312	1.11714784487476	0.1008230452674897	-0.4330543933054393	0.6514161220043574
6138.702392578125	0.1344970492683955	-9.782618305483691	-2.235260692256248	-0.3611031760383941	-0.7571017519975698	0.3697874730460621	0.0925925925925926	-0.4560669456066945	0.6666666666666667
6158.233642578125	0.2364802714708037	-9.685306186252973	-2.40109242578986	0.436541738892812	3.744439535748874	0.4148028859235265	0.102880658436214	-0.4560669456066945	0.6427015250544663
6177.764892578125	-0.2377240802006657	-9.630993878652427	-1.958674409482103	-0.2781227293695489	2.603596616626376	1.158111437864377	0.08641975308641976	-0.4456066945606694	0.6644880174291939
6197.296142578125	-0.2595609561306236	-9.794479451446202	-2.189289279103313	-1.075787369010899	-1.151676606144954	0.3658417245045882	0.1069958847736626	-0.4435146443514644	0.6557734204793029
6216.827392578125	0.3779834699941653	-9.676400475330956	-2.237615946642364	-1.452003899743364	-1.536097430425137	-0.3927194648702891	0.07818930041152264	-0.4581589958158995	0.6296296296296297
6236.358642578125	-0.1758094843113434	-9.500140350326259	-1.880805516399831	-0.3083099893374026	1.856422342110923	0.395922713987147	0.1008230452674897	-0.4518828451882845	0.6514161220043574
6255.889892578125	-0.01707281568519801	-9.788089649327885	-2.075433796481832	-0.3309159160705404	-0.009927477482116214	1.131976196923292	0.0925925925925926	-0.4518828451882845	0.6514161220043574
6275.421142578125	-0.2197641288007489	-9.855200758862763	-2.121220305493772	-1.075777506655827	-1.524810638632511	0.7394688747457504	0.102880658436214	-0.4518828451882845	0.6405228758169935
6294.952392578125	-0.04689795466819351	-9.740300517324403	-2.406675924604821	-1.068245485196472	-0.7783160212723121	0.3695753303533146	0.117283950617284	-0.4581589958158995	0.6470588235294118
6314.483642578125	-0.1569341058527303	-9.632804524666978	-1.978159062241371	-1.01545229849548	1.835208072836181	0.3957105712943996	0.08641975308641976	-0.4414225941422594	0.6601307189542485
6334.014892578125	0.1254135070413771	-9.680871518084523	-2.179759137803509	-1.015422711430264	0.71580597537351	1.516592022017886	0.09876543209876544	-0.4518828451882845	0.6557734204793029
6353.546142578125	-0.06805886955812084	-9.836189986115116	-1.936934532445782	-1.060703601382045	-0.4049554363996703	0.3733089362020411	0.09876543209876544	-0.4518828451882845	0.6470588235294118
6373.077392578125	-0.08351099539547262	-9.361200549648276	-1.943642612183843	-0.676955049190224	0.7259600052407112	0.7619765811844826	0.1008230452674897	-0.4518828451882845	0.6579520697167757
6392.608642578125	-0.1982505825162465	-9.72404815061455	-2.094245519416496	-0.3460095460544673	-0.383514614739843	0.7508818349846771	0.102880658436214	-0.4518828451882845	0.6252723311546842
6412.139892578125	0.1660813036036979	-9.654495902256482	-2.491164992177798	0.3686647845629658	0.384194271895098	0.3812004332849888	0.1049382716049383	-0.4518828451882845	0.6514161220043574
6431.671142578125	-0.05726370102047181	-9.766774142451224	-2.044466899688322	0.4214678336190293	2.624584333516034	0.7809628244672359	0.102880658436214	-0.4539748953974895	0.627450980392157
6451.202392578125	-0.06495389455660497	-9.52569248596353	-2.19410588041546	-0.3460292707646115	0.3627534502352706	0.003627534502352706	0.1008230452674897	-0.4497907949790795	0.6383442265795207
6470.733642578125	0.02460336520888749	-9.660875600323376	-2.401989665556	0.03020698467799789	0.0009062095403399367	1.509443024359554	0.08847736625514405	-0.4497907949790795	0.6470588235294118
6490.264892578125	-0.1979424089479216	-9.693230793782062	-2.042196519334138	-0.6618712815613693	1.472681174985995	0.7694437928819354	0.07407407407407408	-0.4372384937238493	0.6405228758169935
6509.796142578125	0.1753285314637281	-9.73987412635446	-1.91958385534652	-0.3460292707646115	0.3627534502352706	0.003627534502352706	0.09670781893004116	-0.4497907949790795	0.6492374727668846
6529.327392578125	-0.2605450907389791	-9.892892912281752	-1.931593530864912	-1.045629696108262	0.7148997658331701	0.007148997658331701	0.08436213991769548	-0.4435146443514644	0.6448801742919391
6548.858642578125	-0.08686554046707452	-9.696655056808465	-2.162469085012771	-0.3309356407806847	0.7363405874929974	0.3847218964409677	0.1049382716049383	-0.4330543933054393	0.6427015250544663
6568.389892578125	-0.1373575062255355	-9.695346582149512	-2.132605550634378	-0.3158420107967578	1.109927724750724	0.7658162583795828	0.102880658436214	-0.4435146443514644	0.6601307189542485
6587.921142578125	-0.337720845893806	-9.529660346956355	-2.126324872271403	-1.421796915065367	-1.535191220884797	1.116723559489265	0.09465020576131689	-0.4623430962343096	0.6579520697167757
6607.452392578125	0.2636793674896144	-9.995699614674928	-2.072905762816426	-1.105954904268609	-2.645118945635521	0.3509073011096825	0.1008230452674897	-0.4560669456066945	0.6535947712418301
6626.983642578125	0.317707751245246	-9.643366289616814	-2.085051843028995	0.0829705843137731	3.733832401111503	0.4146968145771528	0.09053497942386832	-0.4393305439330544	0.6535947712418301
6646.514892578125	-0.2576371447401628	-9.602098312400114	-2.139246943633064	-0.669432890085941	1.845588655088467	0.01845588655088467	0.1193415637860082	-0.4602510460251046	0.6470588235294118
6666.046142578125	-0.2578260905017259	-9.620992888556428	-2.008880430585364	-1.053161717567617	-0.03159485152702852	0.3770425420507675	0.09876543209876544	-0.4414225941422594	0.6819172113289761
6685.577392578125	0.0847386376430619	-9.707954417511996	-1.939095789044624	-0.7071127220928615	-1.140616366737413	1.120669308030739	0.1008230452674897	-0.4518828451882845	0.6557734204793029
6705.108642578125	-0.09614813250707654	-9.614813250707657	-2.07766173982005	-0.6995905629885782	-0.02098771688965735	0.3771486133971412	0.08436213991769548	-0.4309623430962343	0.6405228758169935
6724.639892578125	-0.01818426134145165	-9.89923421495325	-2.081002139219663	-0.2856744755390484	2.603370064241291	0.7807506817744885	0.1152263374485597	-0.4435146443514644	0.6601307189542485
6744.171142578125	0.1870280126035108	-9.580027022477204	-2.073090666957421	0.4290097174334567	2.997944918388676	0.7846964303159623	0.08230452674897121	-0.4351464435146443	0.6557734204793029
6763.702392578125	-0.09676447964372629	-9.676447964372633	-2.181759739984766	0.4893349255938035	6.357963629857366	0.4409381268646114	0.09053497942386832	-0.4476987447698744	0.6601307189542485
6783.233642578125	-0.2691315136361095	-9.741434191893783	-1.954409489377515	0.09052233048327259	3.734058953496588	0.7920575706670414	0.09465020576131689	-0.4456066945606694	0.6688453159041395
6802.764892578125	-0.1184821277669225	-9.828010756490231	-2.229959096475918	-0.3460194084095394	-0.01038058225228618	0.3772546847435149	0.1111111111111111	-0.4330543933054393	0.6405228758169935
6822.296142578125	0.002422951530632948	-9.858714947946808	-2.028265053235569	-0.7146644682623609	-1.140842919122498	0.7433085519408505	0.09465020576131689	-0.4581589958158995	0.6427015250544663
6841.827392578125	0.1849213178823392	-9.790696494594371	-1.93213005599534	-0.6844969330046514	0.3525994203680694	0.7582429753357562	0.09465020576131689	-0.4372384937238493	0.6535947712418301
6861.358642578125	-0.1282800264293694	-9.79769961263391	-2.248743538471747	-0.3083001269823305	1.483288309623366	0.7695498642283092	0.09465020576131689	-0.4539748953974895	0.6623093681917211
6880.889892578125	0.112793546817188	-9.932766530402422	-2.141975037516596	-1.060703601382045	-0.4049554363996703	0.3733089362020411	0.09876543209876544	-0.4246861924686192	0.6492374727668846
6900.421142578125	-0.1065300453416276	-9.642903524061756	-1.877149870595898	-1.782929678168977	-1.172890875419696	0.3656295818118408	0.09465020576131689	-0.4497907949790795	0.6383442265795207
6919.952392578125	0.06229854984330082	-9.931761177286083	-2.142429719830518	-1.068245485196472	-0.7783160212723121	0.3695753303533146	0.08024691358024692	-0.4372384937238493	0.6557734204793029
6939.483642578125	0.2237845308609609	-9.944779237136238	-2.111162732709819	-0.3158518731518299	1.483061757238281	0.3921891081384206	0.0925925925925926	-0.4414225941422594	0.6688453159041395
6959.014892578125	-0.2199429705108915	-9.873084929877027	-1.889793070138354	-0.3083198516924747	2.229556374598479	0.0222955637459848	0.08641975308641976	-0.4476987447698744	0.6601307189542485
6978.546142578125	-0.3526475610572924	-10.01223085320399	-1.928380442513197	-0.7222162144318603	-1.141069471507583	0.3659477958509619	0.08024691358024692	-0.4476987447698744	0.6514161220043574
6998.077392578125	0.01304028876328139	-9.807082234782975	-1.89426411289192	-0.7297482358912155	-1.887564088867781	0.7358413402433978	0.08024691358024692	-0.4267782426778242	0.6623093681917211
7017.608642578125	0.1049123867092076	-9.71078153109945	-2.181459649657578	-0.3309159160705404	-0.009927477482116214	1.131976196923292	0.08436213991769548	-0.4497907949790795	0.6470588235294118
7037.139892578125	-0.2599610765668749	-9.834491495071331	-2.150889842084892	-1.060713463737117	-0.0318214039121135	-0.000318214039121135	0.08847736625514405	-0.4644351464435146	0.6688453159041395
7056.671142578125	0.08350897458518855	-9.830920723299331	-2.116973572681741	-0.6995807006335061	-0.3941217493772142	0.7507757636383033	0.09465020576131689	-0.4372384937238493	0.6535947712418301
7076.202392578125	0.1846313316065712	-9.81969512217117	-1.802269755923806	-0.7071423091580777	-0.02121426927474233	-0.0002121426927474233	0.1069958847736626	-0.4560669456066945	0.6492374727668846
7095.733642578125	-0.2392497919651593	-9.783565055101791	-2.067328326432317	0.05282277376620787	1.494121996645822	1.147016691664571	0.09876543209876544	-0.4539748953974895	0.6405228758169935
7115.264892578125	-0.07563791852862864	-9.583993873064886	-1.985006577889036	-1.075797231365971	-0.7785425736573971	-0.007785425736573971	0.09465020576131689	-0.4518828451882845	0.6601307189542485
7134.796142578125	-0.02828022952080293	-9.898730022787367	-2.050774858990132	-1.053151855212545	-0.4047288840145853	0.7506696922919297	0.09876543209876544	-0.4309623430962343	0.6535947712418301
7154.327392578125	0.1769381068550119	-9.578916587226091	-1.98222695334326	-0.7297679606013598	-1.141296023892668	-0.01141296023892668	0.0925925925925926	-0.4456066945606694	0.6296296296296297
7173.858642578125	-0.1168594171087922	-9.665739690677199	-2.161223255472625	-0.3158420107967578	1.109927724750724	0.7658162583795828	0.102880658436214	-0.4414225941422594	0.6492374727668846
7193.389892578125	-0.1059500727900917	-9.584906268908155	-2.136870470738966	-0.338477524595112	0.3629800026203556	0.3809882905922413	0.102880658436214	-0.4623430962343096	0.6448801742919391
7212.921142578125	-0.03566730151432147	-9.627336212038211	-2.198895200788771	-1.083329252825327	-1.525037191017595	0.3621081186558618	0.09053497942386832	-0.4414225941422594	0.6492374727668846
7232.452392578125	-0.1396703235956851	-9.926628319164475	-2.033081654547716	-1.429348661234866	-1.535417773269882	0.7393628033993768	0.09876543209876544	-0.4414225941422594	0.6405228758169935
7251.983642578125	0.3049301678188974	-9.911023622150674	-2.613714000641466	-0.6920388168190788	-0.02076116450457237	0.7545093694870298	0.08436213991769548	-0.4560669456066945	0.6492374727668846
7271.514892578125	0.05331503772534524	-9.820011378980631	-2.096528024632384	0.01508376762885473	0.7467211697452836	0.007467211697452836	0.09465020576131689	-0.4581589958158995	0.6383442265795207
7291.046142578125	0.08351301620575674	-9.830516561242511	-2.076549283758654	0.03018725996785367	0.7471742745154536	0.76218872387723	0.1008230452674897	-0.4497907949790795	0.6492374727668846
7310.577392578125	0.1140050225825044	-9.811618953870774	-2.146006554033371	-0.6995708382784341	-0.7672557818647709	1.124402913879466	0.09465020576131689	-0.4476987447698744	0.6427015250544663
7330.108642578125	0.1036029016451124	-9.841730037508968	-2.147616129424654	-0.3233838946111852	0.7365671398780824	0.7620826525308564	0.102880658436214	-0.4476987447698744	0.6535947712418301
7349.639892578125	-0.0173668435815342	-9.817492438961505	-1.985997785333386	0.04526116524163629	1.867029476748294	0.3960287853335207	0.09876543209876544	-0.4414225941422594	0.6623093681917211
7369.171142578125	-0.05646042893254304	-9.686446933658347	-2.090947557032849	0.03773900613735315	0.7474008269005386	1.139549479967119	0.09876543209876544	-0.4393305439330544	0.6514161220043574
7388.702392578125	-0.1471321655697153	-9.662711506466479	-1.918950331322456	-1.04561983375319	0.3417657333456133	0.3807761478994939	0.1049382716049383	-0.4393305439330544	0.6492374727668846
7408.233642578125	-0.07677260350314941	-9.697462370516963	-2.223014581934617	-0.676955049190224	0.7259600052407112	0.7619765811844826	0.0925925925925926	-0.4518828451882845	0.6557734204793029
7427.764892578125	-0.04747287519401926	-9.79779256990698	-2.096424963307896	-0.7297580982462877	-1.514430056380224	0.3622141900022355	0.1008230452674897	-0.4330543933054393	0.6535947712418301
7447.296142578125	0.1236937974896101	-9.852842473261221	-2.208576902859882	-0.7071324468030056	-0.3943483017622991	0.3734150075484148	0.08847736625514405	-0.4560669456066945	0.6579520697167757
7466.827392578125	0.07421223687319783	-9.75049348439739	-2.173651238719825	0.4290097174334567	2.997944918388676	0.7846964303159623	0.1131687242798354	-0.4225941422594142	0.6448801742919391
7486.358642578125	-0.1266633782020914	-9.636034789906107	-2.240644130853084	-0.3535711545790389	-0.01060713463737117	-0.0001060713463737117	0.09670781893004116	-0.4435146443514644	0.6557734204793029
7505.889892578125	-0.0995865412054685	-9.958654120546852	-2.125191197702024	-0.3233740322561131	0.3634331073905256	1.135709802772018	0.0925925925925926	-0.4456066945606694	0.6514161220043574
7525.421142578125	0.053828323537506	-9.768682797764553	-2.013148381905378	-1.105974628978753	-1.898850880660407	-0.3963469993726418	0.1008230452674897	-0.4497907949790795	0.6688453159041395
7544.952392578125	0.05321298680599831	-9.830216470915323	-2.107140309839322	-0.6694230277308688	1.47245462260091	0.3920830367920469	0.1069958847736626	-0.4518828451882845	0.6448801742919391
7564.483642578125	-0.02887737895975375	-9.95844496668245	-1.962857486770185	-1.04561983375319	0.3417657333456133	0.3807761478994939	0.1090534979423868	-0.4435146443514644	0.6448801742919391
7584.014892578125	-0.1761338243619411	-9.532574355386023	-2.094551672174537	-1.053171579922689	0.3415391809605283	0.003415391809605283	0.1008230452674897	-0.4267782426778242	0.6557734204793029
7603.546142578125	-0.118472023715502	-9.827000351348183	-2.128898374168201	-0.6694131653757966	1.099320590113353	0.765710187033209	0.0925925925925926	-0.4539748953974895	0.6514161220043574
7623.077392578125	-0.07683726943224053	-9.703928963426074	-1.859702194603	-1.459545783557792	-1.909458015297779	-0.3964530707190155	0.09670781893004116	-0.4644351464435146	0.6448801742919391
7642.608642578125	0.1306878218828716	-10.16354104403607	-1.95131461842742	0.3686746469180378	0.01106023940754114	0.754827583526151	0.1049382716049383	-0.4497907949790795	0.6383442265795207
7662.139892578125	-0.1273676305860994	-9.706460028306905	-2.213869404993934	0.0452710275967084	1.493895444260737	0.7696559355746829	0.0925925925925926	-0.4456066945606694	0.6448801742919391
7681.671142578125	0.09351097508632927	-9.840821683286267	-2.076964560272036	-0.3233838946111852	0.7365671398780824	0.7620826525308564	0.09053497942386832	-0.4351464435146443	0.6383442265795207
7701.202392578125	-0.1176687516275732	-9.746673142555304	-2.175379031512728	-0.6995905629885782	-0.02098771688965735	0.3771486133971412	0.0925925925925926	-0.4456066945606694	0.6383442265795207
7720.733642578125	0.1432986884607823	-9.91255539634602	-2.080053368791279	0.3686746469180378	0.01106023940754114	0.754827583526151	0.1111111111111111	-0.4288702928870293	0.6557734204793029
7740.264892578125	0.1561409378162221	-9.638431470903049	-1.914703598510425	-0.3384676622400399	-0.0101540298672012	0.7546154408334035	0.1090534979423868	-0.4372384937238493	0.6514161220043574
7759.796142578125	-0.1185629601782864	-9.836093997626621	-2.028343864836649	-0.6920486791741509	0.3523728679829845	0.3808822192458676	0.08436213991769548	-0.4414225941422594	0.6492374727668846
7779.327392578125	-0.1467603364774414	-9.625528597239084	-2.240319790802487	0.05282277376620787	1.494121996645822	1.147016691664571	0.08847736625514405	-0.4414225941422594	0.6230936819172114
7798.858642578125	0.2244817104089745	-9.875061282334872	-2.208679964184372	-0.6920486791741509	0.3523728679829845	0.3808822192458676	0.09876543209876544	-0.4518828451882845	0.6579520697167757
7818.389892578125	-0.08755968879966203	-9.766069890067216	-2.034633636845903	-0.3083001269823305	1.483288309623366	0.7695498642283092	0.09876543209876544	-0.4623430962343096	0.6383442265795207
7837.921142578125	-0.04778610078805438	-9.829115129310491	-2.199004324544112	-0.376196806022321	-1.130688889255296	-0.01130688889255296	0.09465020576131689	-0.4560669456066945	0.6514161220043574
7857.452392578125	-0.01920072891435271	-10.00088097224335	-2.146700702365958	-0.3535711545790389	-0.01060713463737117	-0.0001060713463737117	0.09876543209876544	-0.4330543933054393	0.6601307189542485
7876.983642578125	-0.1176586475761528	-9.745662737413255	-2.07431830920501	-0.6995905629885782	-0.02098771688965735	0.3771486133971412	0.09053497942386832	-0.4351464435146443	0.6448801742919391
7896.514892578125	0.223683490346756	-9.954883288556726	-2.111668945685985	-0.714674330617433	-0.767708886634941	0.3696814016996884	0.102880658436214	-0.4497907949790795	0.6666666666666667
7916.046142578125	0.1856356743177676	-9.719260851051523	-1.857844059546772	-0.7071324468030056	-0.3943483017622991	0.3734150075484148	0.08436213991769548	-0.4456066945606694	0.6405228758169935
7935.577392578125	0.01354549133430578	-9.756561977680535	-1.891733048011088	-0.692058541529223	0.7255069004705412	0.007255069004705413	0.102880658436214	-0.4435146443514644	0.6427015250544663
7955.108642578125	-0.06818618060601898	-9.848921090904931	-2.200198623422014	-0.2932064969984036	1.856875446881093	1.150644226166924	0.09876543209876544	-0.4330543933054393	0.6492374727668846
7974.639892578125	0.04069002547544588	-10.07241159386956	-2.10927428549933	0.07544842520948997	2.614203751263747	1.158217509210751	0.1049382716049383	-0.4602510460251046	0.6579520697167757
7994.171142578125	-0.3609551121352174	-9.832884950895474	-2.192223495635823	-0.3460292707646115	0.3627534502352706	0.003627534502352706	0.09465020576131689	-0.4560669456066945	0.6666666666666667
8013.702392578125	-0.1281557465968974	-9.78527162938671	-2.01579766418783	-0.737299982060715	-1.887790641252866	0.3584805841535091	0.09876543209876544	-0.4560669456066945	0.6448801742919391
8033.233642578125	-0.03858029953884805	-9.91863601449087	-2.041772149174478	-1.083319390470254	-1.898171223505152	0.735735268897024	0.1069958847736626	-0.4435146443514644	0.6405228758169935
8052.764892578125	0.003836508324359174	-9.717359268574185	-2.031284143800011	-0.361093313683322	-1.130235784485127	0.7434146232872243	0.08641975308641976	-0.4372384937238493	0.6448801742919391
8072.296142578125	-0.3397638850910286	-9.733964266678615	-2.35878272087171	-1.068265209906616	-0.03204795629719848	-0.3776789701290098	0.1008230452674897	-0.4602510460251046	0.6383442265795207
8091.827392578125	0.1515718857638776	-10.0953366761375	-2.159816771514893	-1.075807093721043	-0.4054085411698403	-0.3814125759777361	0.1090534979423868	-0.4560669456066945	0.6535947712418301
8111.358642578125	-0.331152202065347	-9.882896974211461	-2.083314956589812	-1.098462332229542	-0.4060881983250952	-1.513494844247402	0.1049382716049383	-0.4414225941422594	0.6535947712418301
8130.889892578125	0.1742130441869063	-9.851422854036644	-1.965576487007438	-1.105945041913536	-3.018252978123078	0.7245344513508447	0.09465020576131689	-0.4414225941422594	0.6535947712418301
8150.421142578125	0.05543082609279535	-9.608432542235619	-2.14653398551752	-0.3158518731518299	1.483061757238281	0.3921891081384206	0.09876543209876544	-0.4435146443514644	0.6448801742919391
8169.952392578125	-0.07777290459377768	-9.797492479579791	-2.127015989388564	-0.2781424540796931	3.34986468160149	0.4108571373820527	0.0925925925925926	-0.4518828451882845	0.636165577342048
8189.483642578125	-0.01665753917181597	-9.74656199798968	-1.962242150038677	-0.3158124237315415	-0.009474372711946247	1.886697709103069	0.1008230452674897	-0.4623430962343096	0.6557734204793029
8209.014892578125	-0.02635944934576823	-9.706652005283896	-2.031050740212198	-0.7071127220928615	-1.140616366737413	1.120669308030739	0.1111111111111111	-0.4435146443514644	0.6514161220043574
8228.546142578125	-0.05788408977768976	-9.828813018173019	-2.188989188776125	-1.414284618316155	-0.04242853854948467	-0.0004242853854948467	0.0925925925925926	-0.4414225941422594	0.6318082788671024
8248.077392578125	-0.09686653056307323	-9.686653056307325	-2.192372025191704	0.07544842520948997	2.614203751263747	1.158217509210751	0.09465020576131689	-0.4456066945606694	0.6535947712418301
8267.608642578125	-0.0563684820646166	-9.677252246865704	-2.181395994133629	-0.3610834513282499	-1.503369816972683	1.117041773528386	0.09876543209876544	-0.4435146443514644	0.6514161220043574
8287.139892578125	0.3579794689918838	-9.656598555357085	-2.317633971461774	0.06036465758063524	1.867482581518464	1.150750297513298	0.1152263374485597	-0.4539748953974895	0.6688453159041395
8306.671142578125	-0.09685844732193684	-9.685844732193685	-2.11152344734553	-0.6845067953597235	0.7257334528556262	0.384615825094594	0.09465020576131689	-0.4414225941422594	0.6492374727668846
8326.202392578125	-0.229153823785808	-9.784069247267674	-2.097555606661848	-0.3535612922239668	-0.383741167124928	0.3735210788947885	0.09876543209876544	-0.4372384937238493	0.6448801742919391
8345.733642578125	0.06511859059475893	-9.649757102140272	-2.219210406574804	0.02269468792878685	-1.491856472794972	2.626590869234315	0.09670781893004116	-0.4435146443514644	0.6557734204793029
8365.264892578125	0.3788170542363555	-9.593042051111933	-1.980914437063738	-0.3309356407806847	0.7363405874929974	0.3847218964409677	0.09670781893004116	-0.4581589958158995	0.6688453159041395
8384.796142578125	-0.1260439998500155	-9.574096954698517	-2.106227913996053	0.04525130288656418	2.240163509235851	0.02240163509235851	0.1049382716049383	-0.4246861924686192	0.6470588235294118
8404.327392578125	0.2053001791923207	-9.773012383798232	-2.143163273963645	-2.151604325087014	-1.183951114827237	-0.3891980017143101	0.09876543209876544	-0.4518828451882845	0.6383442265795207
8423.858642578125	-0.2577492997109302	-9.613313809476857	-2.25091995114772	0.02265523850849842	0.0006796571552549525	1.132082268269666	0.102880658436214	-0.4560669456066945	0.6318082788671024
8443.389892578125	-0.03876823489526913	-9.937429550132977	-1.901299563896006	-0.6844969330046514	0.3525994203680694	0.7582429753357562	0.102880658436214	-0.4644351464435146	0.6710239651416122
8462.921142578125	-0.1904664213019028	-9.955733039281188	-2.014842831328594	-1.060713463737117	-0.0318214039121135	-0.000318214039121135	0.09465020576131689	-0.4435146443514644	0.6492374727668846
8482.452392578125	-0.007470935620308569	-9.838002652939952	-1.997025347053706	-0.3309159160705404	-0.009927477482116214	1.131976196923292	0.0925925925925926	-0.4581589958158995	0.6557734204793029
8501.983642578125	-0.05656247985188996	-9.696652025593039	-2.101559842239787	0.4063939283452467	1.504729131283193	1.147122763010945	0.09465020576131689	-0.4602510460251046	0.6383442265795207
8521.514892578125	0.08259758914706057	-9.922059267112131	-2.141741633928782	-0.2932064969984036	1.856875446881093	1.150644226166924	0.1255144032921811	-0.4414225941422594	0.6557734204793029
8541.046142578125	0.1554184981396573	-9.710675438559534	-2.069838172805166	-1.022974457599763	0.715579422988425	1.139231265927998	0.09670781893004116	-0.4393305439330544	0.6383442265795207
8560.577392578125	0.0526016916950588	-9.891345982009273	-2.16070794885018	0.02266510086357052	-0.3724543753323019	1.505709418510828	0.08847736625514405	-0.4476987447698744	0.6339869281045752
8580.108642578125	-0.1883395184778902	-9.743042756879923	-1.95368199767524	0.0452710275967084	1.493895444260737	0.7696559355746829	0.1111111111111111	-0.4476987447698744	0.6405228758169935
8599.639892578125	-0.005870453875303321	-9.677954478439428	-2.150623095127391	-0.3158321484416857	0.7367936922631674	1.139443408620745	0.1090534979423868	-0.4581589958158995	0.6623093681917211
8619.171142578125	0.03381927050951429	-9.749386080361704	-2.143696767878647	0.03772914378228104	1.120534859388095	0.7659223297259565	0.1008230452674897	-0.4497907949790795	0.6339869281045752
8638.702392578125	-0.2710846267756898	-9.93674550585181	-2.297527919540145	-1.053181442277761	0.7146732134480851	-0.3702117584315569	0.08847736625514405	-0.4560669456066945	0.6383442265795207
8658.233642578125	0.0227058243521199	-9.850629686000135	-2.189274123026183	-1.075757781945683	-2.271078703607624	1.486723175228075	0.1131687242798354	-0.4414225941422594	0.6470588235294118
8677.764892578125	0.2469005797007526	-9.653376373359091	-2.217573550244685	-0.7071127220928615	-1.140616366737413	1.120669308030739	0.09876543209876544	-0.4414225941422594	0.6492374727668846
8697.296142578125	0.2757991771684894	-9.793819656888443	-2.062690566830313	-1.015462160850552	2.208342105323737	0.02208342105323737	0.09670781893004116	-0.4497907949790795	0.6296296296296297
8716.827392578125	-0.1481466123323323	-9.764156182728176	-1.964436750007207	-1.038107537003979	1.834528415680926	-0.7363716969752663	0.08847736625514405	-0.4623430962343096	0.6601307189542485
8736.358642578125	0.05271485707096827	-9.880029444418327	-2.038928869104752	-0.7071225844479335	-0.7674823342498559	0.7470421577895769	0.0925925925925926	-0.4456066945606694	0.6688453159041395
8755.889892578125	0.2039027888808673	-9.912751414943576	-1.978447027706855	0.05282277376620787	1.494121996645822	1.147016691664571	0.09053497942386832	-0.4560669456066945	0.6448801742919391
8775.421142578125	-0.2805652582235334	-9.874707640535156	-2.17330871137667	-0.3384972493052563	1.109248067595469	-0.3662660098900831	0.09053497942386832	-0.4414225941422594	0.6405228758169935
8794.952392578125	-0.09868627022390306	-9.868627022390307	-2.211589930993472	-0.3460292707646115	0.3627534502352706	0.003627534502352706	0.1049382716049383	-0.4497907949790795	0.6557734204793029
8814.483642578125	0.08874792524671141	-9.307025657147046	-2.242241581382663	0.3687042339832541	-1.108341858055129	1.875709034249638	0.08641975308641976	-0.4476987447698744	0.6514161220043574
8834.014892578125	0.03349796167434279	-9.781516963878857	-2.327124706961038	0.01510349233899894	0.0004531047701699683	0.7547215121797772	0.09876543209876544	-0.4351464435146443	0.6470588235294118
8853.546142578125	0.1859297022141038	-9.689858061417905	-1.947280070695219	0.06037451993570735	1.494348549030907	1.52437744775446	0.1008230452674897	-0.4351464435146443	0.6339869281045752
8873.077392578125	-0.1697591783207554	-9.905210761368467	-1.971705604599106	0.06039424464585157	0.7480804840557935	2.271631748236785	0.0925925925925926	-0.4476987447698744	0.6318082788671024
8892.608642578125	-0.2677371545400823	-9.601998282291053	-2.14944395232662	0.007591195589787905	-1.492309577565142	1.871869357054537	0.1049382716049383	-0.4623430962343096	0.6470588235294118
8912.139892578125	0.03423656783318043	-9.707656347995091	-2.010292976973948	-0.7071324468030056	-0.3943483017622991	0.3734150075484148	0.08641975308641976	-0.4393305439330544	0.6339869281045752
8931.671142578125	-0.2077211099126696	-9.660999880155849	-1.868965588945303	-0.6920388168190788	-0.02076116450457237	0.7545093694870298	0.08230452674897121	-0.4476987447698744	0.6557734204793029
8951.202392578125	-0.1482395696054007	-9.773451910035025	-1.884094385137199	-0.6844870706495794	-0.02053461211948738	1.131870125576918	0.08024691358024692	-0.4560669456066945	0.6535947712418301
8970.733642578125	0.04564707310233714	-9.576706831180429	-2.023833416282544	-1.038058225228618	-0.03114174675685855	1.131764054230545	0.0925925925925926	-0.4351464435146443	0.6579520697167757
8990.264892578125	0.1444040716861836	-9.802017073805885	-2.135121459438079	-1.045629696108262	0.7148997658331701	0.007148997658331701	0.09465020576131689	-0.4456066945606694	0.6383442265795207
9009.796142578125	-0.4404174141265006	-9.698307069215716	-2.024673062955586	-1.030545928479407	1.461620935578454	0.01461620935578454	0.1152263374485597	-0.4539748953974895	0.6427015250544663
9029.327392578125	0.003296951978505125	-9.77131490315959	-2.377421664527084	-0.3309159160705404	-0.009927477482116214	1.131976196923292	0.09053497942386832	-0.4518828451882845	0.6492374727668846
9048.858642578125	0.022832124994876	-9.837999621724524	-1.936116104280722	-1.022964595244691	0.3424453905008682	1.51285841616916	0.1008230452674897	-0.4581589958158995	0.6601307189542485
9068.389892578125	0.06311798841350237	-9.849817320265927	-2.027213221482697	-0.6543096730367978	1.099773694883523	1.520431699212986	0.1008230452674897	-0.4539748953974895	0.6557734204793029
9087.921142578125	-0.02716171102855496	-9.786878173562569	-1.974464010636899	0.0829705843137731	3.733832401111503	0.4146968145771528	0.08024691358024692	-0.4497907949790795	0.6535947712418301
9107.452392578125	-0.1680748329489601	-9.736776224188937	-2.296600367619745	-0.6845166577147956	1.098867485343183	0.01098867485343183	0.09876543209876544	-0.4393305439330544	0.6448801742919391
9126.983642578125	-0.1003089808820334	-10.03089808820334	-2.280325771996765	-0.6995807006335061	-0.3941217493772142	0.7507757636383033	0.09670781893004116	-0.4602510460251046	0.6557734204793029
9146.514892578125	-0.09613701805051401	-9.613701805051402	-1.96649494528156	-0.3686253351426773	-1.876730401845325	1.11330816767966	0.08847736625514405	-0.4330543933054393	0.6666666666666667
9166.046142578125	-0.05765371740530264	-9.805775780934306	-1.905006740362183	-0.3535514298688947	-0.7568751996124847	0.7471482291359507	0.1008230452674897	-0.4456066945606694	0.636165577342048
9185.577392578125	-0.09783348828401391	-9.783348828401392	-1.762873049030182	-0.7071225844479335	-0.7674823342498559	0.7470421577895769	0.1090534979423868	-0.4623430962343096	0.6318082788671024
9205.108642578125	0.08402529161277547	-9.77928902054064	-2.00327571326242	-0.7222162144318603	-1.141069471507583	0.3659477958509619	0.1069958847736626	-0.4518828451882845	0.6514161220043574
9224.639892578125	-0.09614207007622426	-9.614207007622428	-2.017025306435419	0.007571470879643689	-0.7460415125900286	1.124615056572213	0.1008230452674897	-0.4539748953974895	0.6492374727668846
9244.171142578125	-0.05909960716357442	-9.950364756761484	-2.225381961182437	0.03020698467799789	0.0009062095403399367	1.509443024359554	0.1090534979423868	-0.4518828451882845	0.6535947712418301
9263.702392578125	0.2658062703136271	-9.783009332273663	-2.011744929163072	0.02264537615342631	0.3738136896428118	0.7584551180285036	0.09465020576131689	-0.4539748953974895	0.6579520697167757
9283.233642578125	-0.1180234038324324	-9.782138363041216	-1.682206344109577	0.3686845092731099	-0.3620737930800156	1.128454733767313	0.08230452674897121	-0.4560669456066945	0.6492374727668846
9302.764892578125	0.1346435580139926	-9.767967430923983	-1.779981228895352	2.512766675255842	-0.2977513281005337	2.261173430115221	0.1131687242798354	-0.4456066945606694	0.6296296296296297
9322.296142578125	0.03347573276121771	-9.783739855191364	-1.539357285937007	6.176680383536423	6.528583993595645	1.952078292766145	0.1090534979423868	-0.4288702928870293	0.636165577342048
9341.827392578125	-0.09806386065640102	-9.806386065640103	-1.036754487343115	8.606417300348058	4.73580445930895	1.556792006857241	0.09465020576131689	-0.4560669456066945	0.6492374727668846
9361.358642578125	-0.2109655208237882	-9.985440971267707	-0.9862301886201081	9.727436247535378	8.873912639664866	0.4660976169626865	0.1111111111111111	-0.4623430962343096	0.6470588235294118
9380.889892578125	-0.2322628404078921	-10.09497090947608	-0.8707075375142463	12.48059650837849	4.852029835549862	0.8032372794875742	0.1049382716049383	-0.4728033472803347	0.6427015250544663
9400.421142578125	0.05084055553246781	-10.06745959826837	-0.5836726551661748	17.51358298150895	7.988094056609448	1.966673393396283	0.09465020576131689	-0.4874476987447698	0.6100217864923748
9419.952392578125	0.304010699139633	-10.00297049007711	-0.6991286195326613	20.71073810386365	11.44221766550397	-0.6402948044770358	0.117283950617284	-0.4895397489539748	0.6100217864923748
9439.483642578125	-0.1801127998113291	-9.930471900324827	-0.4781227028123344	24.93851805353833	10.44964807891958	-0.2728620097768419	0.1193415637860082	-0.4790794979079497	0.5816993464052288
9459.014892578125	-0.1503311082494417	-9.982605774439117	-0.5814416806125312	25.84079278304204	4.87970139543156	-2.592712420007949	0.1275720164609054	-0.4811715481171548	0.5773420479302833
9478.546142578125	0.3023303953884058	-10.17100086519982	-0.3338095675889353	28.91732707614127	0.494385483926029	-3.39128256025508	0.1213991769547325	-0.502092050209205	0.5838779956427016
9498.077392578125	0.3827000411972489	-10.2148443651236	-0.5170162279452176	32.87446700613039	4.717577293766001	-4.103767623288755	0.1460905349794239	-0.5188284518828451	0.5294117647058824
9517.608642578125	0.2187335155558591	-10.44988076764642	-0.106165289085348	34.98837177450034	3.661591451742473	-3.359610500576915	0.1810699588477366	-0.5313807531380753	0.5468409586056645
9537.139892578125	0.3095558025591966	-10.45856115822176	0.2175412374882416	40.38998358277348	8.674386074647384	-3.309482554347866	0.1728395061728395	-0.5460251046025104	0.5294117647058824
9556.671142578125	-0.2633540170338747	-10.17378554177131	0.276555970619884	41.83444559870242	9.837122920199878	-2.920496695326303	0.1893004115226338	-0.5857740585774058	0.5163398692810458
9576.202392578125	-0.1051276030044639	-10.51276030044639	0.0288662645031912	43.7824190607999	0.940338243465788	-2.632106051527606	0.2016460905349794	-0.610878661087866	0.5054466230936819
9595.733642578125	0.07744856454318005	-10.43696172750018	-0.1069321865881631	47.40113077796927	3.660839893488332	-1.09546707276323	0.2037037037037037	-0.608786610878661	0.485838779956427
9615.264892578125	0.189869271862952	-10.3060021066341	0.08255818334652071	50.63605449352654	6.742962231820722	-1.442004339945944	0.2181069958847737	-0.6422594142259413	0.4705882352941177
9634.796142578125	-0.1642595431325839	-10.36534825265233	0.510393022239088	55.83501172234976	16.22728915764064	1.671706853840558	0.2366255144032922	-0.6589958158995816	0.477124183006536
9654.327392578125	-0.5472930180267089	-10.28485735822644	0.7227084443326534	56.48185841041272	11.76908261798402	3.136558750708142	0.2366255144032922	-0.6841004184100418	0.44880174291939
9673.858642578125	-0.6489003695162749	-10.34458240617295	0.6075950073093215	58.57320656382489	6.981076793929673	6.484905107561938	0.2551440329218107	-0.7217573221757322	0.4705882352941177
9693.389892578125	0.09724947411190972	-10.47707279082923	0.9720683501491527	59.49816611890231	0.2924076701342337	6.418018416323984	0.2407407407407408	-0.7280334728033472	0.4684095860566449
9712.921142578125	0.02044453764421476	-10.07675835679065	1.45596248713287	59.21248178100819	3.268911766863082	6.82514194785731	0.2798353909465021	-0.7573221757322175	0.4901960784313726
9732.452392578125	0.151890163383623	-10.06350891416296	1.023595981178214	63.69670550508355	14.2243340009734	8.066771641896526	0.2613168724279836	-0.7594142259414225	0.4836601307189543
9751.983642578125	-0.7161519253658988	-9.999030920428263	1.69490713674513	65.14875871660226	13.89476126896075	10.32762685797263	0.2592592592592593	-0.7698744769874476	0.5054466230936819
9771.514892578125	-0.5872858639541413	-10.24373791056563	1.72436448825642	67.10431351193446	3.878801047149079	12.1142597085847	0.2860082304526749	-0.805439330543933	0.4989106753812637
9791.046142578125	-0.8391445016869271	-10.17707643131896	1.826189076851527	66.91578614128393	-6.20148163964208	12.76817386284886	0.2530864197530864	-0.8158995815899581	0.5206971677559913
9810.577392578125	-0.1522134930290786	-10.1708442524028	1.803066965580883	67.99163268442524	-7.288609228422468	14.64409503979125	0.2674897119341564	-0.8221757322175731	0.5206971677559913
9830.108642578125	-0.01443464785930867	-10.53437387683996	2.089298575841025	69.1805778977178	-1.655925946650556	15.45513885374104	0.271604938271605	-0.8389121338912133	0.5468409586056645
9849.639892578125	-0.02140543293430312	-10.2213513742384	2.064475952716313	71.08417771691759	5.490734286731408	15.14924696550882	0.2736625514403292	-0.8661087866108785	0.5294117647058824
9869.171142578125	-0.6756841890217036	-9.992661326412788	2.412802010981063	71.55845846194777	9.982574649380821	16.70359933139947	0.2674897119341564	-0.8514644351464434	0.5686274509803922
9888.702392578125	-0.9917651879882513	-10.28762990993623	2.586811963734418	69.60205559369189	0.595524354377921	16.60972882844944	0.2592592592592593	-0.8661087866108785	0.5773420479302833
9908.233642578125	-0.5488146881706344	-10.43702437261899	2.674680836507547	69.85762170810366	-5.740092244279278	18.05580662472702	0.2551440329218107	-0.8535564853556484	0.5947712418300655
9927.764892578125	-0.09781429058631498	-9.781429058631499	2.469546363758522	70.97870969177647	-4.213922291336258	19.5805022865206	0.2654320987654321	-0.899581589958159	0.6383442265795207
9947.296142578125	0.1615860111267229	-10.10402514995398	3.051970158169125	74.07884591985859	7.073111646252475	21.95752356929271	0.2366255144032922	-0.8828451882845187	0.6623093681917211
9966.827392578125	-0.2882099835282744	-9.629079160908244	3.182330608785972	76.81783952248206	19.09557996179387	23.20982372414624	0.2551440329218107	-0.8786610878661087	0.6797385620915033
9986.358642578125	-0.7440047535116151	-9.754010704696864	3.919000831371456	75.90048102534949	23.9188054755366	25.5222069226799	0.2510288065843622	-0.8891213389121339	0.6797385620915033
10005.88989257812	-1.238743568884942	-9.732942747080005	4.026217952209676	75.77230844992452	16.07913940275147	26.9532442242162	0.2304526748971193	-0.8870292887029287	0.7320261437908497
10025.42114257812	-0.9938415705551614	-9.485167156526238	4.041055751720663	74.87662890776083	6.350776479173123	27.23331908554645	0.2222222222222222	-0.8744769874476986	0.7276688453159043
10044.95239257812	-0.7718313111236382	-9.506363435596136	4.385650383795826	75.16985512946937	3.747632967316917	26.82992915986185	0.2139917695473251	-0.8702928870292886	0.7930283224400873
10064.48364257812	-0.781293755278925	-9.442506841023798	4.691778892113193	76.94525278617901	4.174029225376414	26.83419312244245	0.1934156378600823	-0.8389121338912133	0.7908496732026145
10084.01489257812	-1.190580586978903	-8.957048596880188	4.944282168326606	77.37421319183709	9.037644306202873	25.7507538015526	0.1954732510288066	-0.8556485355648534	0.823529411764706
10103.54614257812	-1.585723767500482	-9.077427255098737	5.247443116741777	77.55426184455386	2.699762183694825	23.42322403693129	0.191358024691358	-0.8242677824267781	0.8366013071895426
10123.07739257812	-1.915683691498212	-8.740086321538341	5.998384301553556	76.16162659414137	-10.77485269471307	20.26960996361891	0.1851851851851852	-0.8347280334728032	0.8474945533769064
10142.60864257812	-1.594009089665282	-8.895858461477715	6.216034662797139	76.03339484458596	-16.37571457257287	19.45888436370824	0.1707818930041153	-0.8033472803347279	0.8997821350762528
10162.13989257812	-0.9759776076437392	-8.708871875485029	5.948736024088706	80.37431291383213	-12.14100941855519	20.25594839638049	0.1810699588477366	-0.7991631799163179	0.9041394335511983
10181.67114257812	-1.126756325371108	-8.635228496706803	5.940809395749334	84.21930087014448	1.034041712671498	22.65184985108898	0.1666666666666667	-0.7635983263598326	0.9324618736383443
10201.20239257812	-1.972235056893539	-8.334616800465025	6.02819327405428	84.69359147752972	5.152748042833354	24.57982936722079	0.1810699588477366	-0.7740585774058577	0.9477124183006537
10220.73364257812	-2.141965943870318	-8.13598832642565	6.359659712118804	84.95675864988632	-3.048312165876544	28.27140367079407	0.1831275720164609	-0.7426778242677824	0.9694989106753814
10240.26489257812	-1.716515661112985	-8.015202474934854	6.157832295399704	83.47462666430556	-7.570388065742474	29.35825838349352	0.1646090534979424	-0.7196652719665272	0.9934640522875818
10259.79614257812	-1.811822126136735	-7.444838876299747	6.437922663206475	82.70715914698712	-10.95162104648591	29.70180454425212	0.1604938271604938	-0.6966527196652719	1.032679738562092
10279.32739257812	-1.449046263935546	-7.530889019817189	6.639268116672817	82.0226227645622	-9.106485496167611	28.96553891862323	0.1522633744855967	-0.6778242677824268	1.045751633986928
10298.85864257812	-1.081363874364568	-7.126286426355748	6.420750827817356	81.97730242519012	-8.734710777990564	26.32774723184274	0.1584362139917695	-0.6506276150627615	1.054466230936819
10318.38989257812	-1.410574077746897	-6.713973431255335	6.589589527053705	81.01461372633041	-3.166576513583222	25.62871159335474	0.1502057613168724	-0.606694560669456	1.098039215686275
10337.92114257812	-1.882890992613019	-6.470917443120078	6.718231278523928	78.88561532797655	-2.48417780881742	24.50346010870428	0.154320987654321	-0.608786610878661	1.126361655773421
10357.45239257812	-1.742409313688269	-6.56416369205919	6.765478833371271	76.62839504242233	-7.77577501439897	22.94111017438431	0.1358024691358025	-0.5920502092050208	1.119825708061002
10376.98364257812	-1.414769279896683	-6.123392636132973	7.053420049131759	75.22917446702489	-6.325214318228059	22.20089880021395	0.1419753086419753	-0.5564853556485355	1.152505446623094
10396.51489257812	-1.585848047332955	-6.059552208042906	7.03469926265988	73.44618561472548	-5.259300998722415	20.32476548057882	0.1358024691358025	-0.5292887029288702	1.16557734204793
10416.04614257812	-1.571994382430324	-5.68428672788085	7.215217234933171	72.41564954860114	-4.170814095631518	20.71300884017576	0.1152263374485597	-0.4832635983263598	1.172113289760349
10435.57739257812	-1.491097305137331	-5.675387079389686	7.2568752285347	71.73865504999063	-1.95231796044058	19.98047682039559	0.1275720164609054	-0.4707112970711297	1.178649237472767
10455.10864257812	-1.345263510175149	-5.233421724585566	7.300633854426547	70.00848897145742	0.607717355710887	19.25136019242504	0.1193415637860082	-0.4414225941422594	1.217864923747277
10474.63989257812	-1.616795746428766	-5.113918077220032	7.59682300736158	68.60929798312519	0.9388759544191292	19.63203026897816	0.1152263374485597	-0.4184100418410042	1.233115468409586
10494.17114257812	-1.39038012057791	-4.694577714356669	7.559448121157197	66.03622582441915	-2.869659493924142	18.46186944279661	0.139917695473251	-0.399581589958159	1.228758169934641
10513.70239257812	-1.549927134127979	-4.487662907747353	7.729814552968324	62.10166223409794	-4.107099386708406	17.31741957217065	0.1275720164609054	-0.3640167364016736	1.252723311546841
10533.23364257812	-1.737560379411577	-4.059068244187966	7.789771994097498	59.51349644540797	-8.289221972309402	15.76616438405049	0.1213991769547325	-0.3493723849372385	1.246187363834423
10552.76489257812	-1.41479251921495	-4.105514547757664	7.831081397925019	58.85915718530596	-6.070046179963209	16.16571463253999	0.1378600823045268	-0.301255230125523	1.26797385620915
10572.29614257812	-1.505030792046184	-4.038432739971904	8.29817957023246	57.48256226135179	-3.499403729174372	15.4367040759158	0.1296296296296297	-0.2907949790794979	1.281045751633987
10591.82739257812	-1.40930804010391	-3.557066636653593	8.141386921099617	57.54288746951214	-0.1393850177056805	15.09294577246445	0.1255144032921811	-0.2405857740585774	1.287581699346405
10611.35864257812	-1.772065715012542	-3.469197763880464	8.121950767787165	55.76747008809237	0.1804867892099355	14.34142750940153	0.1234567901234568	-0.2301255230125523	1.270152505446623
10630.88989257812	-1.838807016265431	-3.072620818462318	8.252223313156655	54.70676648671033	-0.2244686471897349	14.71473644560358	0.1090534979423868	-0.2196652719665272	1.28322440087146
10650.42114257812	-1.868782705614592	-3.039886723075364	8.435378442850693	52.87102389713021	-3.26461555174281	14.30697648599201	0.1378600823045268	-0.1799163179916318	1.28322440087146
10669.95239257812	-1.642664138875499	-2.650252271388234	8.45712135110244	50.71938012262292	-2.95603053661982	12.42326988331305	0.1131687242798354	-0.1945606694560669	1.302832244008715
10689.48364257812	-1.608912565510502	-2.305397965191563	8.666620774065116	49.3654601618874	-1.130976493650841	13.57359589544085	0.1111111111111111	-0.1464435146443515	1.311546840958606
10709.01489257812	-1.973579906137606	-2.408495664265652	8.738627296513222	48.28207173493163	-0.4172094897430957	11.69394111264974	0.1275720164609054	-0.1359832635983264	1.311546840958606
10728.54614257812	-1.636872496601275	-2.071088043965881	8.809369802128623	46.85269348663155	-0.8332251655503071	11.31242246532563	0.102880658436214	-0.09623430962343095	1.318082788671024
10748.07739257812	-1.881779546956766	-2.319368837090672	8.744001641463779	45.70897985151544	-3.479476873111254	9.77652598598587	0.1275720164609054	-0.0899581589958159	1.318082788671024
10767.60864257812	-1.799385049243257	-2.160727146547879	8.611343529553912	43.96373986770846	-2.039296759192627	9.413569296559018	0.1337448559670782	-0.07322175732217573	1.315904139433551
10787.13989257812	-1.603340181152103	-1.748159529351669	8.846053571215846	42.94077527246376	-1.696851368691759	10.92642771272818	0.1337448559670782	-0.02510460251046025	1.318082788671024
10806.67114257812	-1.67476572064353	-1.82000640778733	8.589221719373896	40.75901327447411	-4.74737885549712	10.89592243786012	0.1255144032921811	-0.0397489539748954	1.309368191721133
10826.20239257812	-1.610512036850365	-1.455244089076873	8.830324594369573	40.04431921914654	-4.768819677156948	10.51834953907749	0.1234567901234568	0.006276150627615062	1.335511982570806
10845.73364257812	-1.741728300622528	-1.445557334980052	8.52646646640639	38.61494097084645	-5.184835352964159	10.13683089175338	0.1193415637860082	0.0104602510460251	1.337690631808279
10865.26489257812	-1.447248753187841	-1.290531884440651	8.456354453599626	37.62964634525362	-1.483050908149854	10.17384873620152	0.1316872427983539	0.008368200836820083	1.328976034858388
10884.79614257812	-1.463904271549373	-0.9358817003918182	8.534526468224513	37.04317417712637	4.469504180537672	10.2333742870884	0.1234567901234568	0.04602510460251046	1.318082788671024
10904.32739257812	-1.888047090052894	-0.9259211265015016	8.682298220249145	33.49236900135206	3.989845696906233	9.851219211686045	0.1378600823045268	0.06903765690376569	1.313725490196079
10923.85864257812	-1.705178915419198	-0.8209218449500776	8.4368516135478	30.94194221879944	0.5551239382057744	9.439513503533002	0.1193415637860082	0.09832635983263598	1.315904139433551
10943.38989257812	-1.479459458711214	-0.4711983963738743	8.507100031048742	28.43677660148846	-1.012568343746391	9.423836580713481	0.1255144032921811	0.07949790794979079	1.331154684095861
10962.92114257812	-1.638899369316225	-0.2535732952588426	8.738609109220665	25.17919764742269	-4.095370339234035	8.638291579626529	0.1131687242798354	0.09205020920502091	1.333333333333333
10982.45239257812	-1.465802822811282	-0.1156358164817711	8.737135938523558	22.65138665395829	-6.036876310829013	7.864159538778503	0.1296296296296297	0.1087866108786611	1.32244008714597
11001.98364257812	-1.577715296344604	-0.1957720587028009	8.580494850162021	20.49979219122634	-7.593961458143808	7.848588687305355	0.1255144032921811	0.1380753138075314	1.333333333333333
11021.51489257812	-1.376538580536984	-0.280120679961032	8.628794236762236	19.07042380528133	-8.383111166438574	7.840697190222407	0.1481481481481482	0.1401673640167364	1.320261437908497
11041.04614257812	-1.235948788262035	-0.3625555938802227	8.747290510201148	17.32519368382942	-7.316065085007506	7.851367651036718	0.1358024691358025	0.1569037656903766	1.342047930283224
11060.57739257812	-1.6174141143757	-0.1252498214083652	8.482613872836332	17.4307800572314	-2.08901689679052	7.903638132918888	0.1481481481481482	0.1589958158995816	1.32244008714597
11080.10864257812	-1.242919573337029	-0.04953309127865671	8.722467887076435	15.68554007342442	-0.6488367828718944	7.540681443492036	0.1316872427983539	0.1548117154811715	1.315904139433551
11099.63989257812	-1.573242232780754	0.2515342976821883	8.875632171344183	14.31649689563976	1.922032220302029	7.189031642957738	0.1440329218106996	0.1694560669456067	1.333333333333333
11119.17114257812	-1.553980879557878	0.1574675997677321	8.598394177253414	12.86449299589639	0.3859347898768917	6.796312178087449	0.1316872427983539	0.1778242677824268	1.315904139433551
11138.70239257812	-1.283649004613015	-0.08207217847319519	8.417403335373645	9.644623460902761	-0.8300642812475441	6.029435206244129	0.1337448559670782	0.1799163179916318	1.311546840958606
11158.23364257812	-1.432408932866571	0.1934501476863728	8.399388822096059	7.974812177595121	3.970587648909943	6.077441725545704	0.1358024691358025	0.1945606694560669	1.320261437908497
11177.76489257812	-1.329567876698563	0.3765456634770299	8.732804331679594	7.282763498420969	4.322960516892928	6.458323944791571	0.1316872427983539	0.1799163179916318	1.326797385620915
11197.29614257812	-1.428945264039628	0.5398170303806902	8.699570085747327	4.446632653264087	4.61101091989643	5.706487467689531	0.1234567901234568	0.1945606694560669	1.32244008714597
11216.82739257812	-1.532059129595988	0.3294405757547164	8.667818104158444	1.873560494558043	0.8024754715531592	4.536326641507984	0.139917695473251	0.1820083682008368	1.313725490196079
11236.35864257812	-1.612910738657589	0.3250877504027703	9.080933360941644	0.01518239117957581	-2.984619155130285	3.743738714109075	0.1255144032921811	0.200836820083682	1.300653594771242
11255.88989257812	-1.681668808574007	0.5199878294679832	9.241505935710894	-1.060614840186395	-3.763161728787682	3.735953288372501	0.1316872427983539	0.1903765690376569	1.318082788671024
11275.42114257812	-1.349921477879994	0.3613875655360143	9.196489355417194	-1.466989043821498	-6.014158925045988	3.33608482584388	0.1460905349794239	0.1841004184100418	1.315904139433551
11294.95239257812	-1.218814337863172	0.3407884359050661	9.418992692558037	-2.128899774803156	-3.048941620109766	2.611020017761167	0.1584362139917695	0.2071129707112971	1.318082788671024
11314.48364257812	-1.611563868603238	0.4597747558378709	9.421014513247277	-3.204736455589416	-2.334948063816936	1.108725991059944	0.1584362139917695	0.1903765690376569	1.315904139433551
11334.01489257812	-1.2905066243121	0.242266861719317	9.524460802095371	-1.843254886329324	-4.532909586888388	0.7093878852631916	0.1296296296296297	0.1924686192468619	1.326797385620915
11353.54614257812	-1.261003804569418	0.1622458056844808	9.662168918905198	-2.18175213563458	-3.423661519292918	0.3431218753731086	0.1522633744855967	0.2112970711297071	1.326797385620915
11373.07739257812	-1.231024073599689	0.1299158723543464	9.519438078134247	-2.211919670892289	-4.917103858783485	0.3281874519782029	0.1440329218106996	0.1924686192468619	1.313725490196079
11392.60864257812	-1.42985867028804	0.4484764055394816	9.664690890139752	-1.86590026248275	-4.906723276531199	-0.04906723276531199	0.1440329218106996	0.1903765690376569	1.324618736383442
11412.13989257812	-1.232226455718727	0.00967766045054309	9.614424244727967	-2.21196898266765	-3.051433696345701	-1.539948299227608	0.1440329218106996	0.1924686192468619	1.30718954248366
11431.67114257812	-1.522866463613629	0.2386061638896743	9.703772350629055	-1.414294480671227	0.3307054939380721	-0.374051435626657	0.1625514403292181	0.198744769874477	1.328976034858388
11451.20239257812	-1.493908252242511	0.1041242706984095	9.444812585557951	-1.429388110655154	-0.04288164331965463	-0.7551457975652721	0.154320987654321	0.1861924686192468	1.30718954248366
11470.73364257812	-1.37231508704322	0.1422286694153526	9.458034747246801	-1.075816956076115	-0.03227450868228347	-0.7550397262188984	0.1440329218106996	0.1841004184100418	1.313725490196079
11490.26489257812	-1.655165881698068	0.139977486758868	9.677315902389651	-0.3460292707646115	0.3627534502352706	0.003627534502352706	0.1440329218106996	0.1841004184100418	1.326797385620915
11509.79614257812	-1.695492161322376	0.1477535647320753	9.364170130360755	-1.74522025909684	0.6939120489435127	0.3842976110554729	0.1502057613168724	0.1882845188284519	1.311546840958606
11529.32739257812	-1.926338413721116	0.2954515571813379	9.530862729075393	-1.77538779435455	-0.7995302905470545	0.3693631876605672	0.1625514403292181	0.1861924686192468	1.324618736383442
11548.85864257812	-1.513407050673768	0.1744464477747196	9.367325625619374	-2.189294019449007	-3.79702210416556	0.3393882695243822	0.1460905349794239	0.198744769874477	1.331154684095861
11568.38989257812	-1.188731545568954	0.3187646350238291	9.296980209224797	-1.843264748684396	-4.159775554400831	0.3357607350220295	0.1502057613168724	0.1799163179916318	1.313725490196079
11587.92114257812	-1.130358419702512	0.0954711610619039	9.306601286987386	-1.098422882809253	-1.898624328275322	-0.01898624328275322	0.1502057613168724	0.1673640167364017	1.309368191721133
11607.45239257812	-1.501275116133189	0.3775388917316638	9.498813688374748	-1.767865635250266	0.320098359300701	-0.3741575069730307	0.1666666666666667	0.1903765690376569	1.318082788671024
11626.98364257812	-1.56379090308203	0.1865662574535946	9.468437878589336	-1.399190988332229	0.3311585987082421	0.3806700765531202	0.1563786008230453	0.1882845188284519	1.298474945533769
11646.51489257812	-1.409463642495785	0.4677771645628972	9.615354827863795	-2.15913634654637	-1.930445732187436	-0.01930445732187436	0.1748971193415638	0.1924686192468619	1.30718954248366
11666.04614257812	-1.331106723729903	0.2226609603430027	9.502872485830357	-1.452003899743364	-1.536097430425137	-0.3927194648702891	0.1440329218106996	0.1861924686192468	1.331154684095861
11685.57739257812	-1.674566670830546	0.2201005937130511	9.570016938734925	-1.782939540524049	-0.7997568429321394	-0.007997568429321394	0.1502057613168724	0.1945606694560669	1.337690631808279
11705.10864257812	-1.170514951262956	0.1202220454215305	9.681174639627136	-1.813136662846975	-1.173797084960036	-1.143813442547714	0.1584362139917695	0.1841004184100418	1.315904139433551
11724.63989257812	-1.432821178164527	0.1522256178907831	9.326616402446229	-0.6769747739003683	1.472228070215825	0.01472228070215825	0.1604938271604938	0.1820083682008368	1.324618736383442
11744.17114257812	-1.252016250830894	0.05090016943584869	9.656691512630152	-1.760343476145983	1.439727009148456	-1.117678201606629	0.1584362139917695	0.1778242677824268	1.320261437908497
11763.70239257812	-1.462183551592464	0.2462913054000972	9.583551315612668	-1.760343476145983	1.439727009148456	-1.117678201606629	0.1604938271604938	0.1694560669456067	1.309368191721133
11783.23364257812	-1.582371243239165	0.3487342619421376	9.486461485513201	-2.535372601988979	-1.568598491492505	-1.525119947179076	0.1666666666666667	0.1736401673640167	1.32244008714597
11802.76489257812	-1.322325292640357	0.09070305919657577	9.455958364679891	-1.474619688831574	-3.029313217530619	-0.03029313217530619	0.1625514403292181	0.1820083682008368	1.313725490196079
11822.29614257812	-1.13043622089845	0.08769104146812839	9.538534735318969	-0.7071521715131499	0.3519197632128144	-0.3738392929339096	0.154320987654321	0.1736401673640167	1.309368191721133
11841.82739257812	-1.430591214016025	0.375222032740946	9.408495593537292	-1.083368702245615	-0.03250106106736846	-1.132400482308787	0.1522633744855967	0.1715481171548117	1.315904139433551
11861.35864257812	-1.352620270014406	0.09150835209478864	9.475897699753082	-1.452043349163653	-0.04356130047490959	-1.887228065834938	0.1584362139917695	0.1903765690376569	1.315904139433551
11880.88989257812	-1.493510152616544	0.143934233295131	9.386201004077986	-1.429427560075443	1.449654486630573	-2.249654398529921	0.1625514403292181	0.1945606694560669	1.339869281045752
11900.42114257812	-1.374233846407971	-0.0496472670597082	9.458522772930412	-0.68453638242494	1.845135550318297	-0.7362656256288925	0.1584362139917695	0.1673640167364017	1.348583877995643
11919.95239257812	-1.394449022084941	-0.05096281455465571	9.286537672081723	-0.6920979909495114	2.218043030420769	-1.487253531959943	0.1625514403292181	0.1924686192468619	1.324618736383442
11939.48364257812	-1.545410623143021	0.004392231152485989	9.469613990174681	0.007522159104283147	1.119628649847755	-0.7435206946335979	0.1604938271604938	0.1715481171548117	1.320261437908497
11959.01489257812	-1.705994312368831	0.1076394701875972	9.372160414224076	0.0603252081603468	3.360018711468691	-0.3437583034513508	0.1419753086419753	0.1841004184100418	1.315904139433551
11978.54614257812	-1.45240181941229	0.2143635133164982	9.440638601916149	-0.6619008686265857	2.592083272448666	-0.3514376578415511	0.1419753086419753	0.1736401673640167	1.324618736383442
11998.07739257812	-1.572703686840042	0.3053888917533875	9.211663619840483	-1.406762459211872	1.077200111298271	-0.7439449800190928	0.1625514403292181	0.1736401673640167	1.318082788671024
12017.60864257812	-1.553977848342452	0.1577707213103468	9.638813404046742	-1.459565508267936	-1.163189950322665	-1.14370737120134	0.1460905349794239	0.1610878661087866	1.313725490196079
12037.13989257812	-1.402214996006728	0.1825408033676723	9.389044284147712	-0.729777822956432	-0.7681619914051109	-0.3850401104800888	0.1584362139917695	0.198744769874477	1.324618736383442
12056.67114257812	-1.564082910168082	0.1573655488483852	9.578086034199325	-1.105994353688897	-1.152582815685294	-1.143601299854966	0.168724279835391	0.1820083682008368	1.326797385620915
12076.20239257812	-1.32180392358706	0.1428399645262921	9.620186585253071	-0.7147039176826494	0.3516932108277295	-0.7512000490237982	0.1522633744855967	0.1882845188284519	1.313725490196079
12095.73364257812	-1.58215703734905	0.3701548509535715	9.608746778234796	-1.452033486808581	-0.4166953329624664	-1.513600915593776	0.1728395061728395	0.1945606694560669	1.328976034858388
12115.26489257812	-1.462584682433857	0.2061782212607612	9.611844680400317	-0.3762362554426094	0.3618472406949307	-1.505815489857202	0.154320987654321	0.1799163179916318	1.335511982570806
12134.79614257812	-1.543506009450259	0.1948536004286786	9.327640953260266	0.007532021459355256	0.7464946173601986	-0.3698935443924358	0.1460905349794239	0.1924686192468619	1.320261437908497
12154.32739257812	-1.705370892396187	0.1699814674520061	9.547000920004196	-1.444491602994153	-0.04333474808982461	-1.509867309745049	0.1625514403292181	0.1757322175732217	1.313725490196079
12173.85864257812	-1.534114293654915	0.1239241698619972	9.324188398889886	-1.053181442277761	0.7146732134480851	-0.3702117584315569	0.1481481481481482	0.1861924686192468	1.326797385620915
12193.38989257812	-1.675082987858133	0.1684688909543591	9.456319079315604	-0.3460292707646115	0.3627534502352706	0.003627534502352706	0.1728395061728395	0.1799163179916318	1.326797385620915
12212.92114257812	-1.644259568594794	0.2205077869852968	9.671350470430996	-0.3460194084095394	-0.01038058225228618	0.3772546847435149	0.1502057613168724	0.1820083682008368	1.313725490196079
12232.45239257812	-1.695784168408428	0.1185528561268659	9.473818285970745	-0.3535514298688947	-0.7568751996124847	0.7471482291359507	0.1584362139917695	0.196652719665272	1.318082788671024
12251.98364257812	-1.615278117905409	0.08834982562074419	9.644830366667641	-0.3459898213443231	-1.129782679714956	1.498136135467002	0.1769547325102881	0.1694560669456067	1.309368191721133
12271.51489257812	-1.737197643965581	0.01760934081562592	9.397649904742542	0.3837781392570367	0.0115133441777111	1.509549095705928	0.1646090534979424	0.1924686192468619	1.313725490196079
12291.04614257812	-1.563660560818706	0.1996004837860237	9.762020186257883	0.3536106039993273	-1.481928995312856	1.494614672311023	0.154320987654321	0.1924686192468619	1.315904139433551
12310.57739257812	-1.413208203952218	0.09332101891962412	9.535988514361007	0.3536106039993273	-1.481928995312856	1.494614672311023	0.168724279835391	0.1924686192468619	1.311546840958606
12330.10864257812	-1.291908056244122	0.102123668517153	9.648752759429074	0.3385169740154005	-1.855516132570583	1.113520310372407	0.1748971193415638	0.1820083682008368	1.320261437908497
12349.63989257812	-1.422888895618187	0.1353528624237108	9.679407441033691	1.436929994469582	0.4162422281922964	0.7588794034139985	0.1769547325102881	0.1715481171548117	1.32244008714597
12369.17114257812	-1.301408895794806	0.1621407235497077	9.570850522977114	1.429388110655154	0.04288164331965463	0.7551457975652721	0.1625514403292181	0.1882845188284519	1.333333333333333
12388.70239257812	-1.483470767125147	0.1377717723337755	9.800134689026248	0.7147039176826494	-0.3516932108277295	0.7512000490237982	0.1790123456790124	0.1924686192468619	1.313725490196079
12408.23364257812	-1.332521290928772	0.0812042404561753	9.495785504164028	0.707171896223294	-1.098187828187928	1.121093593416234	0.1666666666666667	0.1903765690376569	1.298474945533769
12427.76489257812	-1.531671134021442	0.368240133209389	9.518246810471771	0.68453638242494	-1.845135550318297	0.7362656256288925	0.154320987654321	0.205020920502092	1.318082788671024
12447.29614257812	-1.190944332830041	0.09748590891514915	9.386904246056853	1.752791729976484	-1.439953561533541	0.7403174455167402	0.1604938271604938	0.1841004184100418	1.311546840958606
12466.82739257812	-1.33132194002516	0.201139330817364	9.370481120877992	1.075816956076115	0.03227450868228347	0.7550397262188984	0.1625514403292181	0.2092050209205021	1.318082788671024
12486.35864257812	-1.666407649308503	0.02590173581642015	9.358368384035112	0.353581016934111	-0.3625268978501856	0.3737332215875359	0.1604938271604938	0.1757322175732217	1.311546840958606
12505.88989257812	-1.37819362415966	0.5644759678723903	9.246765094475256	0.3535908792891831	-0.7356609303377424	0.7473603718286981	0.1625514403292181	0.1945606694560669	1.302832244008715
12525.42114257812	-1.370012373724491	0.3725000012882667	9.257450128852422	-0.7599354958590693	-2.634738363383235	-0.02634738363383235	0.1625514403292181	0.1882845188284519	1.318082788671024
12544.95239257812	-1.4314076213708	0.2935812972634056	9.323597311881787	-0.3686450598528215	-1.130462336870211	0.3660538671973356	0.154320987654321	0.1903765690376569	1.32244008714597
12564.48364257812	-1.494049708962398	0.0899785987097268	9.040063483350915	0.007541883814427364	0.3733605848726418	0.003733605848726418	0.1378600823045268	0.202928870292887	1.313725490196079
12584.01489257812	-1.400501348885813	0.3539055154591432	9.357225615819454	0.03017739761278156	1.12030830700301	0.3885615736360679	0.1625514403292181	0.196652719665272	1.302832244008715
12603.54614257812	-1.339911394137716	0.3522949296627175	9.317346945673073	-0.3234036193213294	1.482835204853196	0.01482835204853196	0.1646090534979424	0.1841004184100418	1.302832244008715
12623.07739257812	-1.229310426478774	0.3012805844458173	9.487619409805989	-0.7146644682623609	-1.140842919122498	0.7433085519408505	0.1584362139917695	0.1924686192468619	1.318082788671024
12642.60864257812	-1.479975775738801	0.4872709109684441	9.40350318173043	-1.790471561983405	-1.546251460292338	0.3618959759631144	0.1728395061728395	0.202928870292887	1.326797385620915
12662.13989257812	-1.392117007017092	0.1822386922301997	9.379029148379724	-2.136500832748016	-1.183498010057067	0.3655235104654671	0.1728395061728395	0.196652719665272	1.313725490196079
12681.67114257812	-1.30090773484435	0.2122568185953266	9.532957298934861	-1.775397656709622	-0.4263962580594976	-0.004263962580594976	0.168724279835391	0.1861924686192468	1.318082788671024
12701.20239257812	-1.311223971344668	0.1907341786645458	9.380262853058166	-1.038077949938762	0.715126318218255	0.3845097537482203	0.1625514403292181	0.1924686192468619	1.320261437908497
12720.73364257812	-1.411487483995309	0.2653930146105291	9.57491235164815	-1.030526203769263	0.7153528706033401	0.7618705098381089	0.1604938271604938	0.198744769874477	1.315904139433551
12740.26489257812	-1.462090594319395	0.2555870327069459	9.50320895074266	-1.030526203769263	0.7153528706033401	0.7618705098381089	0.1604938271604938	0.1945606694560669	1.305010893246187
12759.79614257812	-1.392427201395701	0.1512192543693026	9.306768003835822	-1.406732872146656	-0.04220198616439969	0.3769364707043938	0.1646090534979424	0.1882845188284519	1.326797385620915
12779.32739257812	-1.481996586022898	0.2851898825586907	9.3933789222071	-1.782939540524049	-0.7997568429321394	-0.007997568429321394	0.1707818930041153	0.200836820083682	1.320261437908497
12798.85864257812	-1.432494817303645	0.1848617039789583	9.560574702682478	-2.482530103512627	-0.8207445598217967	0.3691510449678198	0.1666666666666667	0.1757322175732217	1.331154684095861
12818.38989257812	-1.461803639259054	0.2842825387411309	9.343030433978811	-2.113875181304734	-0.06341625543914202	0.3767243280116463	0.1666666666666667	0.196652719665272	1.315904139433551
12837.92114257812	-1.351196609169259	0.2338744366094599	9.573939331496359	-2.121417065119161	-0.4367768403117838	0.37299072216292	0.168724279835391	0.1945606694560669	1.320261437908497
12857.45239257812	-1.382912216173028	0.09261676653561614	9.526155251518587	-1.752752280556195	-0.05258256841668587	0.7541911554479087	0.1563786008230453	0.1715481171548117	1.311546840958606
12876.98364257812	-1.584888162448008	0.09704234105778974	9.564760811185987	-0.6844969330046514	0.3525994203680694	0.7582429753357562	0.1831275720164609	0.200836820083682	1.324618736383442
12896.51489257812	-1.472998928232954	0.1748546514521073	9.488962238239772	-0.3309159160705404	-0.009927477482116214	1.131976196923292	0.1707818930041153	0.198744769874477	1.326797385620915
12916.04614257812	-1.431804710591626	0.2538723751808891	9.392314965592524	-0.3309159160705404	-0.009927477482116214	1.131976196923292	0.1604938271604938	0.1882845188284519	1.300653594771242
12935.57739257812	-1.220207686554057	0.2014535668165411	9.624133227737914	-1.068245485196472	-0.7783160212723121	0.3695753303533146	0.1707818930041153	0.1841004184100418	1.30718954248366
12955.10864257812	-1.252316341158083	0.02089113671700031	9.685491090393967	-1.053161717567617	-0.03159485152702852	0.3770425420507675	0.168724279835391	0.1715481171548117	1.320261437908497
12974.63989257812	-1.503873878158538	0.117662689196721	9.768622173456031	0.0226355137983542	0.7469477221303685	0.3848279677873415	0.1728395061728395	0.1778242677824268	1.309368191721133
12994.17114257812	-1.475119768626114	-0.03722938786392885	9.488437837971048	-0.361093313683322	-1.130235784485127	0.7434146232872243	0.1625514403292181	0.1841004184100418	1.318082788671024
13013.70239257812	-1.463183852683092	0.1462611963372693	9.679549908158721	-0.01507390527378262	-1.11985520223284	0.3661599385437094	0.1872427983539095	0.200836820083682	1.313725490196079
13033.23364257812	-1.291491769325597	0.1437523603695622	9.772050478103001	-0.03770941907213682	-1.866802924363209	-0.01866802924363209	0.1934156378600823	0.198744769874477	1.315904139433551
13052.76489257812	-1.372902132430751	0.08352413066231928	9.647012841774467	0.4064037907003188	1.131595098795636	1.520749913252107	0.168724279835391	0.202928870292887	1.335511982570806
13072.29614257812	-1.370083102084435	0.3654271652939253	9.560126082799409	0.007561608524571581	-0.3729074801024718	0.7509879063310508	0.168724279835391	0.1820083682008368	1.318082788671024
13091.82739257812	-1.323160897692832	0.007142553949142737	9.179044710639722	-0.3610834513282499	-1.503369816972683	1.117041773528386	0.1872427983539095	0.1945606694560669	1.296296296296297
13111.35864257812	-1.29080267301872	0.2126619910572881	9.593684668782275	-0.7297482358912155	-1.887564088867781	0.7358413402433978	0.1728395061728395	0.1715481171548117	1.315904139433551
13130.88989257812	-1.45199260532976	0.2552849215694733	9.493193814974672	-0.007522159104283147	-1.119628649847755	0.7435206946335979	0.1851851851851852	0.1903765690376569	1.311546840958606
13150.42114257812	-1.322830495211382	0.04018280209413742	9.45342729979906	0.02264537615342631	0.3738136896428118	0.7584551180285036	0.1810699588477366	0.1673640167364017	1.313725490196079
13169.95239257812	-1.249712527107023	0.2812725418229676	9.466212966466545	-0.3460095460544673	-0.383514614739843	0.7508818349846771	0.1707818930041153	0.1820083682008368	1.339869281045752
13189.48364257812	-1.288584833731923	0.4344459197369925	9.554290993104077	-1.083339115180399	-1.151903158530039	-0.01151903158530039	0.1728395061728395	0.1861924686192468	1.311546840958606
13209.01489257812	-1.614675916440748	0.1485699720868507	9.607443355601553	-1.04561983375319	0.3417657333456133	0.3807761478994939	0.1872427983539095	0.1736401673640167	1.311546840958606
13228.54614257812	-1.374830995846922	-0.1093622109547904	9.546440145150358	-1.82066868430633	-1.920291702320235	-0.7739198981552778	0.168724279835391	0.1820083682008368	1.30718954248366
13248.07739257812	-1.375135127794679	-0.1397754057304582	9.534815433991087	-0.7448517282302145	-1.888017193637951	-0.01888017193637951	0.1769547325102881	0.202928870292887	1.30718954248366
13267.60864257812	-1.351912986414972	0.1622367120382023	9.479441190586247	-0.3686647845629658	-0.384194271895098	-0.3812004332849888	0.1790123456790124	0.1903765690376569	1.313725490196079
13287.13989257812	-1.472607901442981	0.2139573304493946	9.359608151144405	0.007551746169499472	0.0002265523850849842	0.3773607560898886	0.1810699588477366	0.1861924686192468	1.305010893246187
13306.67114257812	-1.281701953904287	0.1126328923996022	9.709986342252655	-0.376196806022321	-1.130688889255296	-0.01130688889255296	0.1831275720164609	0.1924686192468619	1.313725490196079
13326.20239257812	-1.222128466729092	0.009375549313070514	9.604409108959981	-0.376196806022321	-1.130688889255296	-0.01130688889255296	0.1707818930041153	0.1778242677824268	1.311546840958606
13345.73364257812	-1.138409327874357	0.3004813539784567	9.589498560278766	-1.113526375148252	-1.899077433045492	-0.7737077554625305	0.1748971193415638	0.1799163179916318	1.32244008714597
13365.26489257812	-1.273154936807696	-0.04276640804235609	9.33866548376516	-0.4064235154104631	-0.3853270338205229	-2.268004213734432	0.1831275720164609	0.1861924686192468	1.313725490196079
13384.79614257812	-1.140641312833143	0.07728285809988404	9.487407224726159	1.030526203769263	-0.7153528706033401	-0.7618705098381089	0.1790123456790124	0.1841004184100418	1.298474945533769
13404.32739257812	-1.343723652738666	-0.02893093043228233	9.570974802809587	-0.729777822956432	-0.7681619914051109	-0.3850401104800888	0.1851851851851852	0.1778242677824268	1.328976034858388
13423.85864257812	-1.322628414182972	0.06039090493511276	9.454439725751392	-0.7448714529403588	-1.141749128662838	-0.7661344724187039	0.1872427983539095	0.202928870292887	1.313725490196079
13443.38989257812	-1.414033704953272	0.01077091881423985	9.360135582628555	-0.7222359391420046	-0.3948014065324691	-0.3813065046313625	0.1872427983539095	0.1799163179916318	1.311546840958606
13462.92114257812	-1.240111657447276	0.2312584976966957	9.534515343663898	-0.7222458014970767	-0.0216673740449123	-0.7549336548725246	0.1810699588477366	0.200836820083682	1.313725490196079
13482.45239257812	-1.521789371732205	0.3463153520320729	9.365734237520646	-1.444471878284009	-0.7896028130649383	-0.7626130092627249	0.1872427983539095	0.1903765690376569	1.324618736383442
13501.98364257812	-1.319617406859667	0.3614916372656453	9.26750467042095	-1.429378248300082	-0.4160156758072115	-0.3815186473241099	0.1646090534979424	0.1778242677824268	1.324618736383442
13521.51489257812	-1.319711374537877	0.3520948694445918	9.337740963060186	-1.790471561983405	-1.546251460292338	0.3618959759631144	0.1954732510288066	0.1903765690376569	1.315904139433551
13541.04614257812	-1.26274574303431	-0.01194804080472667	9.411017564771846	-1.045639558463334	1.088033798320727	-0.3664781525828305	0.1872427983539095	0.1882845188284519	1.320261437908497
13560.57739257812	-1.512375427023736	0.2776088127778987	9.584615272227245	-0.29323608406362	2.976277544343763	0.02976277544343763	0.1954732510288066	0.1861924686192468	1.309368191721133
13580.10864257812	-1.451690494192288	0.2854960353167314	9.4846063816724	-1.053181442277761	0.7146732134480851	-0.3702117584315569	0.1707818930041153	0.1861924686192468	1.311546840958606
13599.63989257812	-1.471856160017297	0.2891314730178229	9.807818820131528	0.03018725996785367	0.7471742745154536	0.76218872387723	0.1748971193415638	0.1841004184100418	1.315904139433551
13619.17114257812	-1.59337152402065	0.2588071938946553	9.562663210111094	-0.3384676622400399	-0.0101540298672012	0.7546154408334035	0.1934156378600823	0.205020920502092	1.313725490196079
13638.70239257812	-1.36373876819751	-0.01024045611466426	9.379789983451687	-1.0682356228414	-1.151450053759869	0.7432024805944768	0.1728395061728395	0.1861924686192468	1.320261437908497
13658.23364257812	-1.353621581510176	-0.008622797482244187	9.561790220068364	-0.6920388168190788	-0.02076116450457237	0.7545093694870298	0.191358024691358	0.1799163179916318	1.324618736383442
13677.76489257812	-1.380579190700037	0.3259193138346764	9.628752800047362	0.3988619068858915	0.7582345139229947	1.517016307403381	0.1851851851851852	0.1841004184100418	1.315904139433551
13697.29614257812	-1.036435199318227	0.3968841085813295	9.33271217666821	0.7373591561911478	-0.3510135536724745	1.883282317293464	0.1831275720164609	0.1778242677824268	1.311546840958606
13716.82739257812	-1.148842771371152	0.2672380143999102	9.274600745733558	0.7524429238200024	0.3957076160728091	1.890749528990917	0.1934156378600823	0.1841004184100418	1.320261437908497
