Time Stamp	Accelerometer X	Accelerometer Y	Accelerometer Z	Gyroscope X	Gyroscope Y	Gyroscope Z	Magnetometer X	Magnetometer Y	Magnetometer Z
311.553955078125	-0.02900165879222576	-9.97087294992965	-2.195803361054102	50.83893590714312	-6.310652818308094	4.087836868043334	0.1646090534979424	-0.4205020920502092	0.6971677559912854
331.085205078125	-0.02634328286349545	-9.705035357056618	-1.86935358451985	0.7146546059072888	1.513976951610055	-1.116935702182013	0.1604938271604938	-0.4225941422594142	0.7080610021786493
350.616455078125	-0.1371412795251371	-9.673723912109669	-1.99010811345124	-1.007880827615836	1.089166560246152	1.520325627866613	0.1604938271604938	-0.4121338912133891	0.6906318082788672
370.147705078125	-0.0671464737148508	-9.744950401788111	-1.902060398967969	-1.060703601382045	-0.4049554363996703	0.3733089362020411	0.1728395061728395	-0.4142259414225941	0.6862745098039217
389.678955078125	-0.07776886297320948	-9.797088317522972	-2.086591700465477	-1.436900407404366	-1.535644325654967	0.3620020473094881	0.1646090534979424	-0.4246861924686192	0.7102396514161221
409.210205078125	0.2982079424088469	-9.573145153054709	-2.172644875198344	-0.3309060537154684	-0.383061509969673	1.505603347164454	0.1625514403292181	-0.4142259414225941	0.7080610021786493
428.741455078125	0.1748233288927038	-9.790394383456899	-1.922114920227352	0.02264537615342631	0.3738136896428118	0.7584551180285036	0.1666666666666667	-0.4184100418410042	0.6949891067538128
448.272705078125	0.07451030639010223	-9.720686532706953	-2.222662960945184	0.0452710275967084	1.493895444260737	0.7696559355746829	0.154320987654321	-0.4205020920502092	0.7058823529411765
467.803955078125	0.0942202794960475	-9.769891242314445	-2.053208924977328	0.03017739761278156	1.12030830700301	0.3885615736360679	0.1604938271604938	-0.4100418410041841	0.7080610021786493
487.335205078125	-0.02857930944284938	-9.928638014992011	-2.011869208995544	0.790132618181995	3.008778605411131	1.162163257752225	0.1728395061728395	-0.405857740585774	0.6862745098039217
506.866455078125	-0.1773513625581098	-9.654328175002901	-2.151156589042393	-0.3158321484416857	0.7367936922631674	1.139443408620745	0.1604938271604938	-0.4435146443514644	0.7037037037037037
526.397705078125	0.1263309549103573	-9.589126731186493	-2.094354643171838	-0.7146644682623609	-1.140842919122498	0.7433085519408505	0.1625514403292181	-0.4184100418410042	0.701525054466231
545.928955078125	-0.03778005866634543	-9.838611927240606	-2.11857102321132	-1.775407519064694	-0.05326222557194082	-0.3778911128217572	0.1522633744855967	-0.4393305439330544	0.69281045751634
565.460205078125	-0.1973331346472662	-9.632303363716522	-2.008841024784824	-1.459516196492575	-3.028860112760449	0.7244283800044711	0.1604938271604938	-0.4205020920502092	0.69281045751634
584.991455078125	0.3563820184623047	-9.816343608314995	-2.133718006695773	-1.48215171029093	-3.775807834890818	0.3396004122171296	0.168724279835391	-0.4225941422594142	0.6949891067538128
604.522705078125	0.176216677583589	-9.651059514368374	-2.12725545540723	-0.3083001269823305	1.483288309623366	0.7695498642283092	0.168724279835391	-0.4225941422594142	0.6993464052287582
624.053955078125	-0.09735960827239303	-9.735960827239303	-2.073630223303275	-0.6618910062715135	2.218949239961109	0.02218949239961108	0.1522633744855967	-0.4205020920502092	0.69281045751634
643.585205078125	0.03432750429596483	-9.698562701716652	-2.1108474863055	-0.3158420107967578	1.109927724750724	0.7658162583795828	0.1584362139917695	-0.4163179916317991	0.7080610021786493
663.116455078125	0.08280472220118057	-9.901345961700132	-2.090198846822591	-0.3535514298688947	-0.7568751996124847	0.7471482291359507	0.154320987654321	-0.4225941422594142	0.7124183006535948
682.647705078125	0.1431905751105831	-9.923366731365942	-2.151302087382848	-1.053171579922689	0.3415391809605283	0.003415391809605283	0.1481481481481482	-0.4225941422594142	0.69281045751634
702.178955078125	-0.08817502553116974	-9.827603563217986	-2.128625564779847	-0.6995807006335061	-0.3941217493772142	0.7507757636383033	0.1502057613168724	-0.4288702928870293	0.6862745098039217
721.710205078125	0.02493780931090563	-9.627431190121563	-2.087182787473575	-0.3384676622400399	-0.0101540298672012	0.7546154408334035	0.1646090534979424	-0.4184100418410042	0.701525054466231
741.241455078125	0.1241939480349242	-9.802827418729809	-2.256576199132909	0.04529075230685262	0.7476273792856235	1.516910236057007	0.1522633744855967	-0.4309623430962343	0.6906318082788672
760.772705078125	0.175407343064808	-9.731992966246478	-2.141411231447333	0.413925949804602	2.251223748643392	0.7772292186185095	0.1790123456790124	-0.4330543933054393	0.6906318082788672
780.303955078125	-0.1385679715857099	-9.816393118166953	-2.118467961886831	-1.053181442277761	0.7146732134480851	-0.3702117584315569	0.1810699588477366	-0.4225941422594142	0.673202614379085
799.835205078125	0.2068349846030928	-9.619531842721024	-1.943554706936485	-0.3611031760383941	-0.7571017519975698	0.3697874730460621	0.1625514403292181	-0.4288702928870293	0.7037037037037037
819.366455078125	0.002116798772592165	-9.889330223750886	-2.060101908856384	-1.068245485196472	-0.7783160212723121	0.3695753303533146	0.1604938271604938	-0.4267782426778242	0.6884531590413944
838.897705078125	0.08453251499408394	-9.728566682409792	-1.980532503920044	0.007561608524571581	-0.3729074801024718	0.7509879063310508	0.1646090534979424	-0.4330543933054393	0.6971677559912854
858.428955078125	0.06463561693685962	-9.698054467930202	-1.999407882378657	-1.414274755961084	-0.4155625710370415	0.3732028648556673	0.1646090534979424	-0.4288702928870293	0.7037037037037037
877.960205078125	0.06482658350870685	-9.67895781074548	-2.109562250964813	-0.3309257784256125	0.3632065550054406	0.75834904668213	0.1625514403292181	-0.4330543933054393	0.6949891067538128
897.491455078125	0.2942683727599987	-9.967102117939522	-2.182281109038063	0.0452710275967084	1.493895444260737	0.7696559355746829	0.1625514403292181	-0.4309623430962343	0.6906318082788672
917.022705078125	0.0531048734557991	-9.841027805935244	-2.178389028430892	0.05281291141113576	1.867256029133379	0.7733895414234093	0.1625514403292181	-0.4100418410041841	0.7080610021786493
936.553955078125	0.1740988684058548	-9.862840432141795	-2.097461638983638	-1.068245485196472	-0.7783160212723121	0.3695753303533146	0.1769547325102881	-0.4205020920502092	0.7080610021786493
956.085205078125	0.02162064922955953	-9.959147198256172	-1.932084587763947	-1.04561983375319	0.3417657333456133	0.3807761478994939	0.1646090534979424	-0.4100418410041841	0.7254901960784315
975.616455078125	0.01413354712697816	-9.697756398413297	-2.070605070307981	-1.053161717567617	-0.03159485152702852	0.3770425420507675	0.1707818930041153	-0.4142259414225941	0.6797385620915033
995.147705078125	0.01180254246427165	-9.930856864683948	-2.152990474375212	-0.6845067953597235	0.7257334528556262	0.384615825094594	0.168724279835391	-0.4330543933054393	0.6993464052287582
1014.678955078125	0.1372261535570692	-9.50970787661632	-2.211486869668983	-0.3233838946111852	0.7365671398780824	0.7620826525308564	0.1584362139917695	-0.4121338912133891	0.69281045751634
1034.210205078125	-0.1277687614274927	-9.746573112446242	-2.185576040206284	-0.6694230277308688	1.47245462260091	0.3920830367920469	0.1646090534979424	-0.4121338912133891	0.7037037037037037
1053.741455078125	-0.1590741439435897	-9.846808333752906	-2.170698834894758	-0.3535514298688947	-0.7568751996124847	0.7471482291359507	0.1604938271604938	-0.4309623430962343	0.6906318082788672
1073.272705078125	0.2049202668589104	-9.811003617139265	-1.902642392329789	0.03020698467799789	0.0009062095403399367	1.509443024359554	0.1563786008230453	-0.4184100418410042	0.69281045751634
1092.803955078125	0.2937490245169857	-10.01903694224083	-2.3262971851497	-0.6920486791741509	0.3523728679829845	0.3808822192458676	0.1584362139917695	-0.4225941422594142	0.6797385620915033
1112.335205078125	0.1141343544406867	-9.79868576805255	-1.862530318595595	0.4063742036351026	2.250997196258307	0.3998684625286208	0.1502057613168724	-0.4330543933054393	0.6993464052287582
1131.866455078125	-0.1389670816168192	-9.85630412127788	-2.069962452637638	-0.3233937569662573	1.109701172365639	0.3884555022896942	0.1481481481481482	-0.4100418410041841	0.6862745098039217
1151.397705078125	-0.02919161495893093	-9.989868566600165	-2.075542920237174	-1.429358523589938	-1.162283740782325	0.3657356531582145	0.168724279835391	-0.4309623430962343	0.7145969498910676
1170.928955078125	-0.2712604372704063	-9.954326555323458	-2.035782467492413	-0.6920190921089346	-0.767029229479686	1.501763669969354	0.1625514403292181	-0.4225941422594142	0.6993464052287582
1190.460205078125	0.3669609602995553	-9.768550434690946	-2.383747811121451	-1.075797231365971	-0.7785425736573971	-0.007785425736573971	0.1584362139917695	-0.4184100418410042	0.7037037037037037
1209.991455078125	0.02312110086550194	-9.80910203466193	-2.076082476583028	0.06036465758063524	1.867482581518464	1.150750297513298	0.1728395061728395	-0.397489539748954	0.6862745098039217
1229.522705078125	-0.02595326647866463	-9.666033718573535	-2.008813743845989	-1.045600109043046	-0.4045023316295003	1.128030448381818	0.1851851851851852	-0.405857740585774	0.6993464052287582
1249.053955078125	0.2852990063140318	-9.853937752435202	-1.994894402609125	-0.6920486791741509	0.3523728679829845	0.3808822192458676	0.1790123456790124	-0.4205020920502092	0.6862745098039217
1268.585205078125	-0.0173668435815342	-9.817492438961505	-1.985997785333386	0.07543856285441786	2.987337783751304	0.7845903589695886	0.1666666666666667	-0.4121338912133891	0.7037037037037037
1288.116455078125	-0.08837003372358515	-9.847104382459527	-2.058895485116778	-0.6996102876987225	0.7252803480854563	-0.3701056870851832	0.168724279835391	-0.4288702928870293	0.6949891067538128
1307.647705078125	-0.1295632409597713	-9.926021065674103	-1.952142140238758	-1.03806808758369	0.3419922857306982	0.7581369039893825	0.1563786008230453	-0.4267782426778242	0.6819172113289761
1327.178955078125	-0.1373544750101094	-9.695043460606897	-2.102287333942062	-1.098422882809253	-1.898624328275322	-0.01898624328275322	0.1666666666666667	-0.4267782426778242	0.7145969498910676
1346.710205078125	-0.09749601296656961	-9.749601296656962	-2.427848964356453	-1.068225760486328	-1.524584086247426	1.116829630835639	0.1728395061728395	-0.4393305439330544	0.7037037037037037
1366.241455078125	0.2755718360115285	-9.816553772584539	-2.31635479855194	-0.3384676622400399	-0.0101540298672012	0.7546154408334035	0.1502057613168724	-0.4100418410041841	0.69281045751634
1385.772705078125	0.1356105157349332	-9.671271658829916	-2.209480205056874	-0.6920388168190788	-0.02076116450457237	0.7545093694870298	0.1666666666666667	-0.4205020920502092	0.69281045751634
1405.303955078125	0.2968196457436719	-9.711974819572209	-1.916973978864608	-1.060693739026972	-0.7780894688872271	0.7469360864432033	0.1625514403292181	-0.4205020920502092	0.6949891067538128
1424.835205078125	-0.02818120981688216	-9.888828052395288	-2.070480790475509	-0.654339260102014	2.219175792346193	0.3995502484894997	0.1646090534979424	-0.4184100418410042	0.7102396514161221
1444.366455078125	-0.01888851372545965	-9.969659453354048	-2.054227413360513	-0.3158617355069021	1.856195789725838	0.01856195789725838	0.1728395061728395	-0.4225941422594142	0.7080610021786493
1463.897705078125	-0.04858533125541496	-9.909038176046549	-2.112099378276498	-1.038077949938762	0.715126318218255	0.3845097537482203	0.1666666666666667	-0.4309623430962343	0.7037037037037037
1483.428955078125	-0.278651550884493	-9.683336906631121	-2.224327098214139	-0.3535415675138225	-1.130009232100041	1.120775379377113	0.1810699588477366	-0.4142259414225941	0.6840958605664489
1502.960205078125	0.05472253208821917	-9.679261942693238	-2.160183548581457	-0.007522159104283147	-1.119628649847755	0.7435206946335979	0.1584362139917695	-0.4288702928870293	0.6819172113289761
1522.491455078125	0.1045233807295188	-9.749682129068326	-2.031893418100667	-0.3460194084095394	-0.01038058225228618	0.3772546847435149	0.1584362139917695	-0.4267782426778242	0.7080610021786493
1542.022705078125	0.002623011748758604	-9.838708926134242	-2.04746477174478	-0.3309356407806847	0.7363405874929974	0.3847218964409677	0.1666666666666667	-0.4330543933054393	0.701525054466231
1561.553955078125	0.0635019423674809	-9.811421924868075	-2.227309814193466	-0.7071324468030056	-0.3943483017622991	0.3734150075484148	0.1460905349794239	-0.4288702928870293	0.69281045751634
1581.085205078125	0.08372217007016083	-9.809601174802102	-2.004794352190919	-1.075797231365971	-0.7785425736573971	-0.007785425736573971	0.1604938271604938	-0.4267782426778242	0.6862745098039217
1600.616455078125	0.2172320535147746	-9.589925961653853	-1.99247549269906	-1.075797231365971	-0.7785425736573971	-0.007785425736573971	0.1522633744855967	-0.4184100418410042	0.6884531590413944
1620.147705078125	0.08471135670422658	-9.710682511395527	-2.211959739275462	0.01509362998392684	0.3735871372577268	0.381094361938615	0.1481481481481482	-0.401673640167364	0.6797385620915033
1639.678955078125	0.2234723156720678	-9.976000756025545	-2.203636021715264	0.01508376762885473	0.7467211697452836	0.007467211697452836	0.154320987654321	-0.4205020920502092	0.701525054466231
1659.210205078125	-0.168569931468564	-9.786286076149327	-2.198070710192859	-0.3309553654908289	1.482608652468111	-0.3625324040413567	0.168724279835391	-0.4100418410041841	0.6949891067538128
1678.741455078125	0.2982200672705515	-9.571932666884249	-2.051372008429083	0.3385071116603284	-1.482382100083026	0.7398931601312453	0.1707818930041153	-0.4205020920502092	0.6906318082788672
1698.272705078125	0.07512564312160994	-9.659152859556183	-2.12867103301124	-0.3309257784256125	0.3632065550054406	0.75834904668213	0.1625514403292181	-0.4246861924686192	0.7037037037037037
1717.803955078125	-0.01777605766406395	-9.858413847214479	-2.03855299839191	-0.6995905629885782	-0.02098771688965735	0.3771486133971412	0.1707818930041153	-0.4330543933054393	0.6884531590413944
1737.335205078125	0.1049224907606281	-9.709771125957401	-2.08039892734986	-0.3233838946111852	0.7365671398780824	0.7620826525308564	0.1604938271604938	-0.4309623430962343	0.7058823529411765
1756.866455078125	-0.05735766869868234	-9.776170910272278	-1.974230607049086	-0.6845067953597235	0.7257334528556262	0.384615825094594	0.168724279835391	-0.4205020920502092	0.69281045751634
1776.397705078125	-0.005657258390331031	-9.656634929942198	-2.038443874636569	-0.7222063520767882	-1.51420350399514	0.7395749460921242	0.1728395061728395	-0.4246861924686192	0.6949891067538128
1795.928955078125	0.4273882398197819	-9.786428543274356	-2.030502090220065	-0.7146644682623609	-1.140842919122498	0.7433085519408505	0.1460905349794239	-0.4100418410041841	0.69281045751634
1815.460205078125	0.09511852966732887	-9.680066225186309	-2.159819802730319	0.0678966790399905	2.613977198878663	0.7808567531208621	0.1604938271604938	-0.4288702928870293	0.6819172113289761
1834.991455078125	0.06250669330256287	-9.910946831359878	-2.080780860493554	0.01510349233899894	0.0004531047701699683	0.7547215121797772	0.1707818930041153	-0.4142259414225941	0.6775599128540306
1854.522705078125	0.05381720908094347	-9.769794243420808	-2.124315176443868	0.04528088995178051	1.12076141177318	1.143283085815845	0.1481481481481482	-0.4288702928870293	0.701525054466231
1874.053955078125	0.09251572602141124	-9.940346589778072	-1.930435606572124	-0.6995905629885782	-0.02098771688965735	0.3771486133971412	0.154320987654321	-0.4393305439330544	0.7145969498910676
1893.585205078125	-0.2391770427949318	-9.776290138079039	-2.34979213591776	0.376196806022321	1.130688889255296	0.01130688889255296	0.1728395061728395	-0.4142259414225941	0.7058823529411765
1913.116455078125	-0.07695548683386022	-9.715750703588045	-2.032011635502287	-0.6920388168190788	-0.02076116450457237	0.7545093694870298	0.1646090534979424	-0.4225941422594142	0.6949891067538128
1932.647705078125	-0.0164675830051108	-9.727566381319164	-2.082502590855606	-1.068245485196472	-0.7783160212723121	0.3695753303533146	0.1707818930041153	-0.4184100418410042	0.701525054466231
1952.178955078125	0.06291489697995058	-9.870126463621107	-2.038331719665802	-1.068265209906616	-0.03204795629719848	-0.3776789701290098	0.1666666666666667	-0.4142259414225941	0.6884531590413944
1971.710205078125	-0.1381425910209074	-9.773855061686701	-1.904215593135959	-0.6845166577147956	1.098867485343183	0.01098867485343183	0.1666666666666667	-0.4267782426778242	0.69281045751634
1991.241455078125	0.0925025907545646	-9.941660116462735	-2.061814545572157	-0.3460095460544673	-0.383514614739843	0.7508818349846771	0.154320987654321	-0.4184100418410042	0.6862745098039217
2010.772705078125	0.1858276512947569	-9.700063153352597	-1.957892355902157	-0.3309159160705404	-0.009927477482116214	1.131976196923292	0.1522633744855967	-0.4100418410041841	0.6949891067538128
2030.303955078125	0.1133856442304285	-9.873556789078362	-2.280422770890402	-0.7222162144318603	-1.141069471507583	0.3659477958509619	0.1440329218106996	-0.4184100418410042	0.7037037037037037
2049.835205078125	0.3278936454822397	-9.634877876018463	-2.225939704820848	-1.045639558463334	1.088033798320727	-0.3664781525828305	0.1666666666666667	-0.4288702928870293	0.701525054466231
2069.366455078125	-0.1554275917859357	-9.482153117987504	-2.061520517675821	-0.3309356407806847	0.7363405874929974	0.3847218964409677	0.1625514403292181	-0.4163179916317991	0.69281045751634
2088.897705078125	-0.04786996441484442	-9.837501491989496	-2.027707309597159	-0.3007582431679031	1.856648894496008	0.7732834700770356	0.1748971193415638	-0.4184100418410042	0.6840958605664489
2108.428955078125	0.1457115359399947	-9.671270648424775	-2.189177124132546	-0.3309455031357568	1.109474619980554	0.01109474619980554	0.1604938271604938	-0.405857740585774	0.7080610021786493
2127.960205078125	0.03332013036934221	-9.799300094378916	-2.085591399374848	0.05281291141113576	1.867256029133379	0.7733895414234093	0.1563786008230453	-0.4184100418410042	0.6840958605664489
2147.491455078125	-0.06764965547559108	-9.795268577862142	-1.884379319387257	-1.060703601382045	-0.4049554363996703	0.3733089362020411	0.1584362139917695	-0.4121338912133891	0.6949891067538128
2167.022705078125	-0.0184752580223617	-9.928333883044255	-1.961247911378901	-0.3384577998849678	-0.383288062354758	1.128242591074566	0.1790123456790124	-0.4267782426778242	0.6906318082788672
2186.553955078125	0.03189950073962164	-9.941363057350971	-2.153314814425809	-0.6920388168190788	-0.02076116450457237	0.7545093694870298	0.1748971193415638	-0.4079497907949791	0.673202614379085
2206.085205078125	0.06128309267554181	-10.03330689406198	-2.198022210746041	-1.053161717567617	-0.03159485152702852	0.3770425420507675	0.1481481481481482	-0.4288702928870293	0.7037037037037037
2225.616455078125	-0.09686653056307323	-9.686653056307325	-2.192372025191704	-1.030545928479407	1.461620935578454	0.01461620935578454	0.1625514403292181	-0.4205020920502092	0.6949891067538128
2245.147705078125	-0.0680022868701661	-9.830531717319642	-2.381095497623573	-0.7071324468030056	-0.3943483017622991	0.3734150075484148	0.1728395061728395	-0.4142259414225941	0.6906318082788672
2264.678955078125	0.205616436001782	-9.741386702852104	-2.010265696035113	-0.6693934406656525	0.3530525251382394	1.512964487515533	0.1748971193415638	-0.4393305439330544	0.7124183006535948
2284.210205078125	-0.04605224556429869	-9.655729606934923	-2.028701548256935	-0.3309060537154684	-0.383061509969673	1.505603347164454	0.1646090534979424	-0.4142259414225941	0.7037037037037037
2303.741455078125	0.02404562157047657	-9.716649964164468	-1.919935476335953	-1.406732872146656	-0.04220198616439969	0.3769364707043938	0.168724279835391	-0.4372384937238493	0.6906318082788672
2323.272705078125	-0.06756478144365899	-9.786781174668931	-2.045570262103439	-0.3007681055229752	2.229782926983564	0.3996563198358734	0.1666666666666667	-0.4351464435146443	0.6906318082788672
2342.803955078125	-0.1262753826275446	-9.597235232451434	-2.400316434640767	-1.068265209906616	-0.03204795629719848	-0.3776789701290098	0.1481481481481482	-0.4246861924686192	0.7102396514161221
2362.335205078125	-0.1003069600717493	-10.03069600717493	-2.260113627535222	0.0452710275967084	1.493895444260737	0.7696559355746829	0.1728395061728395	-0.4225941422594142	0.701525054466231
2381.866455078125	0.0442496827908837	-9.716445862325774	-1.859117170025754	-0.6920289544640067	-0.3938951969921292	1.128136519728192	0.1481481481481482	-0.4246861924686192	0.6862745098039217
2401.397705078125	-0.09694635256929508	-9.69463525692951	-1.980650721321664	-0.3309455031357568	1.109474619980554	0.01109474619980554	0.1604938271604938	-0.4205020920502092	0.7080610021786493
2420.928955078125	0.02168935677921884	-9.95227644329024	-2.254972686172477	-0.7071521715131499	0.3519197632128144	-0.3738392929339096	0.1584362139917695	-0.401673640167364	0.6906318082788672
2440.460205078125	0.1144233303113126	-9.769788180989956	-2.0024966908979	0.4063939283452467	1.504729131283193	1.147122763010945	0.1666666666666667	-0.405857740585774	0.701525054466231
2459.991455078125	-0.09463959762999775	-9.463959762999776	-2.140811050792956	-0.6693835783105804	-0.02008150734931741	1.886591637756696	0.1646090534979424	-0.4121338912133891	0.69281045751634
2479.522705078125	0.06624822354356946	-9.536793807259219	-2.031732763683081	-0.3460194084095394	-0.01038058225228618	0.3772546847435149	0.1728395061728395	-0.4414225941422594	0.7080610021786493
2499.053955078125	0.01230976584558014	-9.8801345265531	-2.130247265032836	-0.338477524595112	0.3629800026203556	0.3809882905922413	0.168724279835391	-0.4225941422594142	0.6775599128540306
2518.585205078125	-0.02930376992969834	-10.00108406367691	-2.187215927751829	-0.300748380812831	1.483514862008451	1.146910620318198	0.1604938271604938	-0.4309623430962343	0.7124183006535948
2538.116455078125	-0.1074606284774546	-9.735961837644446	-2.093933304227603	-0.3460095460544673	-0.383514614739843	0.7508818349846771	0.1584362139917695	-0.4414225941422594	0.6993464052287582
2557.647705078125	0.08774964496636722	-9.406853685181463	-2.126030844375066	-0.3535612922239668	-0.383741167124928	0.3735210788947885	0.1728395061728395	-0.405857740585774	0.6906318082788672
2577.178955078125	0.02464782303513764	-9.656429817698362	-1.957322487402042	-0.3384676622400399	-0.0101540298672012	0.7546154408334035	0.1604938271604938	-0.4142259414225941	0.6906318082788672
2596.710205078125	-0.09542973445107988	-9.54297344510799	-1.962951454448395	-0.3384577998849678	-0.383288062354758	1.128242591074566	0.1604938271604938	-0.4205020920502092	0.6862745098039217
2616.241455078125	0.1329885143913166	-9.933471793191572	-2.172111381283342	0.06035479522556313	2.240616614006021	0.7771231472721357	0.1460905349794239	-0.405857740585774	0.7124183006535948
2635.772705078125	0.02443664836044944	-9.677547285167181	-2.049289563431321	-0.338477524595112	0.3629800026203556	0.3809882905922413	0.1810699588477366	-0.4288702928870293	0.6993464052287582
2655.303955078125	-0.2513706120491763	-9.98554605340248	-2.087649594649202	-0.3309257784256125	0.3632065550054406	0.75834904668213	0.1707818930041153	-0.4205020920502092	0.6797385620915033
2674.835205078125	0.1157136176777089	-9.640759444350328	-2.228355583515487	-1.429358523589938	-1.162283740782325	0.3657356531582145	0.1522633744855967	-0.4163179916317991	0.6840958605664489
2694.366455078125	0.115136676341599	-9.698453577961311	-1.938316766680104	-0.6996102876987225	0.7252803480854563	-0.3701056870851832	0.1563786008230453	-0.4309623430962343	0.7037037037037037
2713.897705078125	0.07218132253767981	-9.953584917949193	-2.284836220550871	-1.038097674648906	1.461394383193369	-0.3627445467341041	0.1604938271604938	-0.4100418410041841	0.6862745098039217
2733.428955078125	-0.1054489118396355	-9.534790173862538	-2.174763694781221	-0.3459996836993952	-0.7566486472273998	1.124508985225839	0.1460905349794239	-0.4246861924686192	0.7037037037037037
2752.960205078125	0.1526621129121482	-9.986313961310438	-2.366475945623269	-0.3384380751748236	-1.129556127329872	1.87549689155689	0.1625514403292181	-0.4351464435146443	0.69281045751634
2772.491455078125	0.3182260890831171	-9.591532505829711	-1.951141839148129	-0.3158420107967578	1.109927724750724	0.7658162583795828	0.1563786008230453	-0.4205020920502092	0.69281045751634
2792.022705078125	0.04442347247531608	-9.699066893882534	-2.14107476653503	-0.3233937569662573	1.109701172365639	0.3884555022896942	0.1604938271604938	-0.4184100418410042	0.7037037037037037
2811.553955078125	-0.08786887277312895	-9.796988287413908	-2.096788709159033	-1.045629696108262	0.7148997658331701	0.007148997658331701	0.1728395061728395	-0.4267782426778242	0.6797385620915033
2831.085205078125	-0.0765755745004499	-9.677759470247011	-2.272532517136143	-0.3309060537154684	-0.383061509969673	1.505603347164454	0.1748971193415638	-0.4288702928870293	0.6949891067538128
2850.616455078125	0.21568613364744	-9.744517948387314	-2.30325085426471	-0.7071225844479335	-0.7674823342498559	0.7470421577895769	0.168724279835391	-0.4225941422594142	0.6906318082788672
2870.147705078125	0.1650082533428421	-9.761800928342058	-2.112702590146301	-0.3233937569662573	1.109701172365639	0.3884555022896942	0.1563786008230453	-0.4184100418410042	0.6753812636165578
2889.678955078125	0.0236485323496514	-9.756358886246984	-1.851217822625217	-1.04561983375319	0.3417657333456133	0.3807761478994939	0.1790123456790124	-0.4351464435146443	0.7037037037037037
2909.210205078125	0.1072433913719141	-9.477681064828797	-2.099074245590347	-1.467067942662075	-3.029086665145534	0.3470676239145824	0.1604938271604938	-0.4246861924686192	0.6949891067538128
2928.741455078125	0.03282503184973831	-9.848809946339305	-1.987061741947963	-0.6694131653757966	1.099320590113353	0.765710187033209	0.1666666666666667	-0.4225941422594142	0.7058823529411765
2948.272705078125	-0.0269576091898611	-9.766467989693185	-1.953239440223023	-1.038097674648906	1.461394383193369	-0.3627445467341041	0.1563786008230453	-0.4163179916317991	0.6862745098039217
2967.803955078125	-0.03565315584233279	-9.625921644839343	-2.057410189557966	-0.6920486791741509	0.3523728679829845	0.3808822192458676	0.1502057613168724	-0.4184100418410042	0.6993464052287582
2987.335205078125	-0.09796585135762229	-9.79658513576223	-2.076667501160274	2.958706521632559e-05	-1.11940209746267	1.120881450723487	0.1502057613168724	-0.4184100418410042	0.7124183006535948
3006.866455078125	0.1946009991431663	-9.832829378612663	-2.085655054898798	-0.3535514298688947	-0.7568751996124847	0.7471482291359507	0.168724279835391	-0.4372384937238493	0.7145969498910676
3026.397705078125	-0.0158522462736031	-9.666032708168395	-1.988510662921661	0.3913002983613199	1.131141994025466	0.7660284010723302	0.1748971193415638	-0.4205020920502092	0.6862745098039217
3045.928955078125	0.2455951362572256	-9.783920717711791	-2.143305741088674	0.03020698467799789	0.0009062095403399367	1.509443024359554	0.1584362139917695	-0.4246861924686192	0.6949891067538128
3065.460205078125	0.02232288080328342	-9.888924040883781	-1.979071458084641	-0.2856744755390484	2.603370064241291	0.7807506817744885	0.1502057613168724	-0.4225941422594142	0.6862745098039217
3084.991455078125	-0.2894325737501534	-9.751338183096143	-1.975309719740794	-0.3460391331196837	0.7358874827228274	-0.3699996157388095	0.1646090534979424	-0.4288702928870293	0.6949891067538128
3104.522705078125	0.001988477319551978	-9.902162369054906	-2.333472072063389	-0.3535415675138225	-1.130009232100041	1.120775379377113	0.1872427983539095	-0.3933054393305439	0.7102396514161221
3124.053955078125	0.145944939527808	-9.647930289643449	-1.874876459026288	-0.3309257784256125	0.3632065550054406	0.75834904668213	0.1769547325102881	-0.405857740585774	0.6993464052287582
3143.585205078125	-0.1888629083414714	-9.79538174323805	-2.138122362709964	0.3837584145468925	0.7577814091528248	0.7622947952236038	0.1646090534979424	-0.405857740585774	0.6906318082788672
3163.116455078125	0.1443010103616947	-9.812323206254783	-2.155839816875789	-0.3460194084095394	-0.01038058225228618	0.3772546847435149	0.1666666666666667	-0.4184100418410042	0.7124183006535948
3182.647705078125	0.0133242126081971	-9.778689850291405	-2.084760846348084	0.02264537615342631	0.3738136896428118	0.7584551180285036	0.1748971193415638	-0.4121338912133891	0.6906318082788672
3202.178955078125	-0.1384578374252266	-9.805379702118623	-2.027007098833719	-0.3082804022721863	0.7370202446482523	1.516804164710634	0.1872427983539095	-0.405857740585774	0.6906318082788672
3221.710205078125	-0.02708795145318539	-9.779502216025612	-2.24682174789157	-0.3535415675138225	-1.130009232100041	1.120775379377113	0.1666666666666667	-0.4330543933054393	0.7037037037037037
3241.241455078125	0.1449123054726341	-9.751193695160831	-2.102272177864932	0.03018725996785367	0.7471742745154536	0.76218872387723	0.1584362139917695	-0.4184100418410042	0.6775599128540306
3260.772705078125	-0.2707703907765127	-9.905321905934093	-2.184842486073157	-0.3158321484416857	0.7367936922631674	1.139443408620745	0.1748971193415638	-0.4246861924686192	0.6884531590413944
3280.303955078125	0.0826875152047029	-9.913066661347896	-2.252402215491105	-0.3459799589892509	-1.502916712202513	1.871763285708164	0.1748971193415638	-0.4142259414225941	0.701525054466231
3299.835205078125	0.1360278130585994	-9.629541926463304	-2.076076414152175	0.03774886849242525	0.3742667944129817	1.513176630208281	0.1563786008230453	-0.4372384937238493	0.673202614379085
3319.366455078125	0.06502664372683251	-9.658951788932916	-2.128761969474024	-0.3309455031357568	1.109474619980554	0.01109474619980554	0.1707818930041153	-0.4246861924686192	0.6819172113289761
3338.897705078125	-0.02949877812211375	-10.02058488291845	-2.11748584808876	0.07542870049934575	3.360471816238861	0.4109632087284264	0.1604938271604938	-0.401673640167364	0.69281045751634
3358.428955078125	0.1652224592329564	-9.740380339330626	-1.990417297424707	-1.045609971398118	-0.03136829914194354	0.7544032981406561	0.1563786008230453	-0.399581589958159	0.7058823529411765
3377.960205078125	0.0329968007238866	-9.831633058924476	-2.289231482918783	0.03018725996785367	0.7471742745154536	0.76218872387723	0.1748971193415638	-0.403765690376569	0.6884531590413944
3397.491455078125	-0.1797672412527484	-9.895916044466761	-2.072351050393441	-0.3158518731518299	1.483061757238281	0.3921891081384206	0.1666666666666667	-0.4079497907949791	0.701525054466231
3417.022705078125	0.1446324232482867	-9.779181917595583	-1.87135115548568	-0.3309257784256125	0.3632065550054406	0.75834904668213	0.1646090534979424	-0.4225941422594142	0.7037037037037037
3436.553955078125	-0.006969774669852387	-9.787886557894334	-2.034918571095961	-0.6844969330046514	0.3525994203680694	0.7582429753357562	0.1604938271604938	-0.4142259414225941	0.6840958605664489
3456.085205078125	-0.07869136286790002	-9.889338306992022	-2.222526556251008	-1.045629696108262	0.7148997658331701	0.007148997658331701	0.1646090534979424	-0.4288702928870293	0.6993464052287582
3475.616455078125	0.06431733931711425	-9.729882229904739	-2.152517604768732	0.05281291141113576	1.867256029133379	0.7733895414234093	0.1769547325102881	-0.4121338912133891	0.6971677559912854
3495.147705078125	-0.07615019393564736	-9.635221413766759	-2.05828014838527	-0.3233740322561131	0.3634331073905256	1.135709802772018	0.1769547325102881	-0.4225941422594142	0.6971677559912854
3514.678955078125	0.5088723625003045	-9.718824356030158	-2.177822191146202	0.03773900613735315	0.7474008269005386	1.139549479967119	0.168724279835391	-0.4121338912133891	0.6862745098039217
3534.210205078125	0.07422234092461832	-9.749483079255342	-2.072590516412107	-0.676955049190224	0.7259600052407112	0.7619765811844826	0.1604938271604938	-0.4142259414225941	0.6906318082788672
3553.741455078125	0.02226124608961844	-9.89508751225028	-2.595541864161719	-0.3309356407806847	0.7363405874929974	0.3847218964409677	0.1604938271604938	-0.4267782426778242	0.7080610021786493
3573.272705078125	-0.2490567842738846	-9.754163275873312	-2.177067418505092	-0.3158321484416857	0.7367936922631674	1.139443408620745	0.1646090534979424	-0.4079497907949791	0.6775599128540306
3592.803955078125	0.1744161356204581	-9.831113710681464	-1.954457988824333	-0.6995708382784341	-0.7672557818647709	1.124402913879466	0.1502057613168724	-0.4330543933054393	0.7037037037037037
3612.335205078125	0.03342622290925732	-9.788690840387403	-2.034554825244823	-0.3083001269823305	1.483288309623366	0.7695498642283092	0.1646090534979424	-0.4246861924686192	0.6862745098039217
3631.866455078125	0.001887436805347094	-9.912266420475394	-2.333978285039555	0.0452710275967084	1.493895444260737	0.7696559355746829	0.1728395061728395	-0.4142259414225941	0.6949891067538128
3651.397705078125	-0.005346053606580017	-9.625514451567097	-1.956076657861896	-0.3384577998849678	-0.383288062354758	1.128242591074566	0.1646090534979424	-0.4121338912133891	0.6862745098039217
3670.928955078125	0.08725454644676334	-9.456363537141852	-2.027501186948181	-0.6920388168190788	-0.02076116450457237	0.7545093694870298	0.1481481481481482	-0.4288702928870293	0.6862745098039217
3690.460205078125	0.2631610296517434	-10.04753339846203	-2.206815766697291	-1.053161717567617	-0.03159485152702852	0.3770425420507675	0.154320987654321	-0.4288702928870293	0.6797385620915033
3709.991455078125	-0.04737284508495643	-9.787789559000696	-2.106024822562501	-1.030545928479407	1.461620935578454	0.01461620935578454	0.168724279835391	-0.4121338912133891	0.7037037037037037
3729.522705078125	-0.329661854480825	-9.733862215759268	-2.32837356771661	-0.3535317051587504	-1.503143264587598	1.494402529618275	0.1584362139917695	-0.4267782426778242	0.69281045751634
3749.053955078125	0.1771331150474272	-9.55941576798455	-2.051957033006329	-0.3535317051587504	-1.503143264587598	1.494402529618275	0.1522633744855967	-0.4225941422594142	0.6753812636165578
3768.585205078125	0.4060686913225529	-9.898181372795232	-2.137313028191183	-0.7071028597377893	-1.513750399224969	1.494296458271901	0.1481481481481482	-0.4142259414225941	0.6862745098039217
3788.116455078125	0.2152051807998248	-9.792613233148836	-2.063236185607019	0.01511335469407105	-0.3726809277173868	1.128348662420939	0.168724279835391	-0.4163179916317991	0.6906318082788672
3807.647705078125	0.1040222197790626	-9.799798224113946	-1.994000194058412	0.01510349233899894	0.0004531047701699683	0.7547215121797772	0.1522633744855967	-0.4184100418410042	0.6971677559912854
3827.178955078125	-0.09523270544838038	-9.52327054483804	-2.012469389649922	-0.6844870706495794	-0.02053461211948738	1.131870125576918	0.1769547325102881	-0.4142259414225941	0.701525054466231
3846.710205078125	0.1032118748551395	-9.880832716506255	-2.018262042329287	0.03772914378228104	1.120534859388095	0.7659223297259565	0.1666666666666667	-0.4225941422594142	0.69281045751634
3866.241455078125	0.1360126569814686	-9.631057534176376	-2.227667497613752	0.4063840659901746	1.87786316377075	0.7734956127697831	0.1502057613168724	-0.4288702928870293	0.6971677559912854
3885.772705078125	-0.03708894154918408	-9.769500215524472	-2.276724688070503	-0.3460095460544673	-0.383514614739843	0.7508818349846771	0.1646090534979424	-0.4351464435146443	0.6971677559912854
3905.303955078125	0.0835059433697624	-9.831223844841945	-2.147291789374056	-0.6920289544640067	-0.3938951969921292	1.128136519728192	0.1748971193415638	-0.4184100418410042	0.6906318082788672
3924.835205078125	0.08561870052178638	-9.619948129639548	-2.227615966951507	-1.414284618316155	-0.04242853854948467	-0.0004242853854948467	0.1810699588477366	-0.4184100418410042	0.6971677559912854
3944.366455078125	0.0619065126481859	-9.970964896797573	-2.023181704965922	0.4139160874495299	2.624357781130949	0.4036020683773472	0.168724279835391	-0.4121338912133891	0.6993464052287582
3963.897705078125	-0.2800428787650942	-9.822469694691236	-1.998974418572718	-0.6920486791741509	0.3523728679829845	0.3808822192458676	0.1646090534979424	-0.4142259414225941	0.6993464052287582
3983.428955078125	0.2961921841504596	-9.774720978893438	-2.132238773567814	0.3762461177976815	-0.7349812731824875	1.879442640098364	0.1625514403292181	-0.4142259414225941	0.6819172113289761
4002.960205078125	0.09582985488733119	-9.608933703186075	-2.115852022974067	0.03772914378228104	1.120534859388095	0.7659223297259565	0.1604938271604938	-0.4142259414225941	0.6906318082788672
4022.491455078125	0.1566208802586953	-9.59043722665573	-2.164824339398887	-0.3007582431679031	1.856648894496008	0.7732834700770356	0.1502057613168724	-0.4309623430962343	0.7102396514161221
4042.022705078125	-0.1162390283515742	-9.603700814955404	-2.016700966384822	-0.3384577998849678	-0.383288062354758	1.128242591074566	0.1666666666666667	-0.4205020920502092	0.7102396514161221
4061.553955078125	0.07432237103368117	-9.73948006834906	-2.082190375666712	-1.030536066124335	1.088486903090897	0.3882433595969467	0.1563786008230453	-0.4288702928870293	0.701525054466231
4081.085205078125	0.0440385081161955	-9.737563329794593	-1.951084246055033	-0.2932262217085478	2.603143511856206	0.4033899256845999	0.1851851851851852	-0.4100418410041841	0.7080610021786493
4100.616455078125	-0.2271239198554321	-9.581078854230075	-1.996476697061573	-0.3309455031357568	1.109474619980554	0.01109474619980554	0.168724279835391	-0.4079497907949791	0.6949891067538128
4120.147705078125	0.05250267199113803	-9.901247952401352	-2.141002017364803	0.3988619068858915	0.7582345139229947	1.517016307403381	0.1769547325102881	-0.4100418410041841	0.7080610021786493
4139.678955078125	0.06480839621614996	-9.680776540001169	-2.291471551118705	-0.6920388168190788	-0.02076116450457237	0.7545093694870298	0.1666666666666667	-0.4163179916317991	0.7058823529411765
4159.210205078125	0.3058122515079059	-9.822815253249816	-1.871921023985796	-1.098413020454181	-2.271758360762879	0.354640906958409	0.1460905349794239	-0.4225941422594142	0.69281045751634
4178.741455078125	0.2650919138781986	-9.854444975816511	-2.08603092561164	-0.676955049190224	0.7259600052407112	0.7619765811844826	0.154320987654321	-0.4246861924686192	0.6775599128540306
4198.272705078125	0.2890405365550384	-9.479784728334543	-1.945846305798652	-1.030555790834479	1.83475496806601	-0.3590109408853777	0.1481481481481482	-0.4163179916317991	0.7080610021786493
4217.803955078125	0.02262095032018781	-9.859117089193344	-2.028083180310001	-1.01545229849548	1.835208072836181	0.3957105712943996	0.154320987654321	-0.4184100418410042	0.7037037037037037
4237.335205078125	0.05211164520116516	-9.940350631398639	-2.011647930269436	-0.300748380812831	1.483514862008451	1.146910620318198	0.1522633744855967	-0.4246861924686192	0.7058823529411765
4256.866455078125	-0.09746570081230815	-9.746570081230816	-2.124666797433301	0.4063939283452467	1.504729131283193	1.147122763010945	0.1707818930041153	-0.4184100418410042	0.6949891067538128
4276.397705078125	0.05341607823955011	-9.809907327560143	-2.096021811656218	0.03773900613735315	0.7474008269005386	1.139549479967119	0.1481481481481482	-0.4142259414225941	0.7037037037037037
4295.928955078125	-0.1968198488351054	-9.580974782500444	-1.925461382057818	-0.3460095460544673	-0.383514614739843	0.7508818349846771	0.168724279835391	-0.4246861924686192	0.6993464052287582
4315.460205078125	-0.01796702423591116	-9.877510504399201	-1.928398629805754	-0.6618712815613693	1.472681174985995	0.7694437928819354	0.1707818930041153	-0.4225941422594142	0.6971677559912854
4334.991455078125	0.1465653282850259	-9.585891413921653	-1.730354169938485	-0.6920388168190788	-0.02076116450457237	0.7545093694870298	0.1563786008230453	-0.4267782426778242	0.7167755991285404
4354.522705078125	0.1619083303670365	-10.07179322592262	-1.805000881022764	-0.7071324468030056	-0.3943483017622991	0.3734150075484148	0.1604938271604938	-0.4246861924686192	0.701525054466231
4374.053955078125	-0.04785986036342393	-9.836491086847447	-1.926646587289441	-0.692058541529223	0.7255069004705412	0.007255069004705413	0.1707818930041153	-0.4246861924686192	0.701525054466231
4393.585205078125	-0.005360199278568701	-9.626929018765965	-2.0975616690927	-0.6844969330046514	0.3525994203680694	0.7582429753357562	0.1604938271604938	-0.401673640167364	0.6971677559912854
4413.116455078125	-0.08756979285108252	-9.767080295209265	-2.135694359153621	-1.060693739026972	-0.7780894688872271	0.7469360864432033	0.168724279835391	-0.4246861924686192	0.7102396514161221
4432.647705078125	0.1129673365016203	-9.915387561959182	-2.423932634025872	-0.714674330617433	-0.767708886634941	0.3696814016996884	0.1646090534979424	-0.4225941422594142	0.6906318082788672
4452.178955078125	-0.1677444304675101	-9.703735976043943	-2.022217778460408	-0.7297679606013598	-1.141296023892668	-0.01141296023892668	0.1728395061728395	-0.401673640167364	0.6906318082788672
4471.710205078125	0.05340698459327167	-9.810816692187988	-2.186976461733164	-1.060713463737117	-0.0318214039121135	-0.000318214039121135	0.1419753086419753	-0.4246861924686192	0.673202614379085
4491.241455078125	0.3066670542580792	-9.737334978232489	-2.413093007661973	0.03773900613735315	0.7474008269005386	1.139549479967119	0.1872427983539095	-0.4267782426778242	0.69281045751634
4510.772705078125	0.1345970793774583	-9.772615294577408	-2.244860551510854	-0.3233937569662573	1.109701172365639	0.3884555022896942	0.1728395061728395	-0.4079497907949791	0.6949891067538128
4530.303955078125	-0.09875699858384647	-9.875699858384648	-1.908913977046485	-0.6996004253436504	0.3521463155978994	0.003521463155978994	0.1728395061728395	-0.4205020920502092	0.673202614379085
4549.835205078125	0.003337368184187076	-9.767273282591395	-1.973178775296213	-0.6995708382784341	-0.7672557818647709	1.124402913879466	0.1604938271604938	-0.4225941422594142	0.6949891067538128
4569.366455078125	0.09472851328249804	-9.719067863669391	-2.02035964340418	-0.7071324468030056	-0.3943483017622991	0.3734150075484148	0.1563786008230453	-0.4163179916317991	0.6797385620915033
4588.897705078125	-0.02537329392712864	-9.608036463419936	-2.268534343989056	0.01510349233899894	0.0004531047701699683	0.7547215121797772	0.1646090534979424	-0.4205020920502092	0.7080610021786493
4608.428955078125	0.1038110451043744	-9.820915691582766	-2.085967270087691	-1.068265209906616	-0.03204795629719848	-0.3776789701290098	0.1625514403292181	-0.4184100418410042	0.6819172113289761
4627.960205078125	-0.05746275083345542	-9.786679123749584	-2.015161108948339	-0.7146841929725051	-0.3945748541473841	-0.003945748541473841	0.168724279835391	-0.4142259414225941	0.673202614379085
4647.491455078125	-0.07626234890641478	-9.6464369108435	-2.169953155899926	-0.6920388168190788	-0.02076116450457237	0.7545093694870298	0.1625514403292181	-0.4246861924686192	0.69281045751634
4667.022705078125	0.2559083415421174	-9.762701199323624	-2.020929511904296	-1.068245485196472	-0.7783160212723121	0.3695753303533146	0.1604938271604938	-0.4163179916317991	0.6949891067538128
4686.553955078125	0.1538149851792259	-9.871026734602673	-1.946558641423796	-0.338477524595112	0.3629800026203556	0.3809882905922413	0.1790123456790124	-0.4246861924686192	0.6993464052287582
4706.085205078125	-0.005987660871780985	-9.689675178087192	-2.312826463795906	-1.113526375148252	-1.899077433045492	-0.7737077554625305	0.1769547325102881	-0.4100418410041841	0.6971677559912854
4725.616455078125	0.1431016594580828	-9.932258296615972	-2.030535433589753	-0.3309257784256125	0.3632065550054406	0.75834904668213	0.1625514403292181	-0.4246861924686192	0.6840958605664489
4745.147705078125	0.1325894043602074	-9.973382796302497	-2.123605872034149	-0.3611031760383941	-0.7571017519975698	0.3697874730460621	0.1625514403292181	-0.4267782426778242	0.6862745098039217
4764.678955078125	0.1847010495613725	-9.812723326691033	-2.115051782101564	0.3611229007485384	0.01083368702245615	0.3774668274362623	0.1604938271604938	-0.4246861924686192	0.69281045751634
4784.210205078125	0.06452043075066606	-9.709573086549558	-2.141399106585628	0.007541883814427364	0.3733605848726418	0.003733605848726418	0.1769547325102881	-0.401673640167364	0.69281045751634
4803.741455078125	0.02150445263822391	-9.970766857389732	-2.084181884201691	-0.3460194084095394	-0.01038058225228618	0.3772546847435149	0.1769547325102881	-0.4288702928870293	0.6993464052287582
4823.272705078125	0.06271685757210901	-9.889930404405263	-1.998919856695047	-0.6995708382784341	-0.7672557818647709	1.124402913879466	0.1728395061728395	-0.4288702928870293	0.6840958605664489
4842.803955078125	0.0844072247564699	-9.741095706171196	-2.223584450434733	-0.7071423091580777	-0.02121426927474233	-0.0002121426927474233	0.1625514403292181	-0.4267782426778242	0.6884531590413944
4862.335205078125	0.1041222498881254	-9.789795213207663	-2.003600053313017	-1.060713463737117	-0.0318214039121135	-0.000318214039121135	0.1563786008230453	-0.4205020920502092	0.6993464052287582
4881.866455078125	0.08433043396567419	-9.748774785250767	-1.981544929872377	0.03773900613735315	0.7474008269005386	1.139549479967119	0.1460905349794239	-0.4246861924686192	0.6819172113289761
4901.397705078125	0.03505701680852403	-9.625611450460733	-1.884970406395356	0.3536007416442552	-1.108794962825299	1.12098752206986	0.1481481481481482	-0.4100418410041841	0.6840958605664489
4920.928955078125	0.2136107614856719	-9.952055164564131	-1.849002004148704	-0.3535711545790389	-0.01060713463737117	-0.0001060713463737117	0.1646090534979424	-0.4142259414225941	0.6906318082788672
4940.460205078125	0.06189438778648131	-9.972177382968033	-2.144454571735183	-0.6920684038842951	1.098640932958098	-0.3663720812364568	0.1563786008230453	-0.4121338912133891	0.6884531590413944
4959.991455078125	-0.1500087890091281	-9.950373850407763	-2.408109689501389	-0.007541883814427364	-0.3733605848726418	-0.003733605848726418	0.1666666666666667	-0.4267782426778242	0.6971677559912854
4979.522705078125	-0.006596935172436392	-9.750602608152732	-2.34618195834522	0.01513307940421527	-1.1189489926925	1.875602962903264	0.168724279835391	-0.4246861924686192	0.6971677559912854
4999.053955078125	0.3081038503700725	-9.593655367033156	-2.183672436918664	-0.3535415675138225	-1.130009232100041	1.120775379377113	0.1769547325102881	-0.3933054393305439	0.6797385620915033
5018.585205078125	0.1173595676541063	-9.476164446710582	-1.927180081204443	-1.023013907020052	2.208115552938652	-0.3552773350366513	0.1584362139917695	-0.4246861924686192	0.6906318082788672
5038.116455078125	0.0343537748296581	-9.695935648347326	-1.848089608305433	0.09804448958755574	4.853687603344343	0.04853687603344343	0.1748971193415638	-0.4330543933054393	0.7037037037037037
5057.647705078125	-0.2796548831905475	-9.783670137236564	-2.1586467223604	0.4139358121596741	1.878089716155835	1.150856368859672	0.1604938271604938	-0.403765690376569	0.6971677559912854
5077.178955078125	-0.1183730040115812	-9.817098380956104	-2.148604305653578	0.04528088995178051	1.12076141177318	1.143283085815845	0.168724279835391	-0.4142259414225941	0.6884531590413944
5096.710205078125	-0.1474393287328981	-9.693427822784761	-1.960893259174042	-1.399190988332229	0.3311585987082421	0.3806700765531202	0.1769547325102881	-0.4121338912133891	0.6971677559912854
5116.241455078125	-0.1708948737004182	-10.01878029933475	-2.219819680875459	-0.6844870706495794	-0.02053461211948738	1.131870125576918	0.1666666666666667	-0.4372384937238493	0.7037037037037037
5135.772705078125	0.1533997086658438	-9.912554385940879	-2.059750287866951	-0.6995708382784341	-0.7672557818647709	1.124402913879466	0.1666666666666667	-0.4121338912133891	0.6666666666666667
5155.303955078125	0.1148113258858593	-9.730988623535282	-2.162168994685583	-0.3082902646272583	1.110154277135809	1.143177014469471	0.1604938271604938	-0.4267782426778242	0.6884531590413944
5174.835205078125	0.07494579100632526	-9.67713807108465	-1.907349869886594	-1.414284618316155	-0.04242853854948467	-0.0004242853854948467	0.1769547325102881	-0.4142259414225941	0.6840958605664489
5194.366455078125	0.03340601480641635	-9.790711650671501	-2.236676269860259	-0.3083198516924747	2.229556374598479	0.0222955637459848	0.1481481481481482	-0.4267782426778242	0.6884531590413944
5213.897705078125	-0.1357469204291098	-9.534288002506939	-2.185142576400345	-1.007910414681053	2.208568657708822	0.399444177143126	0.1728395061728395	-0.4205020920502092	0.69281045751634
5233.428955078125	-0.2778361539348597	-9.601797211667785	-2.149534888789405	-1.038087812293834	1.088260350705812	0.01088260350705812	0.1563786008230453	-0.4100418410041841	0.701525054466231
5252.960205078125	-0.2805632374132493	-9.874505559506746	-2.153096566915127	-1.090871136639754	-1.898397775890237	0.3583745128071354	0.1666666666666667	-0.4163179916317991	0.69281045751634
5272.491455078125	0.04471952118193637	-9.669462023220506	-2.210298633221933	-0.3384676622400399	-0.0101540298672012	0.7546154408334035	0.1707818930041153	-0.4267782426778242	0.69281045751634
5292.022705078125	-0.147148332051988	-9.664328154693758	-2.080647487014804	-0.6995807006335061	-0.3941217493772142	0.7507757636383033	0.1481481481481482	-0.4163179916317991	0.7058823529411765
5311.553955078125	0.2963083807417952	-9.763101319759876	-1.980141477130071	-0.714674330617433	-0.767708886634941	0.3696814016996884	0.1625514403292181	-0.399581589958159	0.6906318082788672
5331.085205078125	0.09211156396459173	-9.980762795460022	-1.93246045847679	-1.068265209906616	-0.03204795629719848	-0.3776789701290098	0.1604938271604938	-0.4205020920502092	0.6906318082788672
5350.616455078125	0.1436028204085389	-9.882142201570352	-2.068428657632008	-0.3309356407806847	0.7363405874929974	0.3847218964409677	0.1748971193415638	-0.4288702928870293	0.6949891067538128
5370.147705078125	-0.01778616171548443	-9.859424252356527	-2.139613720699628	0.06035479522556313	2.240616614006021	0.7771231472721357	0.1625514403292181	-0.4121338912133891	0.6862745098039217
5389.678955078125	0.2657799997799338	-9.78563638564299	-2.274502807163138	-0.3007779678780473	2.602916959471121	0.02602916959471122	0.1646090534979424	-0.4163179916317991	0.6884531590413944
5409.210205078125	-0.09879337316896022	-9.879337316896024	-2.272732577354269	-0.3535612922239668	-0.383741167124928	0.3735210788947885	0.1748971193415638	-0.4205020920502092	0.6862745098039217
5428.741455078125	-0.1158459807513173	-9.564396054929707	-2.125842909018645	2.958706521632559e-05	-1.11940209746267	1.120881450723487	0.168724279835391	-0.405857740585774	0.69281045751634
5448.272705078125	0.3471944045056553	-9.725003993878927	-2.109040881911517	-0.714674330617433	-0.767708886634941	0.3696814016996884	0.1625514403292181	-0.4205020920502092	0.6971677559912854
5467.803955078125	0.1863379058914915	-9.649037693679134	-1.904830929867466	-0.6618811439164415	1.845815207473552	0.3958166426407733	0.154320987654321	-0.4205020920502092	0.701525054466231
5487.335205078125	0.07332308034819493	-9.839409136897682	-1.976085710889887	0.03771928142720893	1.493668891875652	0.3922951794847943	0.1810699588477366	-0.4225941422594142	0.6862745098039217
5506.866455078125	0.003216119567141231	-9.77939814429598	-2.175806432887815	0.4214579712639573	2.99771836600359	0.4073356742260736	0.1728395061728395	-0.4142259414225941	0.701525054466231
5526.397705078125	0.09594504107352475	-9.59741508456672	-1.973860798767096	0.391310160716392	0.7580079615379097	1.139655551313492	0.1666666666666667	-0.4246861924686192	0.6906318082788672
5545.928955078125	-0.05668170765865172	-9.708574806269215	-2.283975355369845	-0.3459996836993952	-0.7566486472273998	1.124508985225839	0.1728395061728395	-0.4225941422594142	0.673202614379085
5565.460205078125	0.06309171787980911	-9.852444373635254	-2.289971099482763	-1.060703601382045	-0.4049554363996703	0.3733089362020411	0.1707818930041153	-0.403765690376569	0.6840958605664489
5584.991455078125	-0.07645937790911429	-9.666139811113451	-2.1204352206984	-0.338477524595112	0.3629800026203556	0.3809882905922413	0.154320987654321	-0.4288702928870293	0.701525054466231
5604.522705078125	0.1149184288309165	-9.720278329029565	-2.101026348324786	-0.7222260767869325	-0.7679354390200259	-0.007679354390200259	0.1625514403292181	-0.4142259414225941	0.69281045751634
5624.053955078125	0.2454900541224525	-9.794428931189099	-2.184236242987927	-0.3234036193213294	1.482835204853196	0.01482835204853196	0.1707818930041153	-0.399581589958159	0.6949891067538128
5643.585205078125	0.1849051514000664	-9.79231314282165	-2.093827211687688	-1.053171579922689	0.3415391809605283	0.003415391809605283	0.1502057613168724	-0.4246861924686192	0.7037037037037037
5663.116455078125	0.1974432688077495	-9.548602412154345	-1.940102152566105	-0.3912608489410315	-2.623678123975694	0.7284801998923186	0.1584362139917695	-0.403765690376569	0.6884531590413944
5682.647705078125	0.1572503626621917	-9.527488986306093	-1.929347400234137	0.3912805736511757	1.87741005900058	0.0187741005900058	0.1563786008230453	-0.4184100418410042	0.6949891067538128
5702.178955078125	-0.1072797659570278	-9.717875585601773	-2.305148395121477	-0.7071324468030056	-0.3943483017622991	0.3734150075484148	0.1893004115226338	-0.4225941422594142	0.6949891067538128
5721.710205078125	0.1137079634707421	-9.841324865047008	-2.086888759577239	-1.467067942662075	-3.029086665145534	0.3470676239145824	0.1502057613168724	-0.4163179916317991	0.6971677559912854
5741.241455078125	0.1856073829737903	-9.722089985449259	-2.140814082008382	-0.3158518731518299	1.483061757238281	0.3921891081384206	0.1625514403292181	-0.4142259414225941	0.6993464052287582
5760.772705078125	-0.008992605764234019	-9.990169667332497	-2.065254975080833	-0.6769846362554405	1.845362102703382	-0.358904869539004	0.1563786008230453	-0.4142259414225941	0.69281045751634
5780.303955078125	-0.06786386136570542	-9.816689166873575	-2.006664612108851	-0.6920486791741509	0.3523728679829845	0.3808822192458676	0.1604938271604938	-0.4142259414225941	0.6906318082788672
5799.835205078125	-0.2296529639259801	-9.833983261284882	-2.03945023815805	-1.090880998994826	-1.525263743402681	-0.01525263743402681	0.1707818930041153	-0.4246861924686192	0.6906318082788672
5819.366455078125	0.04390109301687686	-9.751304839726455	-2.315409059338982	0.3837584145468925	0.7577814091528248	0.7622947952236038	0.1666666666666667	-0.4288702928870293	0.701525054466231
5838.897705078125	0.05379801138324454	-9.771714013190699	-2.316330548828531	0.03773900613735315	0.7474008269005386	1.139549479967119	0.1769547325102881	-0.4121338912133891	0.6884531590413944
5858.428955078125	-0.07907834803730469	-9.928036823932491	-2.052748180232553	-1.421806777420439	-1.16205718839724	0.7430964092481032	0.1769547325102881	-0.4288702928870293	0.6862745098039217
5877.960205078125	0.2063227091960741	-9.670759383422897	-2.01682827743272	-0.7523837496895698	-2.63451181099815	0.3510133724560562	0.1460905349794239	-0.4267782426778242	0.6884531590413944
5897.491455078125	0.3464881313113632	-9.795631313308137	-2.102478300513909	0.05281291141113576	1.867256029133379	0.7733895414234093	0.1748971193415638	-0.4163179916317991	0.6819172113289761
5917.022705078125	0.1847091328025089	-9.811915002577395	-2.03420320425539	-0.3007681055229752	2.229782926983564	0.3996563198358734	0.1790123456790124	-0.4184100418410042	0.6884531590413944
5936.553955078125	-0.1372463616599101	-9.684232125586975	-2.031038615350493	-0.6845166577147956	1.098867485343183	0.01098867485343183	0.1666666666666667	-0.4225941422594142	0.7037037037037037
5956.085205078125	0.06280678362975135	-9.880937798641028	-2.10958043825737	-0.6995905629885782	-0.02098771688965735	0.3771486133971412	0.1728395061728395	-0.4225941422594142	0.6906318082788672
5975.616455078125	-0.07634722293834686	-9.654924314036709	-2.008762213183744	-0.3535612922239668	-0.383741167124928	0.3735210788947885	0.1748971193415638	-0.4225941422594142	0.6840958605664489
5995.147705078125	0.06291186576452443	-9.870429585163722	-2.068649936358117	-0.7071324468030056	-0.3943483017622991	0.3734150075484148	0.1831275720164609	-0.4246861924686192	0.7058823529411765
6014.678955078125	0.04130536220695358	-10.01087792071878	-2.015282357565385	0.7071521715131499	-0.3519197632128144	0.3738392929339096	0.1604938271604938	-0.4100418410041841	0.6884531590413944
6034.210205078125	-0.03577541486452068	-9.638147547058132	-2.27014391938034	-0.3233838946111852	0.7365671398780824	0.7620826525308564	0.1646090534979424	-0.405857740585774	0.6862745098039217
6053.741455078125	-0.1184528260178031	-9.825080581578289	-1.936883001783537	0.04526116524163629	1.867029476748294	0.3960287853335207	0.1769547325102881	-0.4121338912133891	0.6775599128540306
6073.272705078125	-0.1472493725661929	-9.674432206114245	-2.08115369999097	-0.669432890085941	1.845588655088467	0.01845588655088467	0.1707818930041153	-0.401673640167364	0.6884531590413944
6092.803955078125	-0.09664323102668046	-9.664323102668048	-1.979132082393164	-0.7071127220928615	-1.140616366737413	1.120669308030739	0.1604938271604938	-0.4288702928870293	0.69281045751634
6112.335205078125	0.123588715354837	-9.863350686738528	-2.249507404759136	-0.7222063520767882	-1.51420350399514	0.7395749460921242	0.1646090534979424	-0.4351464435146443	0.6906318082788672
6131.866455078125	0.01392439326257407	-9.718671784853706	-2.142360001875717	0.02265523850849842	0.0006796571552549525	1.132082268269666	0.1707818930041153	-0.4184100418410042	0.6906318082788672
6151.397705078125	0.1470442603223571	-9.537998210188542	-1.990580983057719	-0.3309159160705404	-0.009927477482116214	1.131976196923292	0.1769547325102881	-0.4225941422594142	0.69281045751634
6170.928955078125	0.07198530394012236	-9.973186777704939	-2.225212213118573	-0.3309553654908289	1.482608652468111	-0.3625324040413567	0.1707818930041153	-0.4246861924686192	0.701525054466231
6190.460205078125	-0.1165552851610355	-9.635326495901532	-2.149598544313354	-1.060713463737117	-0.0318214039121135	-0.000318214039121135	0.1522633744855967	-0.4225941422594142	0.7058823529411765
6209.991455078125	-0.2196701611225383	-9.845803991041711	-2.191456598133008	0.3762263930875373	0.01128679179262612	1.132188339616039	0.1810699588477366	-0.4225941422594142	0.6840958605664489
6229.522705078125	0.03309986204837558	-9.821326926475578	-2.268513125481073	-1.053171579922689	0.3415391809605283	0.003415391809605283	0.1584362139917695	-0.4225941422594142	0.6993464052287582
6249.053955078125	0.02453970968493841	-9.667241152718283	-2.028571205993611	-0.3535514298688947	-0.7568751996124847	0.7471482291359507	0.1666666666666667	-0.4163179916317991	0.69281045751634
6268.585205078125	0.217114846518297	-9.601646661301618	-2.154678861367575	-0.7071324468030056	-0.3943483017622991	0.3734150075484148	0.1748971193415638	-0.4079497907949791	0.6906318082788672
6288.116455078125	0.04492968545148251	-9.648445596265892	-2.128437629423427	1.09090072370497	0.7789956784275671	0.7625069379163512	0.1728395061728395	-0.4121338912133891	0.6840958605664489
6307.647705078125	0.1651941678889791	-9.743209473728362	-2.273387319886317	0.4063939283452467	1.504729131283193	1.147122763010945	0.1646090534979424	-0.4079497907949791	0.6884531590413944
6327.178955078125	-0.1791690814086555	-9.836100060057472	-2.150162350382617	-0.3158518731518299	1.483061757238281	0.3921891081384206	0.168724279835391	-0.4288702928870293	0.6840958605664489
6346.710205078125	0.06342110995611701	-9.819505166004465	-2.025694582554197	-0.6995905629885782	-0.02098771688965735	0.3771486133971412	0.1646090534979424	-0.4309623430962343	0.6949891067538128
6366.241455078125	-0.0568676222047887	-9.727166260882912	-2.12329062562983	0.007551746169499472	0.0002265523850849842	0.3773607560898886	0.1666666666666667	-0.4246861924686192	0.6993464052287582
6385.772705078125	0.07463963824828447	-9.707753346888728	-1.939186725507408	-0.3459996836993952	-0.7566486472273998	1.124508985225839	0.1625514403292181	-0.4351464435146443	0.6775599128540306
6405.303955078125	0.114120208768698	-9.800100335251418	-2.004015329826399	-0.3384577998849678	-0.383288062354758	1.128242591074566	0.1748971193415638	-0.4330543933054393	0.6862745098039217
6424.835205078125	0.02292609267308653	-9.828602853903471	-2.006352396919958	0.03017739761278156	1.12030830700301	0.3885615736360679	0.1707818930041153	-0.4225941422594142	0.6862745098039217
6444.366455078125	-0.2591790229869292	-9.756286137076756	-2.409598016275627	0.05280304905606366	2.240390061620936	0.3997623911822471	0.1728395061728395	-0.4225941422594142	0.6949891067538128
6463.897705078125	-0.1681546549551819	-9.744758424811122	-2.084879063749704	-0.7146546059072888	-1.513976951610055	1.116935702182013	0.1604938271604938	-0.4184100418410042	0.6840958605664489
6483.428955078125	0.05441536892503634	-9.709978259011519	-2.202126476433043	0.007581333234715798	-1.119175545077585	1.498242206813375	0.1728395061728395	-0.399581589958159	0.6884531590413944
6502.960205078125	-0.04606336002086123	-9.656841052591176	-2.139868342795424	-0.3611031760383941	-0.7571017519975698	0.3697874730460621	0.1646090534979424	-0.4142259414225941	0.6993464052287582
6522.491455078125	0.04371416806559784	-9.769997334854359	-2.164830401829739	0.03772914378228104	1.120534859388095	0.7659223297259565	0.1728395061728395	-0.4225941422594142	0.6993464052287582
6542.022705078125	0.005134878931891834	-9.587522207820919	-2.176294458571424	-0.3083001269823305	1.483288309623366	0.7695498642283092	0.1851851851851852	-0.4163179916317991	0.7102396514161221
6561.553955078125	-0.08886210102776289	-9.896311112877303	-1.930047610997577	-1.053141992857473	-0.7778629165021421	1.124296842533092	0.1646090534979424	-0.4184100418410042	0.6971677559912854
6581.085205078125	0.0623147163255736	-9.930144529058804	-1.980732564138169	-1.083329252825327	-1.525037191017595	0.3621081186558618	0.1625514403292181	-0.4309623430962343	0.7058823529411765
6600.616455078125	0.2479322033507844	-9.55021400835591	-2.000283903636813	0.03772914378228104	1.120534859388095	0.7659223297259565	0.1790123456790124	-0.4246861924686192	0.701525054466231
6620.147705078125	0.06400411372307915	-9.76120478930825	-2.25509696600495	0.0452710275967084	1.493895444260737	0.7696559355746829	0.1707818930041153	-0.4121338912133891	0.6884531590413944
6639.678955078125	-0.09696555026699401	-9.696555026699402	-2.172666093706327	0.02266510086357052	-0.3724543753323019	1.505709418510828	0.1646090534979424	-0.4288702928870293	0.69281045751634
6659.210205078125	0.1223974476923615	-9.982477452986078	-2.043354443626926	-0.3686351974977494	-1.503596369357768	0.7396810174384979	0.1646090534979424	-0.4121338912133891	0.6884531590413944
6678.741455078125	-0.1280547060826925	-9.775167577966222	-2.015291451211664	0.08299030902391732	2.987564336136389	1.161951115059477	0.1625514403292181	-0.4246861924686192	0.701525054466231
6698.272705078125	0.06573493773140868	-9.588122388475297	-2.115112406410087	-0.3535415675138225	-1.130009232100041	1.120775379377113	0.1769547325102881	-0.405857740585774	0.6949891067538128
6717.803955078125	0.1449032118263557	-9.752103059788675	-2.193226827941877	-0.3610834513282499	-1.503369816972683	1.117041773528386	0.1584362139917695	-0.4330543933054393	0.6884531590413944
6737.335205078125	0.1341939277257808	-9.812930459745154	-2.236779331184747	0.01512321704914316	-0.7458149602049436	1.501975812662102	0.1831275720164609	-0.399581589958159	0.6884531590413944
6756.866455078125	0.1667441293768819	-9.588213324938081	-1.92218766939758	-0.3158321484416857	0.7367936922631674	1.139443408620745	0.1625514403292181	-0.4100418410041841	0.6906318082788672
6776.397705078125	0.001307464253811102	-9.970263675628992	-2.074257684896487	0.4214579712639573	2.99771836600359	0.4073356742260736	0.1810699588477366	-0.4246861924686192	0.69281045751634
6795.928955078125	-0.01656357149360543	-9.737165230168626	-2.032478442677913	0.05281291141113576	1.867256029133379	0.7733895414234093	0.1646090534979424	-0.4205020920502092	0.6797385620915033
6815.460205078125	-0.08655231487303941	-9.665332497404954	-2.059889723776554	-0.6920388168190788	-0.02076116450457237	0.7545093694870298	0.1707818930041153	-0.4205020920502092	0.7037037037037037
6834.991455078125	0.1639129741688612	-9.871328845740146	-1.956573777191783	-0.676955049190224	0.7259600052407112	0.7619765811844826	0.1625514403292181	-0.4267782426778242	0.7058823529411765
6854.522705078125	0.1352194889449604	-9.710374337827204	-2.080126117961507	-0.6769747739003683	1.472228070215825	0.01472228070215825	0.1563786008230453	-0.4351464435146443	0.6906318082788672
6874.053955078125	0.02441441944732437	-9.679770176479687	-2.271623152508299	-1.053181442277761	0.7146732134480851	-0.3702117584315569	0.1625514403292181	-0.4246861924686192	0.6971677559912854
6893.585205078125	-0.1391772458863653	-9.877320548232493	-2.151823456436145	-1.384107220703374	1.077879768453526	0.388137288250573	0.1604938271604938	-0.4225941422594142	0.69281045751634
6913.116455078125	0.02403753832934018	-9.717458288278106	-2.000784054182127	0.3309356407806847	-0.7363405874929974	-0.3847218964409677	0.1584362139917695	-0.403765690376569	0.6753812636165578
6932.647705078125	0.2260993690413946	-9.713295419092866	-2.190474484334937	0.3686647845629658	0.384194271895098	0.3812004332849888	0.168724279835391	-0.4142259414225941	0.6949891067538128
6952.178955078125	-0.2372370649221981	-9.582292350805675	-2.138052644755163	0.05282277376620787	1.494121996645822	1.147016691664571	0.1748971193415638	-0.4309623430962343	0.6819172113289761
6971.710205078125	0.1952112838489638	-9.771800908032917	-2.042193488118712	-0.7222260767869325	-0.7679354390200259	-0.007679354390200259	0.1748971193415638	-0.4267782426778242	0.6775599128540306
6991.241455078125	0.09522462220724398	-9.669456971194796	-2.108783228600294	0.05284249847635209	0.7478539316707085	1.894270992146896	0.1748971193415638	-0.401673640167364	0.7102396514161221
7010.772705078125	-0.03776894420978289	-9.837500481584353	-2.007404228672831	-0.6769649115452961	1.099094037728268	0.3883494309433204	0.1646090534979424	-0.4351464435146443	0.6906318082788672
7030.303955078125	-0.0577628411606439	-9.816688156468434	-1.986361531184523	-1.083339115180399	-1.151903158530039	-0.01151903158530039	0.1584362139917695	-0.4184100418410042	0.6993464052287582
7049.835205078125	-0.2291184596058363	-9.780532829270502	-1.743843078584836	-1.467087667372219	-2.28281860017042	-0.400186676567742	0.1769547325102881	-0.4184100418410042	0.7058823529411765
7069.366455078125	0.002228953743359584	-9.878114726674143	-1.948428901341728	-0.4063643412800304	-2.624131228745864	-0.02624131228745864	0.1625514403292181	-0.4246861924686192	0.6884531590413944
7088.897705078125	-0.1652952084031839	-9.45881376961132	-1.767522933493891	2.512766675255842	-0.2977513281005337	2.261173430115221	0.1769547325102881	-0.4414225941422594	0.6906318082788672
7108.428955078125	0.3278815206205351	-9.636090362188922	-2.34721257159011	-0.1508475386436194	-7.094077664965279	-0.4482992672156906	0.154320987654321	-0.4142259414225941	0.6797385620915033
7127.960205078125	0.01481759140814517	-9.629351970296597	-2.299501240782567	0.007591195589787905	-1.492309577565142	1.871869357054537	0.1625514403292181	-0.4142259414225941	0.6775599128540306
7147.491455078125	0.2149899645045684	-9.814134862674475	-2.195627550559385	0.007630645010076338	-2.984845707515369	3.366377958019186	0.1831275720164609	-0.4163179916317991	0.6884531590413944
7167.022705078125	0.3370822698440312	-9.726116449940323	-2.240510757374333	-1.090861274284682	-2.271531808377794	0.7320016630482976	0.1831275720164609	-0.4267782426778242	0.6557734204793029
7186.553955078125	0.02423759854746584	-9.697452266465541	-2.019983772691338	-1.752752280556195	-0.05258256841668587	0.7541911554479087	0.168724279835391	-0.4330543933054393	0.6775599128540306
7206.085205078125	0.1124065616477833	-9.971465047342889	-1.972196661498141	-1.000338943801409	1.462527145118794	1.524059233715339	0.1666666666666667	-0.4246861924686192	0.6753812636165578
7225.616455078125	0.1150427086633885	-9.707850345782365	-1.868080474040868	-0.6995708382784341	-0.7672557818647709	1.124402913879466	0.1872427983539095	-0.4246861924686192	0.6906318082788672
7245.147705078125	-0.01786295250628015	-9.867103331436098	-1.897574200137272	-0.2630389617406941	3.35031778637166	1.16557864956183	0.1625514403292181	-0.4309623430962343	0.6688453159041395
7264.678955078125	-0.2000561765050877	-9.904607549498666	-1.971978413987459	0.08299030902391732	2.987564336136389	1.161951115059477	0.1522633744855967	-0.4225941422594142	0.6949891067538128
7284.210205078125	-0.1594692123541307	-9.886315174807011	-2.081769036722478	0.01510349233899894	0.0004531047701699683	0.7547215121797772	0.1604938271604938	-0.4205020920502092	0.6775599128540306
7303.741455078125	0.00103566527059999	-9.997443573950104	-1.762488084671062	0.3460588578298279	-1.482155547697941	1.117253916221134	0.1666666666666667	-0.4539748953974895	0.6666666666666667
7323.272705078125	-0.1152458000969403	-9.504377989492012	-2.183442064546277	0.03773900613735315	0.7474008269005386	1.139549479967119	0.168724279835391	-0.4330543933054393	0.6775599128540306
7342.803955078125	0.02210867491316908	-9.910344629895217	-2.101356750806235	-1.421806777420439	-1.16205718839724	0.7430964092481032	0.1584362139917695	-0.4351464435146443	0.6753812636165578
7362.335205078125	0.1448112649584293	-9.761297746581318	-2.102778390841098	0.03021684703307	-0.3722278229472168	1.883070174600717	0.1748971193415638	-0.4267782426778242	0.6557734204793029
7381.866455078125	-0.01748809219858006	-9.82961730066609	-2.188625442924987	-0.7146546059072888	-1.513976951610055	1.116935702182013	0.1481481481481482	-0.4309623430962343	0.6688453159041395
7401.397705078125	0.2662882335663843	-9.734813006997936	-2.241653525589991	0.0678966790399905	2.613977198878663	0.7808567531208621	0.1748971193415638	-0.4330543933054393	0.6753812636165578
7420.928955078125	-0.07501854017655275	-9.522056037857297	-1.850590361032004	0.4139160874495299	2.624357781130949	0.4036020683773472	0.1769547325102881	-0.4205020920502092	0.6644880174291939
7440.460205078125	-0.2191538440949514	-9.794172288283018	-2.077758738713686	-0.6995807006335061	-0.3941217493772142	0.7507757636383033	0.1728395061728395	-0.4288702928870293	0.6775599128540306
7459.991455078125	0.2461165053105228	-9.731783812382075	-1.979077520515494	-0.3686253351426773	-1.876730401845325	1.11330816767966	0.1851851851851852	-0.4288702928870293	0.6579520697167757
7479.522705078125	-0.1548789417938032	-9.427288118774257	-1.624428346871803	2.971884753816575	6.432440124704049	0.8190413823791161	0.168724279835391	-0.4267782426778242	0.6753812636165578
7499.053955078125	0.1851931168655503	-9.763516596273259	-1.233798646119755	4.656779804753068	2.378509364291846	0.778502074774994	0.168724279835391	-0.4351464435146443	0.6819172113289761
7518.585205078125	-0.239532705404933	-9.811856399079156	-0.8566245106443707	5.79287265721417	7.636472746880605	-0.6783522536632695	0.1707818930041153	-0.4330543933054393	0.6601307189542485
7538.116455078125	0.0201990091946969	-10.10131120174243	-0.9998130649446697	9.200401765224509	0.2760120529567354	0.3801186110956051	0.1934156378600823	-0.4330543933054393	0.6470588235294118
7557.647705078125	0.3830425685404034	-10.18059163080815	-1.13146178211763	12.0817346014926	4.093795321626867	-0.7137790279158068	0.1769547325102881	-0.4288702928870293	0.6470588235294118
7577.178955078125	0.04108913550655515	-10.03250059075863	-1.147678784647512	15.07620555733216	13.13885333089907	-1.37804542895516	0.1748971193415638	-0.4539748953974895	0.6318082788671024
7596.710205078125	-0.1197703943230347	-9.956837412101448	-0.9737870492957775	17.5361494588218	11.34698000615271	-0.2638886905045106	0.1790123456790124	-0.4435146443514644	0.6252723311546842
7616.241455078125	-0.07918039895665162	-9.938241915867184	-1.053259455338481	20.34213249343112	8.81921919868353	1.220267663684949	0.1769547325102881	-0.4539748953974895	0.6252723311546842
7635.772705078125	0.2152971276677512	-9.783418546356193	-1.143583612606789	23.17069186770836	9.277210308270055	0.8474890842147761	0.205761316872428	-0.4686192468619246	0.6056644880174292
7655.303955078125	-0.446577854277572	-10.31435108432285	-1.015132827708413	22.48618507234863	10.00294376112568	1.23210490930937	0.1934156378600823	-0.4790794979079497	0.6143790849673203
7674.835205078125	-0.05738494963751767	-9.778899004155809	-1.236993547178913	22.97454371440281	1.808639296506711	-1.491347569299084	0.191358024691358	-0.5104602510460251	0.6056644880174292
7694.366455078125	0.1643141050102546	-9.831215761600809	-0.9747661318784229	23.6817156106261	0.7104514683187833	-0.3702539758828499	0.2160493827160494	-0.4790794979079497	0.5751633986928105
7713.897705078125	0.3904528798521891	-9.439560499629582	-0.7509017790112401	25.19406444323996	4.860299545237497	0.4259614860184127	0.2037037037037037	-0.5104602510460251	0.5860566448801744
7733.428955078125	0.1250578444313759	-9.716437779084638	-0.6865915125301201	28.06034309894441	6.811959546699676	0.4454780860330345	0.220164609053498	-0.5292887029288702	0.5773420479302833
7752.960205078125	0.2808421092324547	-10.29962746059291	-0.1081325478969169	31.24248349015576	6.907423758436016	0.4464327281503979	0.2283950617283951	-0.5334728033472803	0.5446623093681918
7772.491455078125	0.5149267101114607	-10.12349060501555	-0.2080959702203697	37.78024732502043	14.93937756900434	1.281469247388157	0.2366255144032922	-0.5711297071129706	0.5185185185185186
7792.022705078125	0.153029900383854	-9.949535214139862	0.3020333362766436	41.95614133504824	28.4974902102007	2.171767354932196	0.2222222222222222	-0.5774058577405857	0.5163398692810458
7811.553955078125	-1.008528819699982	-9.943791060907316	0.5735332395657154	42.5577465825797	21.42598612882067	3.987844766948585	0.2283950617283951	-0.5920502092050208	0.5032679738562092
7831.085205078125	-0.3060921337322534	-10.40719317120514	0.08264002616302653	44.03151819848759	5.052288829536717	5.710900246785934	0.2427983539094651	-0.6192468619246861	0.4989106753812637
7850.616455078125	0.1380870187380948	-10.43372236861477	0.338280610342501	45.43070918681982	4.721130230828475	5.330230170232814	0.2427983539094651	-0.6150627615062761	0.5054466230936819
7870.147705078125	0.5556884743519922	-10.08771822136645	0.4203628928671167	49.88474565092731	14.92937819042334	5.8096711403948	0.2510288065843622	-0.6485355648535565	0.4989106753812637
7889.678955078125	0.120046234926814	-10.21759872954083	0.7024417379934391	52.22487734666488	26.19361199204174	5.544954987844946	0.2366255144032922	-0.6589958158995816	0.4945533769063181
7909.210205078125	-0.7171360599742543	-10.09744438126381	0.9425018748825216	53.30070416509607	25.85275246823646	6.673621864305007	0.2489711934156379	-0.7196652719665272	0.5032679738562092
7928.741455078125	-0.9440366802932937	-10.56528419094552	1.179467140821509	54.73672691251152	9.104788374539524	6.883500713934075	0.257201646090535	-0.7364016736401673	0.4901960784313726
7948.272705078125	-0.2067996204231211	-10.57895194130201	1.287166224912487	57.83594603118446	3.600750022726579	8.337894292680097	0.2448559670781893	-0.7384937238493723	0.4814814814814815
7967.803955078125	-0.1231613139797503	-10.29592937777302	1.473870907870542	59.34832445086354	6.631196002182622	10.25499120530485	0.2592592592592593	-0.7594142259414225	0.5076252723311547
7987.335205078125	-0.1133502800504568	-10.32492699494467	1.624034288866404	61.13885518697737	5.93864326754962	12.13485813078871	0.2551440329218107	-0.7719665271966527	0.5010893246187365
8006.866455078125	-0.7799529476554262	-10.31852708877494	1.940920580731164	61.92144592134494	8.57406128808811	13.2932877826922	0.2510288065843622	-0.7887029288702928	0.5185185185185186
8026.397705078125	-0.6718810240670321	-10.62244584104664	2.068219503767604	62.7936024273663	-0.3549978973282647	12.826638700272	0.2427983539094651	-0.7782426778242677	0.5294117647058824
8045.928955078125	-0.4889461626939608	-10.5107778855577	2.489773664297196	65.21584677213886	-4.386808178925387	14.29575455972018	0.2654320987654321	-0.8221757322175731	0.533769063180828
8065.460205078125	-0.1886881082518969	-10.78800274438162	2.640531163516583	71.3548078742481	0.6481069227946069	15.85553767300153	0.2551440329218107	-0.8305439330543932	0.5446623093681918
8084.991455078125	-0.7901802685032439	-10.33115816345569	2.677560491162386	75.12438685477122	9.716418172807316	18.58773021946392	0.2530864197530864	-0.8430962343096233	0.5686274509803922
8104.522705078125	-1.203299566907013	-10.22894658969118	2.981570179896877	76.84707022362043	4.544218076857867	21.55487614303273	0.2427983539094651	-0.8451882845188283	0.6013071895424837
8124.053955078125	-0.6653467340134027	-9.969016835683705	2.777723973703964	76.80938052925845	1.931147087519544	22.28346241427142	0.2325102880658436	-0.8556485355648534	0.6056644880174292
8143.585205078125	-0.9966717153580401	-9.768181636814099	3.00667470605622	75.71093792173905	0.7787908242193353	21.51722187050635	0.2325102880658436	-0.8786610878661087	0.6492374727668846
8163.116455078125	-0.8951573211415425	-9.717752316174444	3.20213050794956	73.70921471411108	-8.236484752606518	18.78555968077582	0.2427983539094651	-0.8828451882845187	0.6492374727668846
8182.647705078125	-1.027059650005157	-9.776672071222734	3.106956405999418	74.23532222465771	-16.05652242281251	17.57528383237565	0.2407407407407408	-0.8765690376569036	0.6884531590413944
8202.178955078125	-0.8247260203098912	-9.745329303716382	3.615597385722194	73.91190874298128	-14.20055318547175	17.21648503418302	0.2386831275720165	-0.8849372384937237	0.7124183006535948
8221.710205078125	-0.7129287329627633	-9.676711680114705	3.630247249876759	76.0408972789801	-14.50981785775	17.96810936859231	0.220164609053498	-0.8744769874476986	0.7167755991285404
8241.241455078125	-0.3293243791633808	-9.70011468401484	4.07735758766419	79.12594973943338	-3.969505089906551	20.33766343966697	0.2469135802469136	-0.8598326359832635	0.7647058823529412
8260.772705078125	-0.6327066063046595	-9.735307095112399	3.991756064029819	81.88006655910596	7.307148265429896	23.0919394071826	0.2098765432098766	-0.8765690376569036	0.7690631808278868
8280.303955078125	-0.7382878812179032	-9.182323475325671	4.533500947421539	84.11467105557196	11.10552968390596	25.01671567419755	0.2078189300411523	-0.8472803347280334	0.8017429193899783
8299.835205078125	-1.083622129857047	-9.372313995805667	5.045800604163672	84.55125224388507	13.35743308970461	26.92602716108573	0.2139917695473251	-0.8347280334728032	0.8213507625272332
8319.366455078125	-1.688442564646302	-9.248296868670602	5.126761336980614	87.25160945567212	7.095160223968671	26.86340443242837	0.2037037037037037	-0.8221757322175731	0.8474945533769064
8338.897705078125	-1.830053876519863	-9.268013914612544	4.892036139241549	88.96674107835183	1.922733575634137	29.45318959990729	0.2098765432098766	-0.8242677824267781	0.8671023965141613
8358.428955078125	-1.718227287423616	-9.196466116098927	5.199762098088495	87.43180604371497	-4.83973238585273	30.1402819214245	0.1790123456790124	-0.811715481171548	0.8997821350762528
8377.960205078125	-1.473600119292473	-8.976173545408887	5.496051281132591	87.13105766290214	-3.356217523844279	31.28719254174269	0.1872427983539095	-0.7887029288702928	0.9281045751633988
8397.491455078125	-1.703328863604107	-8.716724744249031	5.72894865596969	86.50694511218828	-1.882403586932859	33.94344011507407	0.1810699588477366	-0.7740585774058577	0.9368191721132898
8417.022705078125	-1.799351705873569	-8.21799887018518	5.914540882866349	84.37045414179532	-3.439035629477484	34.6825907757807	0.1522633744855967	-0.7426778242677824	0.982570806100218
8436.553955078125	-1.614536480531145	-7.91829451776096	5.951576272943005	83.91885822233887	-9.049598432434312	35.38120212888321	0.139917695473251	-0.7405857740585774	0.9956427015250545
8456.085205078125	-1.882331228164324	-7.425042008351586	6.256389233765425	83.18906067467231	-9.071492358864308	34.24890771792079	0.1460905349794239	-0.7112970711297071	1.019607843137255
8475.616455078125	-2.157016938866275	-7.620885805819472	6.324658267593092	82.03783474280699	-13.21050674876057	33.83015908345579	0.139917695473251	-0.6841004184100418	1.043572984749455
8495.147705078125	-1.749211361104541	-7.24436843368642	6.408168252583422	81.63897283592108	-13.96874126268356	32.31314277605241	0.1563786008230453	-0.6778242677824268	1.047930283224401
8514.678955078125	-1.728612231473593	-7.20465749079362	6.380056760721342	80.23976212287873	-12.89131459900021	31.94655855212321	0.1460905349794239	-0.6422594142259413	1.104575163398693
8534.210205078125	-1.727372464364299	-7.080680779864235	6.658995266666177	79.5778711166072	-10.6723653590391	31.96874804452282	0.1296296296296297	-0.6213389121338911	1.104575163398693
8553.741455078125	-1.613041080920913	-6.758653546636731	6.767149033071076	78.94613778323834	-6.586839747099865	31.63224481007617	0.117283950617284	-0.5774058577405857	1.137254901960784
8573.272705078125	-1.811988842985173	-6.451409551042542	6.790622765331154	78.29177879842617	-3.621395889778558	31.28454075808335	0.1193415637860082	-0.5753138075313807	1.137254901960784
8592.803955078125	-2.14380185001342	-6.29937692053389	7.188845660725698	75.40287449127844	-6.693137645858662	31.25382334052255	0.1234567901234568	-0.5439330543933054	1.156862745098039
8612.335205078125	-1.796401322858787	-5.902758548504919	7.141443513891622	74.25918058087248	-10.08565741839472	30.46518116166511	0.1234567901234568	-0.5125523012552301	1.191721132897604
8631.866455078125	-1.390722647921065	-5.738931458773132	7.163792665228598	73.50678696882784	-12.34703519690532	30.44256738388001	0.1008230452674897	-0.4979079497907949	1.172113289760349
8651.397705078125	-1.812126258084492	-5.455050050873395	7.436398962148214	71.80678842555234	-8.293557541263281	29.72838517930435	0.102880658436214	-0.4602510460251046	1.217864923747277
8670.928955078125	-1.568218498414488	-5.306698326297226	7.607871787589884	70.40001610398541	-6.843223397477454	28.6108130490441	0.1090534979423868	-0.4414225941422594	1.224400871459695
8690.460205078125	-1.866938716230353	-4.875689804853485	7.687041072089973	68.20312102659153	-8.774801891590315	26.70470481127278	0.09465020576131689	-0.3953974895397489	1.213507625272331
8709.991455078125	-1.693851263371689	-4.738661690704257	7.59461325131592	66.69829435308196	-11.80502131866128	25.16496865473792	0.1049382716049383	-0.399581589958159	1.239651416122004
8729.522705078125	-1.478716810931808	-4.437337658837332	7.854255039857907	66.06654129500293	-6.973227641746927	24.08121111980895	0.1090534979423868	-0.3661087866108786	1.252723311546841
8749.053955078125	-1.517394109364293	-4.264663461681765	7.872602986832371	65.46497549689177	-1.394259690317127	23.75964230875721	0.1069958847736626	-0.3179916317991632	1.261437908496732
8768.585205078125	-1.809631567788773	-4.195480011200543	8.14586705749946	63.74989318598742	1.912496795579623	23.0379928924841	0.09465020576131689	-0.303347280334728	1.259259259259259
8788.116455078125	-1.725513318902929	-3.864463203424231	8.082450999569053	62.6590121869926	0.3872330521769421	23.02274025505007	0.09465020576131689	-0.2866108786610879	1.272331154684096
8807.647705078125	-1.812146466187333	-3.436868840955472	8.244378527633788	61.96694378310831	1.48587398513504	22.65636817381361	0.1090534979423868	-0.2489539748953975	1.289760348583878
8827.178955078125	-1.435248171315728	-3.120776727532362	8.28415413645568	59.07044828037079	-0.09355819337992105	20.75378139919828	0.09465020576131689	-0.2343096234309623	1.289760348583878
8846.710205078125	-1.807704725182886	-2.992694740510834	8.226227609662025	58.3858921732357	2.497845421913489	19.27026147308706	0.09053497942386832	-0.202928870292887	1.285403050108933
8866.241455078125	-1.776674172865427	-2.919942539067897	8.492801787883609	56.59539102418708	2.070996059083821	18.51127599832669	0.07613168724279835	-0.1799163179916318	1.305010893246187
8885.772705078125	-1.732252721200395	-2.518201412968739	8.351716897089055	56.27201699193097	2.434429166474347	19.64698580109871	0.09876543209876544	-0.1569037656903766	1.300653594771242
8905.303955078125	-1.90089742264947	-2.210954386159123	8.436099872122115	53.79701890987769	2.360179224012749	19.64624330167409	0.1049382716049383	-0.1255230125523012	1.318082788671024
8924.835205078125	-1.72970548983729	-2.263478276658244	8.576599738339423	51.58504992721005	-0.6912544723329522	18.10629500244648	0.07818930041152264	-0.100418410041841	1.313725490196079
8944.366455078125	-1.745360707108193	-1.808797983546583	8.558773160418257	49.79452905345128	-0.3718357701875062	16.60005522720379	0.08436213991769548	-0.06903765690376569	1.326797385620915
8963.897705078125	-2.077432377852805	-1.68263172467438	8.390043584937249	46.92822081068162	-1.204093674187014	15.45965717646568	0.08641975308641976	-0.06276150627615062	1.309368191721133
8983.428955078125	-1.693062136955749	-1.629446018807217	8.416748592841598	45.10000038020579	-3.124611928892334	14.30837652222051	0.09053497942386832	-0.02719665271966527	1.344226579520697
9002.960205078125	-1.965411790969284	-1.591684147433428	8.617933391890354	42.2034950151132	-4.330910074919738	12.03216259736401	0.07613168724279835	-0.0104602510460251	1.326797385620915
9022.491455078125	-1.729233630635953	-1.206191346423557	8.245630419604787	41.22576199804493	-1.002033110207906	12.82016834814321	0.08847736625514405	-0.004184100418410041	1.333333333333333
9042.022705078125	-1.949456483371192	-1.006254397725231	8.606960392047705	39.14203462728776	1.174261038818633	12.46457279906743	0.08024691358024692	0.02301255230125523	1.324618736383442
9061.553955078125	-1.837562197130427	-0.9279368847598889	8.581692180255349	38.03606986066408	-1.097723874329331	12.44185294993595	0.08024691358024692	0.03556485355648535	1.335511982570806
9081.085205078125	-1.908064226322022	-0.907432733212293	8.470901256429702	35.51579088865903	-2.29273522856411	11.29782736469549	0.08436213991769548	0.06276150627615062	1.344226579520697
9100.616455078125	-1.717208799040431	-1.013809196972329	8.315975835999364	33.34151160035337	-2.731097935571488	9.029292794229191	0.08230452674897121	0.05230125523012552	1.333333333333333
9120.147705078125	-1.4314076213708	-0.7165197128376047	8.313496301780777	32.03283308014934	1.707253649120898	9.82839329120819	0.1069958847736626	0.09205020920502091	1.326797385620915
9139.678955078125	-1.753979462969869	-0.6504715495121609	8.212562890520957	29.26458905167738	4.98241528349062	9.483786416985851	0.09670781893004116	0.09623430962343095	1.34640522875817
9159.210205078125	-1.983825414277981	-0.4027434480000704	8.283256896689542	26.0221135899506	1.900066392773145	9.452962928078676	0.0925925925925926	0.1255230125523012	1.331154684095861
9178.741455078125	-2.263243862665289	-0.06176000390258883	8.489431076329733	22.28273173175039	-6.794204615211668	7.856586255734676	0.1049382716049383	0.1317991631799163	1.344226579520697
9198.272705078125	-1.769616492948216	-0.1939725271448121	8.376645612753682	20.10096973376074	-9.844732102017028	7.826080980866623	0.1008230452674897	0.1443514644351464	1.335511982570806
9217.803955078125	-1.69609537319218	0.08743237775176391	8.381350059095062	17.9644787633678	-11.40136414456165	8.565231641573252	0.1069958847736626	0.1485355648535565	1.344226579520697
9237.335205078125	-1.53441741519753	0.09361201560053417	8.312568749860375	15.1811411049119	-8.499789647449658	7.839530405412297	0.09053497942386832	0.1652719665271966	1.342047930283224
9256.866455078125	-1.716492421794718	0.06792953769993861	8.410473976909476	12.37519751972287	-7.464564969930702	7.849882652187486	0.09053497942386832	0.1610878661087866	1.337690631808279
9276.397705078125	-1.887645959211501	0.124292967738845	8.654004855461496	9.554150442194848	-6.429793397181916	7.105513386782898	0.117283950617284	0.1652719665271966	1.339869281045752
9295.928955078125	-1.66588830106549	0.07783656011772677	8.492283450045738	7.447797419994396	-5.373581002773302	6.738717020160947	0.09670781893004116	0.1673640167364017	1.333333333333333
9315.460205078125	-1.503096876604302	0.1953628446202711	8.449282628010426	6.695393945594683	-7.261824748796339	6.342476092134679	0.1069958847736626	0.1652719665271966	1.333333333333333
9334.991455078125	-1.492783671319411	0.2165823630084373	8.571658857194805	4.55131177961195	-7.326147213775821	5.20975739578677	0.1069958847736626	0.1757322175732217	1.311546840958606
9354.522705078125	-1.43094889743631	0.3394536907124197	8.861249054147118	3.912066149493863	-4.7333842841719	5.990402006214885	0.1275720164609054	0.1924686192468619	1.32244008714597
9374.053955078125	-1.469762600562972	0.4984874184503273	8.525378260068404	2.550545130813483	-1.042886631150223	4.895231511046989	0.1296296296296297	0.1820083682008368	1.318082788671024
9393.585205078125	-1.904894585391415	0.4196323699494154	8.860518531229417	1.166428047755037	0.4081271697908601	4.909741649056399	0.117283950617284	0.196652719665272	1.335511982570806
9413.116455078125	-1.714006825145278	0.3164892026439353	9.028987422183775	-0.3459109225037462	-4.114854939615411	4.4871533373963	0.1378600823045268	0.1903765690376569	1.333333333333333
9432.647705078125	-1.369742595551564	0.3994778185809687	8.925468384165454	-1.09831439690346	-6.003098685638447	4.090912409370031	0.1337448559670782	0.1841004184100418	1.324618736383442
9452.178955078125	-1.529868571248027	0.548496410550889	9.365661488350419	-0.7975462913804851	-8.232881612622011	3.691256089534158	0.1213991769547325	0.1757322175732217	1.326797385620915
9471.710205078125	-1.350603501350877	0.2931852184477226	9.445597670353322	-1.489644282329996	-6.014838582201243	2.204002557574214	0.1275720164609054	0.1841004184100418	1.337690631808279
9491.241455078125	-1.452484672633938	0.2060781911516983	9.622041689093873	-1.105925317203392	-3.764521043098191	1.471788751833169	0.1419753086419753	0.1841004184100418	1.333333333333333
9510.772705078125	-1.452796887822831	0.1748566722623914	9.529568400088428	-0.3912608489410315	-2.623678123975694	0.7284801998923186	0.1296296296296297	0.1736401673640167	1.326797385620915
9530.303955078125	-1.340799540257577	0.2634803176766308	9.525018545733783	0.6996300124088667	-1.47154841306057	1.117359987567508	0.1337448559670782	0.1882845188284519	1.335511982570806
9549.835205078125	-1.420452808820708	0.3789615421716686	9.802723347000176	0.707162033868222	-0.7250537957003712	0.7474664431750718	0.1378600823045268	0.1903765690376569	1.328976034858388
9569.366455078125	-1.673375403168071	0.3392273599606008	9.363863977602714	0.3158715978619742	-2.229329822213395	0.3550651923439038	0.1378600823045268	0.1903765690376569	1.335511982570806
9588.897705078125	-1.308393826541789	0.4737486589524054	9.404542888621597	-0.07544842520948997	-2.614203751263747	-1.158217509210751	0.1316872427983539	0.1861924686192468	1.328976034858388
9608.428955078125	-1.129043882612707	0.2269248700424485	9.32328812790832	0.6392259054079431	-1.846494864628807	-1.527898910910439	0.1481481481481482	0.1861924686192468	1.335511982570806
9627.960205078125	-1.654756667615538	0.1808988950118431	9.729871115448177	-0.01513307940421527	1.1189489926925	-1.875602962903264	0.1378600823045268	0.200836820083682	1.291938997821351
9647.491455078125	-1.737501775913338	-0.01280385396004196	9.38602519358327	1.369003728364375	-1.078332873223696	-1.14285880043035	0.1584362139917695	0.1903765690376569	1.32244008714597
9667.022705078125	-1.653984718087013	0.2580938478643688	9.370102218949723	1.353929823090592	-2.198188075456536	-0.7766988618866408	0.1460905349794239	0.1694560669456067	1.324618736383442
9686.553955078125	-1.543695965616964	0.1758579837581618	9.447901394077194	1.654697928613568	-4.4279710024401	-1.176355181722514	0.1481481481481482	0.1610878661087866	1.344226579520697
9706.085205078125	-1.613883758809382	0.227785735223474	9.449795903718535	0.5864129939968072	-3.713750893762186	-2.301288452333849	0.1440329218106996	0.1673640167364017	1.333333333333333
9725.616455078125	-1.561710478894552	0.3946086762014357	9.064719389627188	0.247915744691551	-2.604502826166716	-2.667554462223932	0.139917695473251	0.1841004184100418	1.337690631808279
9745.147705078125	-1.773961235059026	0.3816542718752285	9.364979464879536	-0.06039424464585157	-0.7480804840557935	-2.271631748236785	0.1419753086419753	0.202928870292887	1.333333333333333
9764.678955078125	-1.753657143729556	0.3918613846202051	9.41619791193513	0.9927871976319096	-1.462753697503879	-1.901419989805228	0.1419753086419753	0.198744769874477	1.328976034858388
9784.210205078125	-2.004813549888618	0.5287460212392618	9.471035630209544	-0.1207293151612705	-3.734965163036928	-2.301500595026596	0.1255144032921811	0.198744769874477	1.335511982570806
9803.741455078125	-1.451616734616918	0.2928719928536874	9.212248644417729	0.6317037463036599	-2.966123514476562	-0.7843782162768411	0.1522633744855967	0.1945606694560669	1.313725490196079
9823.272705078125	-1.734376592808981	0.2997144564756417	9.330975290229027	0.3083001269823305	-1.483288309623366	-0.7695498642283092	0.1502057613168724	0.1903765690376569	1.335511982570806
9842.803955078125	-1.602178215238747	0.3882390821859603	9.356925525492265	0.6845166577147956	-1.098867485343183	-0.01098867485343183	0.1481481481481482	0.200836820083682	1.328976034858388
9862.335205078125	-1.651872971340131	0.4692685225525612	9.279671969141502	0.01508376762885473	0.7467211697452836	0.007467211697452836	0.1666666666666667	0.1903765690376569	1.311546840958606
9881.866455078125	-1.730547157320616	0.6826580053121243	9.249150661015634	1.972471014421648e-05	-0.7462680649751136	0.7472543004823244	0.154320987654321	0.198744769874477	1.331154684095861
9901.397705078125	-1.651666848691153	0.4898807874503561	9.32110868401692	0.3988717692409636	0.3851004814354379	1.890643457644543	0.1646090534979424	0.2092050209205021	1.328976034858388
9920.928955078125	-1.370323578508242	0.3413795229131646	9.175082912077748	-0.3610735889731778	-1.87650384946024	1.490668923769549	0.1563786008230453	0.1861924686192468	1.324618736383442
9940.460205078125	-1.582575345077859	0.3283240780727525	9.465236915099325	-0.7146644682623609	-1.140842919122498	0.7433085519408505	0.1666666666666667	0.200836820083682	1.315904139433551
9959.991455078125	-1.449698985657309	0.4846468888145434	9.201654546503347	-1.45198417503322	-2.282365495400251	0.3545348356120352	0.1563786008230453	0.1903765690376569	1.326797385620915
9979.522705078125	-1.389487932837481	0.4451461101912889	9.412402830221595	-1.775377931999478	-1.172664323034611	0.7429903379017294	0.154320987654321	0.1903765690376569	1.32244008714597
9999.053955078125	-1.530676895361666	0.4676639991869877	9.361611784541088	-2.098771688965734	-0.06296315066897205	1.131445840191424	0.154320987654321	0.1945606694560669	1.315904139433551
10018.58520507812	-1.439488841696906	0.4955602747538121	9.303312418250016	-2.836091395736594	-1.204485726946725	0.7426721238626083	0.1563786008230453	0.202928870292887	1.320261437908497
10038.11645507812	-1.544505300135745	0.09492453188005552	9.433745618037092	-2.836101258091666	-0.831351694459168	0.3690449736214461	0.1584362139917695	0.1841004184100418	1.34640522875817
10057.64770507812	-1.350591376489172	0.294397704618181	9.566870537122584	-1.775377931999478	-1.172664323034611	0.7429903379017294	0.1378600823045268	0.1841004184100418	1.324618736383442
10077.17895507812	-1.570253454370574	0.5504121387002135	9.476464537037771	-1.767845910540123	-0.4261697056744126	0.3730967935092936	0.154320987654321	0.1861924686192468	1.328976034858388
10096.71020507812	-1.531268992774906	0.4084542578629299	9.500059517914893	-1.04561983375319	0.3417657333456133	0.3807761478994939	0.1707818930041153	0.2071129707112971	1.337690631808279
10116.24145507812	-1.451257030386349	0.3288424159106235	9.779707328269447	-1.798033170507976	-1.173343980189866	-0.3890919303679364	0.1666666666666667	0.1841004184100418	1.324618736383442
10135.77270507812	-1.410775148370164	0.3366265771249672	9.628986203635174	-1.053151855212545	-0.4047288840145853	0.7506696922919297	0.1646090534979424	0.1861924686192468	1.333333333333333
10155.30395507812	-1.35905857157954	0.4577792056823246	9.72647009174004	-1.752762142911268	0.320551464070871	0.3805640052067465	0.1625514403292181	0.202928870292887	1.320261437908497
10174.83520507812	-1.494907542927997	0.00419520214978648	9.550917250334777	0.02266510086357052	-0.3724543753323019	1.505709418510828	0.1604938271604938	0.1903765690376569	1.328976034858388
10194.36645507812	-1.561130506343015	0.4526059313550349	9.815099799585131	-0.3384676622400399	-0.0101540298672012	0.7546154408334035	0.1728395061728395	0.1903765690376569	1.331154684095861
10213.89770507812	-1.491463071798753	0.3486423150742112	9.65908314160138	-0.6920388168190788	-0.02076116450457237	0.7545093694870298	0.1522633744855967	0.1820083682008368	1.32244008714597
10233.42895507812	-1.644162569701157	0.2302076763489649	9.631432394484074	0.3687042339832541	-1.108341858055129	1.875709034249638	0.1502057613168724	0.196652719665272	1.333333333333333
10252.96020507812	-1.614965902716516	0.1195713445100511	9.737303655673086	0.7147039176826494	-0.3516932108277295	0.7512000490237982	0.1502057613168724	0.1736401673640167	1.337690631808279
10272.49145507812	-1.301829224333898	0.120107869640479	9.407128515380101	1.798062757573192	0.05394188272719577	1.509973381091423	0.1666666666666667	0.1778242677824268	1.320261437908497
10292.02270507812	-1.352110015417671	0.1425338117682514	9.528959125787773	0.7297876853115041	0.3950279589175541	0.7586672607212511	0.154320987654321	0.196652719665272	1.335511982570806
10311.55395507812	-1.53239054248258	0.2962992870955168	9.393430452869346	1.083368702245615	0.03250106106736846	1.132400482308787	0.1666666666666667	0.198744769874477	1.318082788671024
10331.08520507812	-1.369083811398949	0.4653562338425484	9.454021418022585	0.7222556638521488	-0.3514666584426445	1.128560805113687	0.1810699588477366	0.200836820083682	1.315904139433551
10350.61645507812	-1.310205482961483	0.2925830169830614	9.466173560666004	0.007571470879643689	-0.7460415125900286	1.124615056572213	0.1604938271604938	0.1861924686192468	1.320261437908497
10370.14770507812	-1.421010552459119	0.3231871783305766	9.274676526119212	1.053201166987905	-1.460941278423199	1.117466058913881	0.1625514403292181	0.196652719665272	1.324618736383442
10389.67895507812	-1.109023715128153	0.2087395982958548	9.565003308420078	0.6920684038842951	-1.098640932958098	0.3663720812364568	0.1481481481481482	0.2071129707112971	1.32244008714597
10409.21020507812	-1.218495049838284	0.3727172383938071	9.582208487178885	0.7523936120446419	2.261377778510593	0.02261377778510593	0.1419753086419753	0.202928870292887	1.335511982570806
10428.74145507812	-1.513391894596637	0.1759620554877928	9.518916709080949	0.7599552205692135	1.888470298408121	0.7736016841161567	0.1522633744855967	0.196652719665272	1.335511982570806
10448.27270507812	-1.540746593007324	0.4707952447221969	9.654596942770684	0.3233838946111852	-0.7365671398780824	-0.7620826525308564	0.1584362139917695	0.2071129707112971	1.320261437908497
10467.80395507812	-1.451076167865922	0.3469286679532965	9.568492237375573	-0.03770941907213682	-1.866802924363209	-0.01866802924363209	0.1604938271604938	0.1820083682008368	1.324618736383442
10487.33520507812	-1.400814574479848	0.3225829560556314	9.254646254583237	-0.3837485521918205	-1.130915441640381	-0.3886676449824416	0.1563786008230453	0.1945606694560669	1.350762527233116
10506.86645507812	-1.331715998030559	0.161733530277462	9.469516991281044	-0.7524133367547862	-1.515109713535479	-0.7698680782674303	0.1563786008230453	0.1757322175732217	1.331154684095861
10526.39770507812	-1.702048680289131	0.5022026781576407	9.442433081448426	-0.007541883814427364	-0.3733605848726418	-0.003733605848726418	0.168724279835391	0.1903765690376569	1.335511982570806
10545.92895507812	-1.482387612812871	0.2460872035614033	9.522733009302469	-0.7373197067708593	-1.141522576277753	-0.3887737163288153	0.1604938271604938	0.205020920502092	1.333333333333333
10565.46020507812	-1.44108831303677	0.3356131407674923	9.467016238554473	-0.376196806022321	-1.130688889255296	-0.01130688889255296	0.1502057613168724	0.1820083682008368	1.335511982570806
10584.99145507812	-1.562766352267993	0.2890213388573395	9.614985019581805	-0.3913002983613199	-1.131141994025466	-0.7660284010723302	0.1769547325102881	0.1924686192468619	1.331154684095861
10604.52270507812	-1.480688111363945	0.416037348454006	9.349429329743407	0.7373295691259315	0.7683885437901959	0.7624008665699775	0.1604938271604938	0.2196652719665272	1.328976034858388
10624.05395507812	-1.38089140588893	0.2946977949453695	9.536279511041917	0.3837584145468925	0.7577814091528248	0.7622947952236038	0.1728395061728395	0.1861924686192468	1.335511982570806
10643.58520507812	-1.622368130787165	0.3894495475461348	9.437592230412871	-0.3309356407806847	0.7363405874929974	0.3847218964409677	0.1769547325102881	0.202928870292887	1.328976034858388
10663.11645507812	-1.583999005923005	0.1859579935580812	9.367195283356049	-1.068265209906616	-0.03204795629719848	-0.3776789701290098	0.1584362139917695	0.2112970711297071	1.328976034858388
10682.64770507812	-1.650635225041121	0.5930431524535351	9.538398330624792	-0.3535415675138225	-1.130009232100041	1.120775379377113	0.1460905349794239	0.2071129707112971	1.309368191721133
10702.17895507812	-1.592775384986841	0.3184210972755325	9.464639765660374	-1.075777506655827	-1.524810638632511	0.7394688747457504	0.1584362139917695	0.2112970711297071	1.305010893246187
10721.71020507812	-1.25983577622521	0.2790486401053182	9.223576296465238	-1.105964766623681	-2.271984913147964	-0.02271984913147964	0.1810699588477366	0.196652719665272	1.324618736383442
10741.24145507812	-1.470375916484195	0.4371558263279672	9.461699486697013	-0.6618712815613693	1.472681174985995	0.7694437928819354	0.1748971193415638	0.2071129707112971	1.311546840958606
10760.77270507812	-1.390891385579787	0.3048008359607152	9.516482643093754	-1.01545229849548	1.835208072836181	0.3957105712943996	0.1748971193415638	0.2196652719665272	1.311546840958606
10780.30395507812	-1.491086190680769	0.3863304268726302	9.388244043275209	-1.022984319954835	1.088713455475982	0.7656041156868354	0.1625514403292181	0.196652719665272	1.326797385620915
10799.83520507812	-1.471492414166159	0.3255060581315785	9.405600782805323	-2.497633595851626	-0.8211976645919666	-0.3855704672119574	0.1748971193415638	0.198744769874477	1.320261437908497
10819.36645507812	-1.448536009338811	0.6009445206643564	9.722632573010538	-2.497623733496554	-1.194331697079523	-0.01194331697079523	0.1646090534979424	0.1778242677824268	1.318082788671024
10838.89770507812	-1.450981189782569	0.3564264762885548	9.508362016967109	-1.01545229849548	1.835208072836181	0.3957105712943996	0.191358024691358	0.1820083682008368	1.313725490196079
10858.42895507812	-1.190325964883107	0.1593227036085337	9.511214390683111	-1.391649104517801	0.7045191835808838	0.3844036824018466	0.154320987654321	0.200836820083682	1.326797385620915
10877.96020507812	-1.550548533290339	0.5007022265216983	9.59538821185177	-1.406742734501728	0.3309320463231571	0.003309320463231571	0.1625514403292181	0.1882845188284519	1.331154684095861
10897.49145507812	-1.297488523843657	0.5541779186646293	9.388471384432171	-2.490101574392271	-0.07470304723176813	-0.7554640116043932	0.1748971193415638	0.1924686192468619	1.32244008714597
10917.02270507812	-1.371607803443786	0.2129570293587663	9.461578238079966	-1.083348977535471	-0.7787691260424821	-0.3851461818264626	0.1831275720164609	0.2154811715481171	1.333333333333333
10936.55395507812	-1.411574378837525	0.2567035303889098	9.71589114990279	-1.007920277036125	2.581702690196379	0.02581702690196379	0.1604938271604938	0.1861924686192468	1.298474945533769
10956.08520507812	-1.531945964220079	0.3407571133456626	9.799698194004883	-1.391668829227945	1.450787248555997	-0.3628506180804778	0.1728395061728395	0.1924686192468619	1.320261437908497
10975.61645507812	-1.512098576014815	0.3052939136700349	9.323376033155679	-1.045629696108262	0.7148997658331701	0.007148997658331701	0.168724279835391	0.198744769874477	1.320261437908497
10995.14770507812	-1.16759690121272	0.4120270504452144	9.574581949166701	-0.3611229007485384	-0.01083368702245615	-0.3774668274362623	0.1707818930041153	0.1861924686192468	1.318082788671024
11014.67895507812	-1.471288312327465	0.3459162420009635	9.426825353219199	-0.3309356407806847	0.7363405874929974	0.3847218964409677	0.1625514403292181	0.1820083682008368	1.32244008714597
11034.21020507812	-1.814340055750721	0.3841762431097822	9.536418946951519	-0.692058541529223	0.7255069004705412	0.007255069004705413	0.1625514403292181	0.1924686192468619	1.315904139433551
11053.74145507812	-1.289899370821729	0.3029922107564479	9.537604152183143	0.03772914378228104	1.120534859388095	0.7659223297259565	0.1625514403292181	0.2092050209205021	1.315904139433551
11073.27270507812	-1.178701253723836	0.3116928094346298	9.61995924409611	-0.7071324468030056	-0.3943483017622991	0.3734150075484148	0.1728395061728395	0.1882845188284519	1.32244008714597
11092.80395507812	-1.521875256169279	0.3377269083246583	9.516819108006057	-0.3309356407806847	0.7363405874929974	0.3847218964409677	0.154320987654321	0.1924686192468619	1.326797385620915
11112.33520507812	-1.459668653193904	0.4977811452560353	9.485039845478338	-0.3460194084095394	-0.01038058225228618	0.3772546847435149	0.1440329218106996	0.200836820083682	1.315904139433551
11131.86645507812	-1.401485483494168	0.2554920546235933	9.614921364057855	-0.3535711545790389	-0.01060713463737117	-0.0001060713463737117	0.1563786008230453	0.1841004184100418	1.315904139433551
11151.39770507812	-1.642138728201634	0.4325918263013329	9.671874870699719	0.3988520445308194	1.131368546410551	1.143389157162219	0.1646090534979424	0.2071129707112971	1.333333333333333
11170.92895507812	-1.65417568465886	0.2389971906796471	9.48025658753588	0.02264537615342631	0.3738136896428118	0.7584551180285036	0.154320987654321	0.200836820083682	1.328976034858388
11190.46020507812	-1.562668342969214	0.2988222687352126	9.585173015865657	-0.3083099893374026	1.856422342110923	0.395922713987147	0.1831275720164609	0.1924686192468619	1.318082788671024
11209.99145507812	-1.490963931658581	0.3985563290914202	9.600977773097583	-0.3762066683773931	-0.7575548567677397	-0.3849340391337152	0.1707818930041153	0.2175732217573222	1.315904139433551
11229.52270507812	-1.542179347498749	0.3275197955796816	9.465600660950463	-0.3535612922239668	-0.383741167124928	0.3735210788947885	0.1810699588477366	0.1799163179916318	1.318082788671024
11249.05395507812	-1.613667532108983	0.2494084052633176	9.592293340901673	-0.007532021459355256	-0.7464946173601986	0.3698935443924358	0.1604938271604938	0.205020920502092	1.34640522875817
11268.58520507812	-1.501194283721825	0.385622132868054	9.29719845673548	-0.376196806022321	-1.130688889255296	-0.01130688889255296	0.1790123456790124	0.205020920502092	1.350762527233116
11288.11645507812	-1.300216617727189	0.2813685303114622	9.374803634075677	0.01510349233899894	0.0004531047701699683	0.7547215121797772	0.1625514403292181	0.202928870292887	1.315904139433551
11307.64770507812	-1.330398429725327	0.2934903608006213	9.516522048894295	0.7448813152954309	0.7686150961752809	1.139761622659866	0.1748971193415638	0.196652719665272	1.311546840958606
11327.17895507812	-1.400511452937233	0.3528951103170944	9.256164893511736	0.3611130383934663	0.383967719510013	0.003839677195100129	0.1646090534979424	0.2071129707112971	1.318082788671024
11346.71020507812	-1.440257760010005	0.418668443443901	9.693399531440784	0.01508376762885473	0.7467211697452836	0.007467211697452836	0.154320987654321	0.205020920502092	1.320261437908497
11366.24145507812	-1.541255837198916	0.419870825562939	9.611641588966766	0	0	0	0.168724279835391	0.198744769874477	1.320261437908497
11385.77270507812	-1.541373044195394	0.4081501259151733	9.449438220298251	0.3611229007485384	0.01083368702245615	0.3774668274362623	0.154320987654321	0.2133891213389121	1.313725490196079
11405.30395507812	-1.461689463478002	0.2957001168462819	9.47491558595501	0.353581016934111	-0.3625268978501856	0.3737332215875359	0.1728395061728395	0.1861924686192468	1.32244008714597
11424.83520507812	-1.410076958417009	0.406445572440537	9.541575044391394	0.7448813152954309	0.7686150961752809	1.139761622659866	0.1563786008230453	0.198744769874477	1.333333333333333
11444.36645507812	-1.319690156029894	0.3542167202428942	9.549968479906394	0.007541883814427364	0.3733605848726418	0.003733605848726418	0.1810699588477366	0.205020920502092	1.328976034858388
11463.89770507812	-1.250945221380322	0.158003114493018	9.258016966137111	0.3686845092731099	-0.3620737930800156	1.128454733767313	0.1604938271604938	0.1841004184100418	1.331154684095861
11483.42895507812	-1.449461540448928	0.5083914096526894	9.556379500532692	0.3611229007485384	0.01083368702245615	0.3774668274362623	0.1769547325102881	0.198744769874477	1.324618736383442
11502.96020507812	-1.53168527969343	0.3668255660105207	9.376761799240967	-0.3460095460544673	-0.383514614739843	0.7508818349846771	0.1625514403292181	0.1903765690376569	1.315904139433551
11522.49145507812	-1.460378968008765	0.426749663770007	9.451178137952859	-1.068255347551544	-0.4051819887847553	-0.004051819887847552	0.1666666666666667	0.1903765690376569	1.324618736383442
11542.02270507812	-1.358977739168177	0.4658624468187147	9.524854860100771	-0.01510349233899894	-0.0004531047701699683	-0.7547215121797772	0.154320987654321	0.200836820083682	1.315904139433551
11561.55395507812	-1.319199099130859	0.4033224101464642	9.41101453355642	-0.3309257784256125	0.3632065550054406	0.75834904668213	0.1604938271604938	0.198744769874477	1.328976034858388
11581.08520507812	-1.481003357768264	0.3845127080220845	9.226637824045646	-0.3233838946111852	0.7365671398780824	0.7620826525308564	0.1707818930041153	0.202928870292887	1.320261437908497
11600.61645507812	-1.614376836518701	0.1784779642914942	9.568537705606966	-1.421816639775511	-0.7889231559096833	0.3694692590069409	0.1604938271604938	0.1924686192468619	1.300653594771242
11620.14770507812	-1.436483896804454	0.7960547639991155	9.055740929534943	-0.3158124237315415	-0.009474372711946247	1.886697709103069	0.1831275720164609	0.1841004184100418	1.333333333333333
11639.67895507812	-1.491889462768698	0.3060032180797532	9.434724700619736	-1.030506479059119	-0.03091519437177356	1.509124810320433	0.1790123456790124	0.1903765690376569	1.315904139433551
11659.21020507812	-1.461802628853912	0.2843835792553357	9.353136506209582	-1.015432573785336	1.088940007861067	1.142964871776724	0.1625514403292181	0.1799163179916318	1.335511982570806
11678.74145507812	-1.541470043089031	0.3984502365515051	9.489356296245171	-1.368993866009303	0.7051988407361388	1.516485950671512	0.1666666666666667	0.1861924686192468	1.326797385620915
11698.27270507812	-1.392106902965672	0.1832490973722485	9.480089870687442	-1.384097358348302	0.7047457359659689	0.7617644384917353	0.1522633744855967	0.1945606694560669	1.339869281045752
11717.80395507812	-1.329706302203024	0.3627031130309618	9.368474456265883	-0.6995708382784341	-0.7672557818647709	1.124402913879466	0.168724279835391	0.200836820083682	1.337690631808279
11737.33520507812	-1.399066573584103	0.4973830456300681	9.56643404210122	-0.6618515568512251	0.7264131100108812	1.51669809336426	0.1481481481481482	0.200836820083682	1.315904139433551
11756.86645507812	-1.533359521013805	0.1994014339730401	9.802717284569324	-0.6618614192062973	1.099547142498438	1.143070943123098	0.1851851851851852	0.1924686192468619	1.320261437908497
11776.39770507812	-1.784339106273009	0.3539681605779502	9.605915623026775	0.7599749452793577	1.142202233433008	1.520855984598481	0.1707818930041153	0.1903765690376569	1.328976034858388
11795.92895507812	-1.391404671391948	0.2534722547446378	9.433103000366748	-0.3158321484416857	0.7367936922631674	1.139443408620745	0.1646090534979424	0.1882845188284519	1.302832244008715
11815.46020507812	-1.591261798084052	0.4697797875544379	9.452020815841328	-1.045600109043046	-0.4045023316295003	1.128030448381818	0.1625514403292181	0.205020920502092	1.344226579520697
11834.99145507812	-1.25921437706285	0.3411885563413174	9.378204657783813	-1.805555329612259	-2.292972630037622	0.3544287642656616	0.1625514403292181	0.1736401673640167	1.324618736383442
11854.52270507812	-1.550949664131732	0.4605891423823622	9.623681576639418	-0.300748380812831	1.483514862008451	1.146910620318198	0.1810699588477366	0.1945606694560669	1.315904139433551
11874.05395507812	-1.472679640208067	0.2067834539408484	9.65217803286062	-0.3233838946111852	0.7365671398780824	0.7620826525308564	0.1625514403292181	0.205020920502092	1.333333333333333
11893.58520507812	-1.610766658946161	0.5394957215455186	9.313897422518119	-0.3309060537154684	-0.383061509969673	1.505603347164454	0.1748971193415638	0.198744769874477	1.348583877995643
11913.11645507812	-1.452616025302404	0.1929429243050644	9.318353309194555	-0.6995807006335061	-0.3941217493772142	0.7507757636383033	0.1851851851851852	0.1882845188284519	1.311546840958606
11932.64770507812	-1.319507272699184	0.3725050533139769	9.358965533474063	0.03021684703307	-0.3722278229472168	1.883070174600717	0.1728395061728395	0.1841004184100418	1.318082788671024
11952.17895507812	-1.329897268774871	0.3436064558462401	9.47862882485204	-1.030516341414191	0.3422188381157832	1.135497660079271	0.168724279835391	0.1903765690376569	1.320261437908497
11971.71020507812	-1.420188082673491	0.4054341568933462	9.420211241159349	-1.767826185829978	-1.172437770649526	1.120351093991618	0.1604938271604938	0.1861924686192468	1.328976034858388
11991.24145507812	-1.553194784357365	0.2360771198191262	9.390211302086778	-1.760304026725695	-0.05280912080177085	0.37683039935802	0.1728395061728395	0.1924686192468619	1.337690631808279
12010.77270507812	-1.490489041241818	0.4460453707677123	9.300326671055261	-1.369003728364375	1.078332873223696	1.14285880043035	0.1769547325102881	0.1861924686192468	1.313725490196079
12030.30395507812	-1.572790581682258	0.2966994075317682	9.352642418095121	-1.699949231500132	2.18780749320425	1.153953546630156	0.1851851851851852	0.1841004184100418	1.337690631808279
12049.83520507812	-1.392639386475532	0.1300007463862785	9.204694855575772	-2.459904452069345	0.2993371947961286	0.3803518625139991	0.1790123456790124	0.196652719665272	1.337690631808279
12069.36645507812	-1.331295669491467	0.2037663841866907	9.633238998878058	-2.459904452069345	0.2993371947961286	0.3803518625139991	0.1790123456790124	0.1945606694560669	1.311546840958606
12088.89770507812	-1.512573466431578	0.2578048719937429	9.624027135197998	-1.737668512927341	0.6941386013285977	0.7616583671453615	0.168724279835391	0.205020920502092	1.320261437908497
12108.42895507812	-1.452069396120556	0.2476058424899027	9.735233335537028	-2.08368792133688	0.6837580190763115	1.138913051888876	0.1748971193415638	0.1945606694560669	1.318082788671024
12127.96020507812	-1.554063732779526	0.1491822776029323	9.789898274532151	-1.752742418201124	-0.4257166009042426	1.127818305689071	0.1625514403292181	0.198744769874477	1.318082788671024
12147.49145507812	-1.462376538974595	0.2269925671869658	9.673493539737281	-1.053151855212545	-0.4047288840145853	0.7506696922919297	0.1646090534979424	0.1799163179916318	1.318082788671024
12167.02270507812	-1.351791737797926	0.1743615737427875	9.682068848177849	-1.007870965260764	0.7160325277585949	1.893952778107775	0.1748971193415638	0.198744769874477	1.318082788671024
12186.55395507812	-1.502158210227339	0.2892294823166016	9.757015649589317	-1.022984319954835	1.088713455475982	0.7656041156868354	0.1769547325102881	0.1841004184100418	1.315904139433551
12206.08520507812	-1.372508074425352	0.1229299312022212	9.547976971371414	-1.068245485196472	-0.7783160212723121	0.3695753303533146	0.1502057613168724	0.1736401673640167	1.320261437908497
12225.61645507812	-1.461774337509934	0.2872127136530723	9.636106528671192	9.862355072108239e-06	-0.3731340324875568	0.3736271502411622	0.1522633744855967	0.1841004184100418	1.328976034858388
12245.14770507812	-1.622876364573616	0.3386261689010817	9.404742948839724	0.7298074100216483	-0.3512401060575595	1.505921561203575	0.168724279835391	0.1820083682008368	1.333333333333333
12264.67895507812	-1.472566474832157	0.2180999915317946	9.773957112606048	0.007571470879643689	-0.7460415125900286	1.124615056572213	0.1769547325102881	0.1861924686192468	1.328976034858388
12284.21020507812	-1.20900431433902	0.3116897782192036	9.559050001323127	-0.04523157817641997	-2.986431574210964	0.7248526653899658	0.1625514403292181	0.1903765690376569	1.324618736383442
12303.74145507812	-1.503187813067087	0.1862691983418323	9.559938147442988	0.7147236423927935	-1.097961275802843	1.498454349506123	0.1748971193415638	0.196652719665272	1.32244008714597
12323.27270507812	-1.309072818797246	0.4058494334067282	9.683969420250042	1.083368702245615	0.03250106106736846	1.132400482308787	0.168724279835391	0.202928870292887	1.326797385620915
12342.80395507812	-1.370802510545573	0.2934863191800531	9.435309725196984	1.760333613790911	-1.0665929766609	0.7440510513654666	0.168724279835391	0.1820083682008368	1.324618736383442
12362.33520507812	-1.228797140666614	0.3526091656618946	9.570999052532995	1.09845246987447	0.7792222308126521	1.13986769400624	0.1769547325102881	0.1882845188284519	1.324618736383442
12381.86645507812	-1.451895606436123	0.2649848109331414	9.453275739027752	0.3460292707646115	-0.3627534502352706	-0.003627534502352706	0.168724279835391	0.2112970711297071	1.339869281045752
12401.39770507812	-1.432818146949101	0.1525287394333978	9.356934619138544	1.068294796971832	-1.087354141165472	1.498560420852496	0.1748971193415638	0.1778242677824268	1.339869281045752
12420.92895507812	-1.522502717762491	0.2749807490034299	9.301554313302852	-0.03014781054756524	-2.239710404465681	0.7323198770874187	0.1728395061728395	0.1945606694560669	1.309368191721133
12440.46020507812	-1.441312622978304	0.3131821466140097	9.243670223525161	-1.459516196492575	-3.028860112760449	0.7244283800044711	0.154320987654321	0.1903765690376569	1.315904139433551
12459.99145507812	-1.167795951025703	0.3921220691468537	9.603887739906684	-2.527791268754263	-2.687774036570091	-0.02687774036570091	0.168724279835391	0.198744769874477	1.324618736383442
12479.52270507812	-1.237881693298774	0.4542549125468585	9.616394534754964	-1.444442291218793	-1.909004910527609	0.3582684414607617	0.1790123456790124	0.1903765690376569	1.328976034858388
12499.05395507812	-1.330514626316663	0.2818707016670605	9.364424752456552	-1.068225760486328	-1.524584086247426	1.116829630835639	0.191358024691358	0.1882845188284519	1.320261437908497
12518.58520507812	-1.047249565553575	0.3255484951475445	9.248229171526086	-2.144052578917515	-1.183724562442152	-0.01183724562442152	0.1625514403292181	0.1945606694560669	1.324618736383442
12538.11645507812	-1.220822012880423	0.1400209341799761	9.540247372034742	-1.767845910540123	-0.4261697056744126	0.3730967935092936	0.168724279835391	0.1820083682008368	1.320261437908497
12557.64770507812	-1.432069436738842	0.2273997604592114	9.774827071433352	-1.752762142911268	0.320551464070871	0.3805640052067465	0.168724279835391	0.198744769874477	1.30718954248366
12577.17895507812	-1.431804710591626	0.2538723751808891	9.392314965592524	-2.482549828222771	-0.07447649484668314	-0.3781032555145046	0.1893004115226338	0.1652719665271966	1.32244008714597
12596.71020507812	-1.330806633402715	0.2526699930618511	9.474072908066542	-3.189701999735922	0.2774432683661313	-0.7519425484484142	0.1851851851851852	0.1945606694560669	1.313725490196079
12616.24145507812	-1.371808874067054	0.1928499670319959	9.470671884358406	-2.512717363480481	-1.56791883433725	-0.3930376789094103	0.1790123456790124	0.1882845188284519	1.318082788671024
12635.77270507812	-1.432077519979979	0.2265914363455724	9.693978493587178	-2.151604325087014	-1.183951114827237	-0.3891980017143101	0.1769547325102881	0.1945606694560669	1.328976034858388
12655.30395507812	-1.453178820966526	0.136663357892948	9.749877137260741	-0.3460292707646115	0.3627534502352706	0.003627534502352706	0.168724279835391	0.1861924686192468	1.326797385620915
12674.83520507812	-1.421680451068297	0.2561973174127433	9.645057707824602	0.03019712232292578	0.3740402420278968	1.135815874118392	0.1831275720164609	0.196652719665272	1.326797385620915
