Time Stamp	Accelerometer X	Accelerometer Y	Accelerometer Z	Gyroscope X	Gyroscope Y	Gyroscope Z	Magnetometer X	Magnetometer Y	Magnetometer Z
1620.147705078125	0.08432942356053215	-9.748875825764971	-1.991651002103148	49.78576432722043	-5.969113637347566	4.09125225985294	0.1440329218106996	-0.4163179916317991	0.7211328976034859
1639.678955078125	0.2670147148635174	-9.662164877284631	-2.046094662372162	1.361432257484731	-0.332291360633667	-2.267473857002563	0.1707818930041153	-0.4267782426778242	0.6993464052287582
1659.210205078125	0.1353185086488811	-9.700472367435125	-2.099832049446884	-0.6618712815613693	1.472681174985995	0.7694437928819354	0.1625514403292181	-0.4079497907949791	0.69281045751634
1678.741455078125	0.1364380375462712	-9.588519477696122	-2.013415128862879	-1.406723009791584	-0.4153360186519565	0.750563620945556	0.1481481481481482	-0.4205020920502092	0.6971677559912854
1698.272705078125	0.06384143849520929	-9.777472312095236	-1.861972574957184	-2.482510378802483	-1.56701262479691	1.116405345450144	0.1502057613168724	-0.4309623430962343	0.6884531590413944
1717.803955078125	0.266115454287094	-9.75209093492697	-1.949589856849942	-0.3309159160705404	-0.009927477482116214	1.131976196923292	0.1460905349794239	-0.4372384937238493	0.6993464052287582
1737.335205078125	0.4580762647940869	-9.747929076146871	-2.15958336792708	-0.2705907079101936	3.350091233986575	0.7882178934719413	0.154320987654321	-0.4267782426778242	0.6949891067538128
1756.866455078125	-0.1079446125404959	-9.784360243948584	-1.884236852262228	-0.3234134816764015	1.855969237340753	-0.3587987981926302	0.1584362139917695	-0.4079497907949791	0.6862745098039217
1776.397705078125	-0.06879949652724258	-9.910252683027291	-2.273978406894415	-0.3912509865859594	-2.996812156463251	1.102107350133481	0.1666666666666667	-0.4267782426778242	0.7211328976034859
1795.928955078125	0.4565424697884569	-9.901308576709873	-2.349085862723468	-0.3309159160705404	-0.009927477482116214	1.131976196923292	0.154320987654321	-0.4205020920502092	0.7037037037037037
1815.460205078125	0.1645010299615336	-9.812523266472908	-2.135445799488677	-1.01545229849548	1.835208072836181	0.3957105712943996	0.154320987654321	-0.4330543933054393	0.69281045751634
1834.991455078125	-0.1302705245592055	-9.996749425617516	-1.955685631071923	-1.075807093721043	-0.4054085411698403	-0.3814125759777361	0.1604938271604938	-0.4267782426778242	0.7037037037037037
1854.522705078125	0.3281179554237745	-9.612446881864978	-2.002593689791537	-0.338477524595112	0.3629800026203556	0.3809882905922413	0.1481481481481482	-0.4288702928870293	0.6884531590413944
1874.053955078125	0.133906972665439	-9.841625965779338	-2.076600814420899	-0.6618614192062973	1.099547142498438	1.143070943123098	0.1625514403292181	-0.4330543933054393	0.6971677559912854
1893.585205078125	0.1847252992847817	-9.810298354350117	-1.872506048563042	-1.060713463737117	-0.0318214039121135	-0.000318214039121135	0.1584362139917695	-0.4456066945606694	0.7254901960784315
1913.116455078125	0.1048163982207129	-9.720380379948912	-2.131435501479885	-1.083329252825327	-1.525037191017595	0.3621081186558618	0.1460905349794239	-0.4267782426778242	0.7080610021786493
1932.647705078125	0.1162359971361481	-9.588521498506406	-2.054021290711535	0.3837880016121089	-0.3616206883098457	1.88317624594709	0.1378600823045268	-0.4330543933054393	0.7189542483660132
1952.178955078125	0.1835875830948348	-9.924069973344809	-2.140832269300939	0.0528523608314242	0.3747198991831517	2.267898142388058	0.1522633744855967	-0.4309623430962343	0.6949891067538128
1971.710205078125	0.1858973692495583	-9.69309135787246	-2.270674382079915	0.05284249847635209	0.7478539316707085	1.894270992146896	0.1378600823045268	-0.4309623430962343	0.7080610021786493
1991.241455078125	0.4271669610936731	-9.808556415885224	-2.223529888557062	0.4214875583291736	1.87831626854092	1.52821712494956	0.1502057613168724	-0.4184100418410042	0.6906318082788672
2010.772705078125	0.06461338802373455	-9.70027735924271	-2.221741471455636	0.8203100157947766	4.129086912414142	1.550724831388292	0.1481481481481482	-0.4267782426778242	0.7037037037037037
2030.303955078125	0.2265136351496346	-9.671868808268867	-2.087388910122553	1.527452324952854	4.150301181688884	1.55093697408104	0.1563786008230453	-0.4205020920502092	0.7037037037037037
2049.835205078125	0.04525907752779042	-9.615506388635101	-1.864161112494861	-0.3233937569662573	1.109701172365639	0.3884555022896942	0.1666666666666667	-0.4330543933054393	0.7102396514161221
2069.366455078125	0.01185205231623204	-9.92590587948791	-1.657792935067395	-0.3611426254586826	0.7354343779526574	-1.124721127918587	0.1337448559670782	-0.4225941422594142	0.7145969498910676
2088.897705078125	0.0437485218404275	-9.766561957371394	-1.821223945983499	-0.6845265200698678	1.47200151783074	-0.3626384753877304	0.1502057613168724	-0.4121338912133891	0.6993464052287582
2108.428955078125	-0.004728696064788221	-9.563778697387917	-1.841872585466408	-0.7146546059072888	-1.513976951610055	1.116935702182013	0.1522633744855967	-0.4309623430962343	0.7167755991285404
2127.960205078125	0.1461167084019563	-9.630753402228621	-2.177046199997108	-1.813107075781759	-2.293199182422707	-0.02293199182422706	0.1481481481481482	-0.399581589958159	0.6971677559912854
2147.491455078125	0.3249766058371449	-9.926581840527941	-2.109240942129642	-1.444471878284009	-0.7896028130649383	-0.7626130092627249	0.1604938271604938	-0.4246861924686192	0.7037037037037037
2167.022705078125	0.4592119601737497	-9.634359538180592	-1.911469291650727	-1.068245485196472	-0.7783160212723121	0.3695753303533146	0.1563786008230453	-0.4225941422594142	0.6993464052287582
2186.553955078125	0.06462349207515504	-9.699266954100661	-2.120680749147918	-0.3460095460544673	-0.383514614739843	0.7508818349846771	0.1460905349794239	-0.4246861924686192	0.7058823529411765
2206.085205078125	0.2034885227726273	-9.954178025767575	-2.081532601919239	0.01510349233899894	0.0004531047701699683	0.7547215121797772	0.1563786008230453	-0.4163179916317991	0.69281045751634
2225.616455078125	0.3660910014722513	-9.855546317421345	-1.99416691090685	-0.7448615905852867	-1.514883161150395	-0.3925073221775417	0.1481481481481482	-0.4267782426778242	0.7102396514161221
2245.147705078125	0.2250121731085502	-9.822015012377314	-1.953497093534245	-0.01508376762885473	-0.7467211697452836	-0.007467211697452836	0.1522633744855967	-0.4330543933054393	0.6971677559912854
2264.678955078125	0.01413758874754636	-9.697352236356478	-2.030180781384894	-0.3535612922239668	-0.383741167124928	0.3735210788947885	0.1604938271604938	-0.4393305439330544	0.7037037037037037
2284.210205078125	0.1447930776658724	-9.763116475837007	-2.28468769099499	-0.3610834513282499	-1.503369816972683	1.117041773528386	0.139917695473251	-0.4414225941422594	0.7037037037037037
2303.741455078125	0.001800541963130907	-9.920955904697013	-2.192999486784916	-0.7146841929725051	-0.3945748541473841	-0.003945748541473841	0.1563786008230453	-0.4142259414225941	0.6971677559912854
2323.272705078125	-0.06795277701820572	-9.825580732123605	-1.885897958315756	0.02266510086357052	-0.3724543753323019	1.505709418510828	0.1502057613168724	-0.4246861924686192	0.7102396514161221
2342.803955078125	0.1033311026619012	-9.86890993583008	-1.835846529199229	0.3837682769019647	0.3846473766652679	1.135921945464766	0.1522633744855967	-0.4351464435146443	0.6884531590413944
2362.335205078125	0.1443343537313823	-9.808988869286022	-1.822339433260321	0.007571470879643689	-0.7460415125900286	1.124615056572213	0.1604938271604938	-0.4351464435146443	0.6971677559912854
2381.866455078125	0.06322610176370159	-9.839005985246006	-1.955964502891128	-0.3686549222078936	-0.7573283043826547	-0.007573283043826548	0.168724279835391	-0.4330543933054393	0.7037037037037037
2401.397705078125	0.05169535828264106	-9.981979323251048	-2.134945648943363	-0.3083001269823305	1.483288309623366	0.7695498642283092	0.1440329218106996	-0.4267782426778242	0.701525054466231
2420.928955078125	0.1952062318232536	-9.772306110603942	-2.092723849272571	-0.361093313683322	-1.130235784485127	0.7434146232872243	0.1378600823045268	-0.4246861924686192	0.701525054466231
2440.460205078125	0.2655041591761546	-9.813220446020921	-2.0031574958608	-0.6995807006335061	-0.3941217493772142	0.7507757636383033	0.1584362139917695	-0.4184100418410042	0.69281045751634
2459.991455078125	0.2573138150947072	-9.622153844064639	-2.104797180314911	-2.113894906014878	0.6828518095359716	-0.370529972470678	0.1481481481481482	-0.4267782426778242	0.6971677559912854
2479.522705078125	-0.1075818770945004	-9.748086699349031	-2.296560961819205	0.03015767290263735	1.866576371978124	-0.3586927268462565	0.139917695473251	-0.4288702928870293	0.6993464052287582
2499.053955078125	-0.09593998904781451	-9.593998904781452	-2.016012880483086	-0.692058541529223	0.7255069004705412	0.007255069004705413	0.1460905349794239	-0.4225941422594142	0.7145969498910676
2518.585205078125	-0.08362213996109798	-9.372315006210812	-2.045209547467727	-0.6995905629885782	-0.02098771688965735	0.3771486133971412	0.1502057613168724	-0.4246861924686192	0.6971677559912854
2538.116455078125	0.06168624432721927	-9.992991728894237	-2.206103431072147	-0.6920388168190788	-0.02076116450457237	0.7545093694870298	0.1563786008230453	-0.4309623430962343	0.6993464052287582
2557.647705078125	0.2366075825187018	-9.672575081463158	-2.137828334813628	0.02264537615342631	0.3738136896428118	0.7584551180285036	0.1563786008230453	-0.4267782426778242	0.6993464052287582
2577.178955078125	0.125951042576947	-9.627117964527528	-1.853833761537981	-0.3158518731518299	1.483061757238281	0.3921891081384206	0.139917695473251	-0.4288702928870293	0.6971677559912854
2596.710205078125	0.2456153443600666	-9.781899907427693	-1.941184296473239	-1.42936838594501	-0.7891497082947683	-0.007891497082947682	0.1666666666666667	-0.4225941422594142	0.6884531590413944
2616.241455078125	-0.1083800971567189	-9.827908705570884	-2.199549943320819	0.06036465758063524	1.867482581518464	1.150750297513298	0.1604938271604938	-0.4246861924686192	0.69281045751634
2635.772705078125	-0.05880355845695413	-9.920759886099457	-2.29460582786934	-0.6995905629885782	-0.02098771688965735	0.3771486133971412	0.1625514403292181	-0.4142259414225941	0.6753812636165578
2655.303955078125	0.06436583876393261	-9.725032285222904	-1.667426137691688	-0.3460095460544673	-0.383514614739843	0.7508818349846771	0.154320987654321	-0.4267782426778242	0.6993464052287582
2674.835205078125	0.2486687886993379	-9.476555473500555	-1.703664318111267	-0.3460095460544673	-0.383514614739843	0.7508818349846771	0.1563786008230453	-0.4267782426778242	0.7124183006535948
2694.366455078125	0.07344837058580897	-9.826880113136278	-1.733033764375199	0.03771928142720893	1.493668891875652	0.3922951794847943	0.1790123456790124	-0.4142259414225941	0.7037037037037037
2713.897705078125	-0.07715352624170178	-9.735554644372201	-1.992599772531532	0.0452710275967084	1.493895444260737	0.7696559355746829	0.1522633744855967	-0.4372384937238493	0.6949891067538128
2733.428955078125	0.2454072009008045	-9.802714253353898	-2.002833155810202	-0.6769649115452961	1.099094037728268	0.3883494309433204	0.1625514403292181	-0.4225941422594142	0.7058823529411765
2752.960205078125	0.07525598538493422	-9.646118633223754	-1.835088725342692	-0.3233937569662573	1.109701172365639	0.3884555022896942	0.1481481481481482	-0.4414225941422594	0.7167755991285404
2772.491455078125	-0.2288244317095001	-9.751130039636882	-1.833279089733283	0.03018725996785367	0.7471742745154536	0.76218872387723	0.1440329218106996	-0.4142259414225941	0.6993464052287582
2792.022705078125	0.09481439771957217	-9.710479419961976	-2.17144451388959	-0.3233740322561131	0.3634331073905256	1.135709802772018	0.1584362139917695	-0.4225941422594142	0.7124183006535948
2811.553955078125	0.3026830267829809	-10.13573772574232	-1.85729540955464	0.04528088995178051	1.12076141177318	1.143283085815845	0.1584362139917695	-0.4351464435146443	0.7080610021786493
2831.085205078125	0.1435957475725446	-9.882849485169785	-2.13917116324741	0.4063840659901746	1.87786316377075	0.7734956127697831	0.1563786008230453	-0.4184100418410042	0.6775599128540306
2850.616455078125	-0.0390804500841622	-9.968651069022284	-1.993772852901451	-0.3158617355069021	1.856195789725838	0.01856195789725838	0.154320987654321	-0.4476987447698744	0.6971677559912854
2870.147705078125	-0.1175353781488228	-9.733335794680261	-1.851478507151865	0.007571470879643689	-0.7460415125900286	1.124615056572213	0.1460905349794239	-0.4246861924686192	0.7058823529411765
2889.678955078125	0.0644507127958647	-9.716544882029694	-1.82861708040787	-0.3459996836993952	-0.7566486472273998	1.124508985225839	0.1502057613168724	-0.4163179916317991	0.6949891067538128
2909.210205078125	-0.0773465136238331	-9.754853382585331	-1.902657548406919	-0.3007582431679031	1.856648894496008	0.7732834700770356	0.1522633744855967	-0.4288702928870293	0.7080610021786493
2928.741455078125	0.1647930370475857	-9.783322557867699	-2.245093955098667	0.3988323198206752	1.877636611385665	0.3961348566798944	0.1502057613168724	-0.4142259414225941	0.6906318082788672
2948.272705078125	0.07362216027024136	-9.809501144693039	-2.014991360884475	-0.6844870706495794	-0.02053461211948738	1.131870125576918	0.1378600823045268	-0.4309623430962343	0.6971677559912854
2967.803955078125	0.09422836273718389	-9.769082918200805	-1.972360347131153	-0.7146546059072888	-1.513976951610055	1.116935702182013	0.1378600823045268	-0.4246861924686192	0.7080610021786493
2987.335205078125	0.04332415168076702	-9.808998973337442	-2.0253702425036	-0.3309257784256125	0.3632065550054406	0.75834904668213	0.1316872427983539	-0.4288702928870293	0.6775599128540306
3006.866455078125	0.1316992374300624	-10.062399489317	-1.936146416434984	-1.04561983375319	0.3417657333456133	0.3807761478994939	0.139917695473251	-0.4246861924686192	0.6862745098039217
3026.397705078125	0.07391719857171961	-9.779997314545216	-2.09432129980215	-1.075787369010899	-1.151676606144954	0.3658417245045882	0.1481481481481482	-0.4142259414225941	0.7058823529411765
3045.928955078125	0.2552101515889617	-9.832520194639194	-1.933518352660515	-0.3309257784256125	0.3632065550054406	0.75834904668213	0.154320987654321	-0.4330543933054393	0.6949891067538128
3065.460205078125	0.5490723414818568	-9.739230498278975	-2.117834437862767	0.4290097174334567	2.997944918388676	0.7846964303159623	0.154320987654321	-0.4309623430962343	0.6993464052287582
3084.991455078125	-0.02919262536407298	-9.98996960711437	-2.085648992467945	-0.3234134816764015	1.855969237340753	-0.3587987981926302	0.1707818930041153	-0.4225941422594142	0.6993464052287582
3104.522705078125	0.1532895745053605	-9.92356780198921	-2.151211150920064	-0.6694131653757966	1.099320590113353	0.765710187033209	0.1563786008230453	-0.4372384937238493	0.6906318082788672
3124.053955078125	0.1246001309020278	-9.762209132019446	-2.2343392027667	0.01511335469407105	-0.3726809277173868	1.128348662420939	0.139917695473251	-0.4184100418410042	0.6993464052287582
3143.585205078125	-0.06755669820252259	-9.785972850555293	-1.964721684257265	-0.6844870706495794	-0.02053461211948738	1.131870125576918	0.1440329218106996	-0.4246861924686192	0.7037037037037037
3163.116455078125	0.02617757642019946	-9.503454479192179	-1.808244281528741	-0.6995905629885782	-0.02098771688965735	0.3771486133971412	0.1419753086419753	-0.4351464435146443	0.701525054466231
3182.647705078125	0.3285322215320146	-9.571020271040979	-1.899508115579153	-1.053171579922689	0.3415391809605283	0.003415391809605283	0.1502057613168724	-0.4372384937238493	0.7080610021786493
3202.178955078125	0.1169402495201561	-9.518096260105608	-2.080796016570685	-0.3158518731518299	1.483061757238281	0.3921891081384206	0.168724279835391	-0.4225941422594142	0.701525054466231
3221.710205078125	0.02353839818916808	-9.767372302295316	-1.942678685678329	-0.7297679606013598	-1.141296023892668	-0.01141296023892668	0.1522633744855967	-0.4351464435146443	0.7211328976034859
3241.241455078125	0.1140474595984705	-9.80737525227417	-1.721551520340956	-0.7071225844479335	-0.7674823342498559	0.7470421577895769	0.1481481481481482	-0.4267782426778242	0.7037037037037037
3260.772705078125	-0.03697476576813256	-9.758082637419319	-2.144839536094304	-0.7222063520767882	-1.51420350399514	0.7395749460921242	0.1502057613168724	-0.4184100418410042	0.7037037037037037
3280.303955078125	0.2770894645348857	-9.664790920248816	-2.2885494594479	-0.3083001269823305	1.483288309623366	0.7695498642283092	0.1481481481481482	-0.4351464435146443	0.7058823529411765
3299.835205078125	0.06381718877180012	-9.779897284436153	-2.104518308495706	-0.3158420107967578	1.109927724750724	0.7658162583795828	0.1502057613168724	-0.4100418410041841	0.6775599128540306
3319.366455078125	-0.1787760338083986	-9.796795300031777	-2.259304293016441	-0.7297482358912155	-1.887564088867781	0.7358413402433978	0.1604938271604938	-0.4351464435146443	0.7080610021786493
3338.897705078125	0.1744181564307422	-9.830911629653054	-1.93424584436279	-0.007522159104283147	-1.119628649847755	0.7435206946335979	0.1440329218106996	-0.4184100418410042	0.6819172113289761
3358.428955078125	0.3181078716814974	-9.603354245991682	-2.123451280047416	0.03773900613735315	0.7474008269005386	1.139549479967119	0.1481481481481482	-0.4267782426778242	0.7102396514161221
3377.960205078125	0.03444774250786863	-9.686538880526273	-1.918325900944669	9.862355072108239e-06	-0.3731340324875568	0.3736271502411622	0.1604938271604938	-0.4267782426778242	0.7080610021786493
3397.491455078125	0.09434051770795131	-9.757867421124063	-1.860687339616498	0.01512321704914316	-0.7458149602049436	1.501975812662102	0.154320987654321	-0.4309623430962343	0.7037037037037037
3417.022705078125	0.3858595780764354	-9.898890677204951	-2.248661695655241	-1.790471561983405	-1.546251460292338	0.3618959759631144	0.1440329218106996	-0.4267782426778242	0.6949891067538128
3436.553955078125	0.2363115338120815	-9.702179952125187	-2.068604468126725	-1.03806808758369	0.3419922857306982	0.7581369039893825	0.1584362139917695	-0.4225941422594142	0.7058823529411765
3456.085205078125	-0.01675554847059469	-9.756362927867553	-1.932430146322528	-1.745210396741768	0.3207780164559559	0.7579247612966351	0.1440329218106996	-0.4163179916317991	0.6840958605664489
3475.616455078125	0.0007315333228433043	-10.02785676872577	-1.774112795830333	-1.429358523589938	-1.162283740782325	0.3657356531582145	0.1502057613168724	-0.4246861924686192	0.7058823529411765
3495.147705078125	0.03531871174031467	-9.599441957281668	-2.297800728928499	-0.300748380812831	1.483514862008451	1.146910620318198	0.154320987654321	-0.4351464435146443	0.6993464052287582
3514.678955078125	-0.03686867322821745	-9.747473383427808	-2.093802961964279	-0.6995807006335061	-0.3941217493772142	0.7507757636383033	0.1481481481481482	-0.4267782426778242	0.7037037037037037
3534.210205078125	0.08502559270340375	-9.679258911477811	-2.099274305808473	2.958706521632559e-05	-1.11940209746267	1.120881450723487	0.1296296296296297	-0.4246861924686192	0.6971677559912854
3553.741455078125	0.2958880522027029	-9.805134173669105	-2.143863484727085	0.3762263930875373	0.01128679179262612	1.132188339616039	0.1440329218106996	-0.4351464435146443	0.6949891067538128
3573.272705078125	0.2874400548100332	-9.639832902835069	-1.792248557724966	0.03773900613735315	0.7474008269005386	1.139549479967119	0.1728395061728395	-0.4309623430962343	0.6971677559912854
3592.803955078125	0.05481751017157175	-9.66976413435798	-2.220313768989921	0.4139062250944578	2.997491813618506	0.02997491813618505	0.1502057613168724	-0.4330543933054393	0.673202614379085
3612.335205078125	-0.07746372062031076	-9.766574082233099	-2.064860917075434	0.4063742036351026	2.250997196258307	0.3998684625286208	0.1481481481481482	-0.4372384937238493	0.6993464052287582
3631.866455078125	0.2040887034270043	-9.894159960329878	-2.13913175744687	0.02264537615342631	0.3738136896428118	0.7584551180285036	0.1419753086419753	-0.4163179916317991	0.701525054466231
3651.397705078125	0.02492871566462719	-9.628340554749407	-2.178137437550521	-0.3309159160705404	-0.009927477482116214	1.131976196923292	0.1625514403292181	-0.4142259414225941	0.6884531590413944
3670.928955078125	-0.1104039386562426	-10.03029285552325	-2.239992419536462	0	0	0	0.168724279835391	-0.4246861924686192	0.7080610021786493
3690.460205078125	0.0832240403351308	-9.859414148305106	-1.936582911456349	0.0452710275967084	1.493895444260737	0.7696559355746829	0.1666666666666667	-0.4142259414225941	0.69281045751634
3709.991455078125	0.203731020006719	-9.929928302358405	-1.676277286736035	-0.3233740322561131	0.3634331073905256	1.135709802772018	0.1460905349794239	-0.4351464435146443	0.701525054466231
3729.522705078125	0.1135139656834687	-9.860724643774343	-2.007052607683398	0.01511335469407105	-0.3726809277173868	1.128348662420939	0.139917695473251	-0.4309623430962343	0.6993464052287582
3749.053955078125	0.3473914335083547	-9.705301093608977	-2.158558817113042	0.03017739761278156	1.12030830700301	0.3885615736360679	0.154320987654321	-0.4309623430962343	0.6862745098039217
3768.585205078125	0.146109635565962	-9.631460685828054	-2.247788705612511	-0.2932262217085478	2.603143511856206	0.4033899256845999	0.1522633744855967	-0.4288702928870293	0.7102396514161221
3788.116455078125	-0.03602801615003288	-9.663407675609351	-1.766358946770251	-1.030536066124335	1.088486903090897	0.3882433595969467	0.1604938271604938	-0.4267782426778242	0.7167755991285404
3807.647705078125	0.1041323539395459	-9.788784808065614	-1.9025393310053	-0.3384577998849678	-0.383288062354758	1.128242591074566	0.1646090534979424	-0.4163179916317991	0.6971677559912854
3827.178955078125	-0.03804983683927246	-9.865589744533308	-1.786589278524351	-0.3158420107967578	1.109927724750724	0.7658162583795828	0.1522633744855967	-0.4330543933054393	0.6993464052287582
3846.710205078125	0.1045355055912234	-9.748469642897867	-1.910620551331406	0.08299030902391732	2.987564336136389	1.161951115059477	0.1522633744855967	-0.4184100418410042	0.6971677559912854
3866.241455078125	0.002321911016428064	-9.868818999367296	-2.028771266211736	0.03774886849242525	0.3742667944129817	1.513176630208281	0.1460905349794239	-0.4205020920502092	0.7211328976034859
3885.772705078125	0.08633305695721485	-9.548512486096701	-2.15332997050294	-0.7146841929725051	-0.3945748541473841	-0.003945748541473841	0.1502057613168724	-0.4414225941422594	0.6971677559912854
3905.303955078125	0.1582506637528199	-9.427458877243264	-2.025345992780191	-1.053171579922689	0.3415391809605283	0.003415391809605283	0.1522633744855967	-0.4246861924686192	0.69281045751634
3924.835205078125	0.004227535114332047	-9.678256589576899	-2.160638230895378	-1.075777506655827	-1.524810638632511	0.7394688747457504	0.1460905349794239	-0.4163179916317991	0.6906318082788672
3944.366455078125	0.2275543524459449	-9.567797078637843	-1.779144613437736	-1.075777506655827	-1.524810638632511	0.7394688747457504	0.1584362139917695	-0.4205020920502092	0.7167755991285404
3963.897705078125	-0.0484559993972327	-9.896104990228325	-1.828623142838722	0.3912904360062478	1.504276026513023	0.392401250831168	0.1502057613168724	-0.4246861924686192	0.6993464052287582
3983.428955078125	0.1958225789599033	-9.710671396938967	-1.988625849107855	-0.3611229007485384	-0.01083368702245615	-0.3774668274362623	0.1440329218106996	-0.4163179916317991	0.7058823529411765
4002.960205078125	-0.1465622970695998	-9.605724656454928	-2.279731653773241	0.03018725996785367	0.7471742745154536	0.76218872387723	0.1440329218106996	-0.4225941422594142	0.7124183006535948
4022.491455078125	0.14391402519229	-9.851021723195251	-1.986061440857335	-0.3459996836993952	-0.7566486472273998	1.124508985225839	0.1460905349794239	-0.4246861924686192	0.6906318082788672
4042.022705078125	0.1148386068246947	-9.728260529651751	-1.889305044454745	0.007551746169499472	0.0002265523850849842	0.3773607560898886	0.1707818930041153	-0.4205020920502092	0.6906318082788672
4061.553955078125	0.001929873821313143	-9.908022718878788	-1.909523251347141	-0.3233937569662573	1.109701172365639	0.3884555022896942	0.1481481481481482	-0.4184100418410042	0.6971677559912854
4081.085205078125	0.1553316032974411	-9.719364922781153	-1.928859374550528	0.4063840659901746	1.87786316377075	0.7734956127697831	0.1625514403292181	-0.4267782426778242	0.701525054466231
4100.616455078125	0.07412231081555551	-9.759486090161625	-2.062990657157502	-0.714674330617433	-0.767708886634941	0.3696814016996884	0.1707818930041153	-0.4246861924686192	0.6971677559912854
4120.147705078125	0.2245291994506509	-9.870312378167243	-1.733694569338098	-1.083348977535471	-0.7787691260424821	-0.3851461818264626	0.154320987654321	-0.4309623430962343	0.7058823529411765
4139.678955078125	0.1740867435441502	-9.864052918312252	-2.218734505752899	-0.3233838946111852	0.7365671398780824	0.7620826525308564	0.1522633744855967	-0.4100418410041841	0.6993464052287582
4159.210205078125	0.09502759320454447	-9.689159871464748	-2.059265293398768	-0.3384676622400399	-0.0101540298672012	0.7546154408334035	0.1769547325102881	-0.4100418410041841	0.7058823529411765
4178.741455078125	0.1854214684276533	-9.740681440062957	-1.980129352268366	-0.3384676622400399	-0.0101540298672012	0.7546154408334035	0.139917695473251	-0.4246861924686192	0.6819172113289761
4198.272705078125	0.1037160670210218	-9.830413499918023	-2.025837049679227	-0.3083099893374026	1.856422342110923	0.395922713987147	0.1460905349794239	-0.4267782426778242	0.7037037037037037
4217.803955078125	0.1348274517498454	-9.749578057338695	-1.960878103096911	0.03017739761278156	1.12030830700301	0.3885615736360679	0.1522633744855967	-0.4309623430962343	0.7189542483660132
4237.335205078125	0.2066177474975523	-9.641255553275073	-2.096158216350394	0.02264537615342631	0.3738136896428118	0.7584551180285036	0.1646090534979424	-0.4351464435146443	0.7124183006535948
4256.866455078125	0.1653184477214511	-9.730781490481162	-2.040441445602399	-0.7146841929725051	-0.3945748541473841	-0.003945748541473841	0.168724279835391	-0.4246861924686192	0.7058823529411765
4276.397705078125	0.2244958560809632	-9.873646715136005	-2.067194952953566	-0.3611229007485384	-0.01083368702245615	-0.3774668274362623	0.1502057613168724	-0.4288702928870293	0.701525054466231
4295.928955078125	0.08423747669260571	-9.758070512557614	-1.901202565002369	-0.3460292707646115	0.3627534502352706	0.003627534502352706	0.1502057613168724	-0.4309623430962343	0.6993464052287582
4315.460205078125	0.14320876240314	-9.921548002110255	-1.969392787228956	0.3762263930875373	0.01128679179262612	1.132188339616039	0.1481481481481482	-0.4288702928870293	0.7167755991285404
4334.991455078125	0.1844878540764002	-9.834042875188263	-2.227231002592386	0.3762263930875373	0.01128679179262612	1.132188339616039	0.1419753086419753	-0.4163179916317991	0.69281045751634
4354.522705078125	-0.01848839328920834	-9.929647409728918	-2.092626850378934	-1.060723326092188	0.3413126285754433	-0.3739453642802834	0.1481481481481482	-0.4079497907949791	0.6993464052287582
4374.053955078125	0.005570363548114852	-9.543973746198617	-1.860981367512834	0.02265523850849842	0.0006796571552549525	1.132082268269666	0.154320987654321	-0.4288702928870293	0.6993464052287582
4393.585205078125	0.428303666878478	-9.694885837404737	-1.965309740049937	-1.0606838766719	-1.151223501374784	1.120563236684365	0.1625514403292181	-0.4225941422594142	0.7037037037037037
4413.116455078125	0.0748558649486829	-9.686130676848885	-1.796689288324271	-0.361093313683322	-1.130235784485127	0.7434146232872243	0.1707818930041153	-0.4309623430962343	0.6862745098039217
4432.647705078125	0.1642928865022716	-9.833337612399113	-2.19709465882564	9.862355072108239e-06	-0.3731340324875568	0.3736271502411622	0.1666666666666667	-0.401673640167364	0.701525054466231
4452.178955078125	0.2444978362729606	-9.893650716138286	-2.0073890725957	-0.2856942002491926	3.349638129216405	0.03349638129216405	0.1419753086419753	-0.4309623430962343	0.6949891067538128
4471.710205078125	0.1254337151442181	-9.678850707800425	-1.977637693188074	0.01510349233899894	0.0004531047701699683	0.7547215121797772	0.1440329218106996	-0.405857740585774	0.7037037037037037
4491.241455078125	0.1234028008087	-9.881942141352226	-2.088822675019121	-1.068245485196472	-0.7783160212723121	0.3695753303533146	0.1604938271604938	-0.4225941422594142	0.7058823529411765
4510.772705078125	0.3470155627955126	-9.742888164893191	-1.877613646556098	-0.6995905629885782	-0.02098771688965735	0.3771486133971412	0.1584362139917695	-0.4393305439330544	0.69281045751634
4530.303955078125	-0.02746180135574343	-9.816887206281416	-1.945664432873083	0.04526116524163629	1.867029476748294	0.3960287853335207	0.1563786008230453	-0.4225941422594142	0.7058823529411765
4549.835205078125	-0.05829128304993541	-9.869532345397582	-2.221332257373106	-0.714674330617433	-0.767708886634941	0.3696814016996884	0.1522633744855967	-0.4393305439330544	0.6906318082788672
4569.366455078125	0.215415345069371	-9.771596806194223	-1.981375181808513	-0.3535711545790389	-0.01060713463737117	-0.0001060713463737117	0.1604938271604938	-0.4225941422594142	0.6949891067538128
4588.897705078125	0.275084820733061	-9.86525530043129	-2.136976563278881	-0.3460194084095394	-0.01038058225228618	0.3772546847435149	0.1419753086419753	-0.4205020920502092	0.6906318082788672
4608.428955078125	0.2761144235728086	-9.76229501645652	-1.939899061132553	-0.3233838946111852	0.7365671398780824	0.7620826525308564	0.139917695473251	-0.4225941422594142	0.7102396514161221
4627.960205078125	-0.05737686639638127	-9.778090680042171	-2.166245979433749	-0.3233740322561131	0.3634331073905256	1.135709802772018	0.154320987654321	-0.4309623430962343	0.6971677559912854
4647.491455078125	0.1157550442885329	-9.636616783267929	-1.814006622053844	0.3762263930875373	0.01128679179262612	1.132188339616039	0.1502057613168724	-0.4225941422594142	0.7058823529411765
4667.022705078125	0.05533786881972687	-9.617728269542466	-2.066191620647512	-0.376196806022321	-1.130688889255296	-0.01130688889255296	0.1440329218106996	-0.4205020920502092	0.69281045751634
4686.553955078125	0.164302990553692	-9.832327207257064	-2.096033936517923	0.03772914378228104	1.120534859388095	0.7659223297259565	0.1440329218106996	-0.4288702928870293	0.6840958605664489
4706.085205078125	0.1961246900973759	-9.680460283191708	-1.997213282410127	-0.3460095460544673	-0.383514614739843	0.7508818349846771	0.1502057613168724	-0.4142259414225941	0.6884531590413944
4725.616455078125	0.02373845840729374	-9.747366280482749	-1.961878404187539	-0.3234036193213294	1.482835204853196	0.01482835204853196	0.1666666666666667	-0.4246861924686192	0.6862745098039217
4745.147705078125	0.0828946482588229	-9.892353355935896	-2.200859428384914	-1.075797231365971	-0.7785425736573971	-0.007785425736573971	0.1604938271604938	-0.4121338912133891	0.69281045751634
4764.678955078125	0.2649918837691358	-9.864447986722793	-2.076431066357034	0.01510349233899894	0.0004531047701699683	0.7547215121797772	0.1481481481481482	-0.4330543933054393	0.6993464052287582
4784.210205078125	0.07483464644069988	-9.688252527647187	-2.008916805170478	0.4214875583291736	1.87831626854092	1.52821712494956	0.1522633744855967	-0.4205020920502092	0.6906318082788672
4803.741455078125	0.06593196673410819	-9.568419488205345	-2.164630341611613	-0.7146841929725051	-0.3945748541473841	-0.003945748541473841	0.1604938271604938	-0.4205020920502092	0.6862745098039217
4823.272705078125	0.07452647287237502	-9.719069884479675	-2.060965805252836	-1.090880998994826	-1.525263743402681	-0.01525263743402681	0.1460905349794239	-0.403765690376569	0.6971677559912854
4842.803955078125	0.1033098841539182	-9.871031786628382	-2.048074046045436	-1.0682356228414	-1.151450053759869	0.7432024805944768	0.1563786008230453	-0.4309623430962343	0.7102396514161221
4862.335205078125	0.2161054517813903	-9.702586134992291	-2.149634918898467	-0.7221964897217161	-1.887337536482696	1.113202096333286	0.1625514403292181	-0.4225941422594142	0.6993464052287582
4881.866455078125	0.2947887314081539	-9.915066253124012	-2.028158960695654	-1.038087812293834	1.088260350705812	0.01088260350705812	0.1460905349794239	-0.4309623430962343	0.6819172113289761
4901.397705078125	0.2047980078367225	-9.823229519358055	-2.115376122152162	-1.053191304632833	1.087807245935642	-0.7438389086727191	0.1584362139917695	-0.4246861924686192	0.6819172113289761
4920.928955078125	-0.03727283528503696	-9.78788958910976	-2.095827813868945	-0.676955049190224	0.7259600052407112	0.7619765811844826	0.154320987654321	-0.4414225941422594	0.69281045751634
4940.460205078125	0.1852133249683913	-9.76149578598916	-2.04177821160533	0.03774886849242525	0.3742667944129817	1.513176630208281	0.1851851851851852	-0.4205020920502092	0.701525054466231
4959.991455078125	0.1031118447460767	-9.890835727412538	-2.008662183074681	-0.7071324468030056	-0.3943483017622991	0.3734150075484148	0.1460905349794239	-0.4225941422594142	0.6971677559912854
4979.522705078125	0.09433748649252517	-9.758170542666678	-1.891005556308813	-0.7071324468030056	-0.3943483017622991	0.3734150075484148	0.1440329218106996	-0.4246861924686192	0.7124183006535948
4999.053955078125	0.04232182977985464	-9.909231163428679	-1.94958379441909	-0.3233838946111852	0.7365671398780824	0.7620826525308564	0.154320987654321	-0.4142259414225941	0.7189542483660132
5018.585205078125	-0.06849738538977	-9.880041569280031	-2.282565840196687	0.04528088995178051	1.12076141177318	1.143283085815845	0.1604938271604938	-0.4351464435146443	0.6949891067538128
5038.116455078125	0.2139987570602186	-9.913255607109459	-2.008674307936386	-0.6844969330046514	0.3525994203680694	0.7582429753357562	0.1481481481481482	-0.4309623430962343	0.6840958605664489
5057.647705078125	-0.02997568934916077	-10.06827600562315	-1.837046890507983	-0.7146546059072888	-1.513976951610055	1.116935702182013	0.1563786008230453	-0.4163179916317991	0.7058823529411765
5077.178955078125	0.1451083240701916	-9.731591835405085	-2.161896185297229	-0.7146644682623609	-1.140842919122498	0.7433085519408505	0.1563786008230453	-0.4205020920502092	0.6819172113289761
5096.710205078125	0.1663621962331875	-9.626406639307525	-1.701878932225267	-0.338477524595112	0.3629800026203556	0.3809882905922413	0.1625514403292181	-0.4330543933054393	0.6949891067538128
5116.241455078125	0.3372156433227816	-9.71277910206528	-1.916610233013471	-0.3384676622400399	-0.0101540298672012	0.7546154408334035	0.1522633744855967	-0.4205020920502092	0.6949891067538128
5135.772705078125	0.1451063032599075	-9.731793916433496	-2.182108329758773	-0.6995905629885782	-0.02098771688965735	0.3771486133971412	0.1502057613168724	-0.4184100418410042	0.6949891067538128
5155.303955078125	0.1350093246754142	-9.731390764781818	-2.161987121760014	0.3988421821757472	1.504502578898108	0.7697620069210566	0.1625514403292181	-0.4267782426778242	0.6819172113289761
5174.835205078125	0.06363430544108931	-9.798185617507235	-1.913515362063375	-0.3384676622400399	-0.0101540298672012	0.7546154408334035	0.1481481481481482	-0.4205020920502092	0.69281045751634
5194.366455078125	0.2475482493968058	-9.588609403753763	-1.800187310926044	-0.6995807006335061	-0.3941217493772142	0.7507757636383033	0.1563786008230453	-0.4288702928870293	0.6906318082788672
5213.897705078125	0.06270170149497828	-9.891446012118335	-2.150510940156624	0.03019712232292578	0.3740402420278968	1.135815874118392	0.1748971193415638	-0.4225941422594142	0.6884531590413944
5233.428955078125	0.1850860139204931	-9.774226890778976	-2.305042302581562	-0.6769649115452961	1.099094037728268	0.3883494309433204	0.1625514403292181	-0.4309623430962343	0.6949891067538128
5252.960205078125	0.1863106249526562	-9.651765787562667	-2.177694880098304	0.3913002983613199	1.131141994025466	0.7660284010723302	0.154320987654321	-0.4267782426778242	0.6884531590413944
5272.491455078125	0.2556991876777132	-9.783616585764035	-2.092684443472031	-0.3309159160705404	-0.009927477482116214	1.131976196923292	0.1419753086419753	-0.4246861924686192	0.6971677559912854
5292.022705078125	0.001203392524180086	-9.980670848592094	-2.105082114564969	-0.6995807006335061	-0.3941217493772142	0.7507757636383033	0.1584362139917695	-0.4079497907949791	0.6906318082788672
5311.553955078125	0.112691495897841	-9.942971622337113	-2.152587322723534	-0.3233937569662573	1.109701172365639	0.3884555022896942	0.1604938271604938	-0.4456066945606694	0.673202614379085
5331.085205078125	-0.1370341765800799	-9.663013617603951	-1.928965467090443	-0.3309257784256125	0.3632065550054406	0.75834904668213	0.1460905349794239	-0.4330543933054393	0.6971677559912854
5350.616455078125	0.02393750822027734	-9.727461299184389	-1.991184194927522	-0.3460095460544673	-0.383514614739843	0.7508818349846771	0.1481481481481482	-0.4476987447698744	0.7037037037037037
5370.147705078125	-0.0783680332224444	-9.857005342446461	-2.018886472707073	-0.676955049190224	0.7259600052407112	0.7619765811844826	0.1502057613168724	-0.4205020920502092	0.6819172113289761
5389.678955078125	0.1947020396573712	-9.822725327192176	-2.085148841922631	-0.714674330617433	-0.767708886634941	0.3696814016996884	0.154320987654321	-0.4225941422594142	0.6884531590413944
5409.210205078125	0.1455054132910168	-9.691882913322569	-2.230613839007966	0.01508376762885473	0.7467211697452836	0.007467211697452836	0.1481481481481482	-0.4351464435146443	0.7124183006535948
5428.741455078125	0.196830963291668	-9.609832963762498	-2.003775863807734	-0.3384676622400399	-0.0101540298672012	0.7546154408334035	0.1481481481481482	-0.4225941422594142	0.6884531590413944
5448.272705078125	0.3450877097844836	-9.935673465996096	-1.968080270949435	-0.7146644682623609	-1.140842919122498	0.7433085519408505	0.1440329218106996	-0.4267782426778242	0.6862745098039217
5467.803955078125	0.3054303183642115	-9.86100856761926	-1.651612286813483	-0.3460194084095394	-0.01038058225228618	0.3772546847435149	0.1563786008230453	-0.4142259414225941	0.6797385620915033
5487.335205078125	0.1670320948423658	-9.559416778389693	-2.072260113930657	-0.3309257784256125	0.3632065550054406	0.75834904668213	0.1646090534979424	-0.4288702928870293	0.6971677559912854
5506.866455078125	0.1255317244429967	-9.669049777922551	-2.007449696904223	-0.3158617355069021	1.856195789725838	0.01856195789725838	0.168724279835391	-0.4184100418410042	0.701525054466231
5526.397705078125	-0.09009075368049418	-10.01917637815043	-2.097819322403923	-0.6996004253436504	0.3521463155978994	0.003521463155978994	0.1522633744855967	-0.4539748953974895	0.6971677559912854
5545.928955078125	0.02344240970067346	-9.77697115114478	-1.892654537500637	0.01511335469407105	-0.3726809277173868	1.128348662420939	0.1481481481481482	-0.4393305439330544	0.6862745098039217
5565.460205078125	0.08383836666149645	-9.797981515668543	-1.852697055753176	0.3762263930875373	0.01128679179262612	1.132188339616039	0.1460905349794239	-0.4184100418410042	0.6971677559912854
5584.991455078125	0.345718202593122	-9.872624185132253	-1.722497259553914	0.04528088995178051	1.12076141177318	1.143283085815845	0.1748971193415638	-0.4246861924686192	0.7058823529411765
5604.522705078125	-0.01575524737996641	-9.656332818804726	-2.028428738868582	-0.7222162144318603	-1.141069471507583	0.3659477958509619	0.154320987654321	-0.4121338912133891	0.6949891067538128
5624.053955078125	0.3173975568666371	-9.674385727477711	-2.157312987572896	-0.3309159160705404	-0.009927477482116214	1.131976196923292	0.1728395061728395	-0.4121338912133891	0.6906318082788672
5643.585205078125	0.185312344672312	-9.751593815597083	-2.061484143090707	-0.6769649115452961	1.099094037728268	0.3883494309433204	0.1563786008230453	-0.4414225941422594	0.6884531590413944
5663.116455078125	-0.1396723444059692	-9.926830400192884	-2.05329379900926	0.007561608524571581	-0.3729074801024718	0.7509879063310508	0.1584362139917695	-0.4351464435146443	0.6884531590413944
5682.647705078125	0.1939967768682212	-9.893251606107178	-2.068480188294253	0.03774886849242525	0.3742667944129817	1.513176630208281	0.1563786008230453	-0.4225941422594142	0.6906318082788672
5702.178955078125	0.2652808596397617	-9.835550399660198	-2.21639743865934	0.06035479522556313	2.240616614006021	0.7771231472721357	0.1502057613168724	-0.4288702928870293	0.6775599128540306
5721.710205078125	0.03394658155741245	-9.736654975571891	-1.880432676902414	0.4063840659901746	1.87786316377075	0.7734956127697831	0.1666666666666667	-0.4267782426778242	0.6775599128540306
5741.241455078125	-0.07888131903460519	-9.908333923662541	-2.102266115434079	-0.7297482358912155	-1.887564088867781	0.7358413402433978	0.1502057613168724	-0.4539748953974895	0.6993464052287582
5760.772705078125	0.1046203796231555	-9.739982239704657	-2.071811494047588	-0.7146546059072888	-1.513976951610055	1.116935702182013	0.1584362139917695	-0.4372384937238493	0.6797385620915033
5780.303955078125	0.03435276442451605	-9.696036688861531	-1.858195680536205	-0.3233740322561131	0.3634331073905256	1.135709802772018	0.1522633744855967	-0.4246861924686192	0.7037037037037037
5799.835205078125	0.003045361098134989	-9.796473991196605	-1.863530619686223	-0.3233838946111852	0.7365671398780824	0.7620826525308564	0.1563786008230453	-0.4330543933054393	0.6862745098039217
5819.366455078125	-0.1374585467397404	-9.705450633569999	-2.133111763610544	-0.338477524595112	0.3629800026203556	0.3809882905922413	0.1481481481481482	-0.4121338912133891	0.6819172113289761
5838.897705078125	0.07290174140396059	-9.881543031321115	-2.149913790717673	0.01510349233899894	0.0004531047701699683	0.7547215121797772	0.1666666666666667	-0.4225941422594142	0.6862745098039217
5858.428955078125	0.2663114728846515	-9.732489075171223	-2.00921386428224	0.3611327631036104	-0.3623003454651006	0.7510939776774245	0.154320987654321	-0.4079497907949791	0.6862745098039217
5877.960205078125	0.184505030963815	-9.832325186446781	-2.055427774669267	-0.3233740322561131	0.3634331073905256	1.135709802772018	0.139917695473251	-0.4351464435146443	0.6862745098039217
5897.491455078125	-0.03745571861574779	-9.806177922180842	-1.904824867436614	-0.3309159160705404	-0.009927477482116214	1.131976196923292	0.1625514403292181	-0.4330543933054393	0.6775599128540306
5917.022705078125	0.2244018884027527	-9.883043482957058	-1.996958660314331	-0.3158518731518299	1.483061757238281	0.3921891081384206	0.1625514403292181	-0.4393305439330544	0.6797385620915033
5936.553955078125	0.02413857884354505	-9.707354236857618	-2.000277841205961	-0.692058541529223	0.7255069004705412	0.007255069004705413	0.1728395061728395	-0.4309623430962343	0.69281045751634
5956.085205078125	0.2565994586592787	-9.69358948760749	-2.179083176763479	-0.3083198516924747	2.229556374598479	0.0222955637459848	0.1666666666666667	-0.4330543933054393	0.6819172113289761
5975.616455078125	-0.009104760735001426	-10.00138516440924	-2.176927982595489	-0.6920486791741509	0.3523728679829845	0.3808822192458676	0.168724279835391	-0.4225941422594142	0.6884531590413944
5995.147705078125	0.03254413922024876	-9.876899209288259	-1.766246791799483	-0.7297580982462877	-1.514430056380224	0.3622141900022355	0.154320987654321	-0.4267782426778242	0.6906318082788672
6014.678955078125	0.115321580482594	-9.679963163861819	-2.109107568650892	-0.3384676622400399	-0.0101540298672012	0.7546154408334035	0.1358024691358025	-0.4205020920502092	0.6797385620915033
6034.210205078125	0.07303006285700078	-9.868710886017096	-1.876543627510669	0.391310160716392	0.7580079615379097	1.139655551313492	0.1481481481481482	-0.4393305439330544	0.7145969498910676
6053.741455078125	0.01252397173569448	-9.858713937541665	-2.007961972311242	0.3686746469180378	0.01106023940754114	0.754827583526151	0.1604938271604938	-0.4184100418410042	0.6906318082788672
6073.272705078125	0.1235998298113995	-9.862239241082275	-2.138340610220646	-0.3611031760383941	-0.7571017519975698	0.3697874730460621	0.154320987654321	-0.4288702928870293	0.6819172113289761
6092.803955078125	0.2151192963627507	-9.80120167685625	-1.912151315121609	0.007561608524571581	-0.3729074801024718	0.7509879063310508	0.1563786008230453	-0.4205020920502092	0.6775599128540306
6112.335205078125	0.01321205763742968	-9.789905347368146	-2.19643385386274	-0.3309257784256125	0.3632065550054406	0.75834904668213	0.1748971193415638	-0.4267782426778242	0.6862745098039217
6131.866455078125	-0.1076707927470007	-9.756978264599059	-2.17579430802611	-0.3158321484416857	0.7367936922631674	1.139443408620745	0.1790123456790124	-0.4330543933054393	0.7102396514161221
6151.397705078125	0.1645131548232382	-9.811310780302449	-2.014172932719415	-0.3384676622400399	-0.0101540298672012	0.7546154408334035	0.1440329218106996	-0.4309623430962343	0.69281045751634
6170.928955078125	0.09695948783614172	-9.495970408305023	-1.928374380082345	0.03018725996785367	0.7471742745154536	0.76218872387723	0.1481481481481482	-0.4184100418410042	0.7080610021786493
6190.460205078125	0.08239449771350876	-9.94236841046731	-2.152860132111887	0.3988619068858915	0.7582345139229947	1.517016307403381	0.1810699588477366	-0.4205020920502092	0.6775599128540306
6209.991455078125	0.3468912829630406	-9.755316148140389	-2.110559520840015	-0.6769747739003683	1.472228070215825	0.01472228070215825	0.1502057613168724	-0.4267782426778242	0.7189542483660132
6229.522705078125	-0.08937639724506571	-9.947740734607583	-2.023533325955355	-0.6995905629885782	-0.02098771688965735	0.3771486133971412	0.168724279835391	-0.4372384937238493	0.69281045751634
6249.053955078125	0.2738652617266081	-9.987211201076576	-2.21379362460828	0.007551746169499472	0.0002265523850849842	0.3773607560898886	0.1563786008230453	-0.4330543933054393	0.6971677559912854
6268.585205078125	0.2668267795070964	-9.680958412926737	-1.90562207709369	-0.3384676622400399	-0.0101540298672012	0.7546154408334035	0.1481481481481482	-0.4246861924686192	0.6906318082788672
6288.116455078125	0.1630834315472392	-9.95428310790235	-2.172850997847322	-0.3309257784256125	0.3632065550054406	0.75834904668213	0.154320987654321	-0.4246861924686192	0.6884531590413944
6307.647705078125	0.2081485112877562	-9.488179174254684	-1.936973938246322	0.03018725996785367	0.7471742745154536	0.76218872387723	0.1502057613168724	-0.4288702928870293	0.6753812636165578
6327.178955078125	0.09404345859618897	-9.787573332300298	-1.801569545160366	0.03771928142720893	1.493668891875652	0.3922951794847943	0.168724279835391	-0.4163179916317991	0.6906318082788672
6346.710205078125	0.05341405742926601	-9.810109408588552	-2.116233956117762	0.01511335469407105	-0.3726809277173868	1.128348662420939	0.1584362139917695	-0.4309623430962343	0.6819172113289761
6366.241455078125	0.06261581705790414	-9.900034455825752	-1.999426069671214	-0.6844969330046514	0.3525994203680694	0.7582429753357562	0.154320987654321	-0.4225941422594142	0.6819172113289761
6385.772705078125	0.09686855137335733	-9.505064054583462	-1.827819870750793	-1.068245485196472	-0.7783160212723121	0.3695753303533146	0.1625514403292181	-0.4267782426778242	0.69281045751634
6405.303955078125	0.1358408881073203	-9.648234421591205	-1.925497756642932	-0.3007385184577589	1.110380829520894	1.52053777055936	0.1625514403292181	-0.4372384937238493	0.6797385620915033
6424.835205078125	-0.02584313231818131	-9.655020302525205	-1.917352880792877	0.02265523850849842	0.0006796571552549525	1.132082268269666	0.1522633744855967	-0.4309623430962343	0.6949891067538128
6444.366455078125	0.2867216567540365	-9.711672708434735	-1.906958843096621	-0.6845067953597235	0.7257334528556262	0.384615825094594	0.1522633744855967	-0.4225941422594142	0.69281045751634
6463.897705078125	0.04232486099528079	-9.908928041886064	-1.919265577726775	-0.3083198516924747	2.229556374598479	0.0222955637459848	0.1625514403292181	-0.4246861924686192	0.7058823529411765
6483.428955078125	-0.1580596971809727	-9.745363657491209	-2.125212416210007	-0.3309060537154684	-0.383061509969673	1.505603347164454	0.168724279835391	-0.4225941422594142	0.69281045751634
6502.960205078125	0.2258134243861948	-9.741889884612846	-2.020189895340316	0.3686845092731099	-0.3620737930800156	1.128454733767313	0.1460905349794239	-0.4393305439330544	0.7058823529411765
6522.491455078125	0.3487069810033023	-9.573746344114227	-2.131765903961335	-0.3459996836993952	-0.7566486472273998	1.124508985225839	0.1604938271604938	-0.4163179916317991	0.69281045751634
6542.022705078125	0.2053163456745935	-9.771395735570955	-1.981466118271297	-0.3158420107967578	1.109927724750724	0.7658162583795828	0.1522633744855967	-0.4330543933054393	0.6753812636165578
6561.553955078125	0.1847091328025089	-9.811915002577395	-2.03420320425539	0.4591969774013104	3.745119192904129	1.546885154193192	0.1584362139917695	-0.4246861924686192	0.7037037037037037
6581.085205078125	0.09402122968306389	-9.789796223612806	-2.023903134237345	-0.3158518731518299	1.483061757238281	0.3921891081384206	0.1625514403292181	-0.4309623430962343	0.69281045751634
6600.616455078125	-0.1681415196883353	-9.743444898126459	-1.953500124749671	-0.3158420107967578	1.109927724750724	0.7658162583795828	0.154320987654321	-0.4330543933054393	0.6775599128540306
6620.147705078125	-0.08697365381727375	-9.707466391828387	-2.23371780360434	-1.0682356228414	-1.151450053759869	0.7432024805944768	0.1440329218106996	-0.403765690376569	0.6971677559912854
6639.678955078125	0.04137710097203905	-10.00370404421024	-2.3078522392816	-0.3460095460544673	-0.383514614739843	0.7508818349846771	0.1625514403292181	-0.4330543933054393	0.6884531590413944
6659.210205078125	0.06323822662540618	-9.837793499075547	-1.834691636121867	0.01510349233899894	0.0004531047701699683	0.7547215121797772	0.1563786008230453	-0.4163179916317991	0.6884531590413944
6678.741455078125	0.07563084569263431	-9.608632602453744	-2.126139968130408	-0.3309257784256125	0.3632065550054406	0.75834904668213	0.1522633744855967	-0.4393305439330544	0.6797385620915033
6698.272705078125	0.02595326647866464	-9.52588547334566	-2.031590296558052	-0.3158518731518299	1.483061757238281	0.3921891081384206	0.1440329218106996	-0.4414225941422594	0.6819172113289761
6717.803955078125	0.04494484152861324	-9.64692998855282	-1.97684654596185	-0.6769649115452961	1.099094037728268	0.3883494309433204	0.1502057613168724	-0.4330543933054393	0.6949891067538128
6737.335205078125	-0.01738907249465927	-9.819715330274011	-2.208331374410364	-1.060693739026972	-0.7780894688872271	0.7469360864432033	0.1666666666666667	-0.4225941422594142	0.701525054466231
6756.866455078125	0.2258053411450584	-9.742698208726484	-2.10103847318649	-0.3459996836993952	-0.7566486472273998	1.124508985225839	0.1646090534979424	-0.4351464435146443	0.6884531590413944
6776.397705078125	0.3254818084081693	-9.876061583425502	-2.10670987724881	-0.3384676622400399	-0.0101540298672012	0.7546154408334035	0.1502057613168724	-0.4288702928870293	0.6884531590413944
6795.928955078125	0.3472034981519337	-9.724094629251084	-2.01808623183457	0.7825907343675677	2.63541802053849	1.158429651903498	0.1604938271604938	-0.4205020920502092	0.69281045751634
6815.460205078125	0.1251285727913193	-9.709364943090296	-1.999368476578117	0.4063939283452467	1.504729131283193	1.147122763010945	0.168724279835391	-0.4267782426778242	0.6862745098039217
6834.991455078125	0.2663933157011574	-9.724304793520629	-2.200723023690737	0.01507390527378262	1.11985520223284	-0.3661599385437094	0.1502057613168724	-0.4225941422594142	0.6949891067538128
6854.522705078125	0.1035240900440326	-9.84961119761695	-1.925788753323842	-0.6769747739003683	1.472228070215825	0.01472228070215825	0.1604938271604938	-0.4351464435146443	0.6906318082788672
6874.053955078125	0.1449264511446228	-9.749779127961963	-1.960787166634127	0.03772914378228104	1.120534859388095	0.7659223297259565	0.1584362139917695	-0.4225941422594142	0.69281045751634
6893.585205078125	-0.005350095227148213	-9.625918613623917	-1.996500946784983	-0.7071423091580777	-0.02121426927474233	-0.0002121426927474233	0.1604938271604938	-0.4225941422594142	0.7037037037037037
6913.116455078125	-0.08734043088383746	-9.744144098484757	-1.86181798297045	-1.060703601382045	-0.4049554363996703	0.3733089362020411	0.1419753086419753	-0.4205020920502092	0.69281045751634
6932.647705078125	-0.1095612607677739	-9.946025066676386	-1.892336259880891	-0.3460095460544673	-0.383514614739843	0.7508818349846771	0.1646090534979424	-0.4205020920502092	0.6840958605664489
6952.178955078125	0.2137754575238258	-9.935585560748736	-2.221914250734926	-0.0150541805636384	-1.866123267207954	1.113414239026034	0.154320987654321	-0.4414225941422594	0.6862745098039217
6971.710205078125	0.2263287310086397	-9.690359222368359	-1.916598108151766	0.02265523850849842	0.0006796571552549525	1.132082268269666	0.1604938271604938	-0.4225941422594142	0.6906318082788672
6991.241455078125	0.03323121471684191	-9.808191659628944	-1.964824745581754	-0.3611229007485384	-0.01083368702245615	-0.3774668274362623	0.1604938271604938	-0.4309623430962343	0.6971677559912854
7010.772705078125	0.213883570874025	-9.924774225728815	-2.150665532143357	-0.3158518731518299	1.483061757238281	0.3921891081384206	0.1275720164609054	-0.4225941422594142	0.6819172113289761
7030.303955078125	0.04312409146264137	-9.829004995150006	-2.006170523994389	0.391310160716392	0.7580079615379097	1.139655551313492	0.1460905349794239	-0.4246861924686192	0.6971677559912854
7049.835205078125	0.2336814492273286	-9.965188410600481	-2.112084222199367	0.3913002983613199	1.131141994025466	0.7660284010723302	0.168724279835391	-0.4225941422594142	0.6840958605664489
7069.366455078125	0.265907310827832	-9.772905280853175	-2.011238716186906	0.03018725996785367	0.7471742745154536	0.76218872387723	0.1707818930041153	-0.4246861924686192	0.7037037037037037
7088.897705078125	-0.03716977396054798	-9.777583456660862	-2.075109456431234	0.03772914378228104	1.120534859388095	0.7659223297259565	0.1481481481481482	-0.4163179916317991	0.6797385620915033
7108.428955078125	0.1441029709538531	-9.832127147038937	-2.116427953905035	0.7297975476665761	0.02189392642999729	1.132294410962413	0.1707818930041153	-0.4246861924686192	0.6949891067538128
7127.960205078125	0.4484764055394815	-9.697813991506395	-2.217779672893663	0.03019712232292578	0.3740402420278968	1.135815874118392	0.1522633744855967	-0.4435146443514644	0.6993464052287582
7147.491455078125	0.2784120848658275	-9.532528887154632	-2.191014040680791	-0.3535514298688947	-0.7568751996124847	0.7471482291359507	0.1584362139917695	-0.4267782426778242	0.6862745098039217
7167.022705078125	0.1027016202584049	-9.93185817617972	-2.071323468363978	-1.045609971398118	-0.03136829914194354	0.7544032981406561	0.1563786008230453	-0.4205020920502092	0.701525054466231
7186.553955078125	0.1237241096438715	-9.849811257835075	-1.905394735936729	0.7826005967226398	2.262283988050933	1.53205680214466	0.1337448559670782	-0.4184100418410042	0.69281045751634
7206.085205078125	0.04433152560738964	-9.708261580675179	-2.050626329434251	-0.6769649115452961	1.099094037728268	0.3883494309433204	0.1502057613168724	-0.4288702928870293	0.6906318082788672
7225.616455078125	-0.04602900624603157	-9.65340567510821	-1.796261886949184	-0.3460292707646115	0.3627534502352706	0.003627534502352706	0.1563786008230453	-0.4267782426778242	0.7037037037037037
7245.147705078125	0.1971451992908451	-9.578409363844782	-1.891090430340745	-1.083329252825327	-1.525037191017595	0.3621081186558618	0.1522633744855967	-0.4372384937238493	0.6775599128540306
7264.678955078125	0.07443250519416447	-9.728466652300728	-1.9907295126136	-0.6920289544640067	-0.3938951969921292	1.128136519728192	0.154320987654321	-0.4267782426778242	0.69281045751634
7284.210205078125	0.3671852702410901	-9.746119440537463	-2.160401796092139	-0.3309257784256125	0.3632065550054406	0.75834904668213	0.1440329218106996	-0.4351464435146443	0.6862745098039217
7303.741455078125	-0.0188834616997494	-9.969154250783024	-2.003697052206654	-0.3083099893374026	1.856422342110923	0.395922713987147	0.168724279835391	-0.4372384937238493	0.6840958605664489
7323.272705078125	0.05344436958352747	-9.807078193162406	-1.813051789194609	-0.6920388168190788	-0.02076116450457237	0.7545093694870298	0.1604938271604938	-0.4205020920502092	0.6644880174291939
7342.803955078125	0.1865228100324865	-9.630547279579643	-2.075621731838253	0.03021684703307	-0.3722278229472168	1.883070174600717	0.168724279835391	-0.4225941422594142	0.6884531590413944
7362.335205078125	0.3565871307061406	-9.795832383931405	-2.102387364051125	-0.3158518731518299	1.483061757238281	0.3921891081384206	0.1646090534979424	-0.4100418410041841	0.6971677559912854
7381.866455078125	0.05363634656051674	-9.787880495463479	-1.913100085549993	-0.3083001269823305	1.483288309623366	0.7695498642283092	0.154320987654321	-0.4205020920502092	0.6971677559912854
7401.397705078125	0.04351208703718809	-9.790205437695334	-2.165842827782072	-0.7373197067708593	-1.141522576277753	-0.3887737163288153	0.1502057613168724	-0.4184100418410042	0.6775599128540306
7420.928955078125	0.3854816865533092	-9.936679829517578	-1.987928669559841	0.3536007416442552	-1.108794962825299	1.12098752206986	0.1481481481481482	-0.4225941422594142	0.7080610021786493
7440.460205078125	-0.03596132941065765	-9.656739001671829	-2.109459189640325	0.03774886849242525	0.3742667944129817	1.513176630208281	0.1584362139917695	-0.4246861924686192	0.6840958605664489
7459.991455078125	0.2871177355697196	-9.672064826866425	-1.985782569038129	0.007561608524571581	-0.3729074801024718	0.7509879063310508	0.154320987654321	-0.4246861924686192	0.7080610021786493
7479.522705078125	0.1853194175083064	-9.750886531997649	-1.990741637475305	0.06788681668491839	2.987111231366219	0.4072296028796999	0.1728395061728395	-0.4246861924686192	0.6862745098039217
7499.053955078125	0.01443262704902459	-9.667848406208654	-2.109510720302569	-0.6844870706495794	-0.02053461211948738	1.131870125576918	0.1584362139917695	-0.4205020920502092	0.6993464052287582
7518.585205078125	-0.07979169406759112	-9.999371426961133	-2.116928104450349	-0.6995807006335061	-0.3941217493772142	0.7507757636383033	0.154320987654321	-0.4351464435146443	0.69281045751634
7538.116455078125	0.002928154101657325	-9.80819469084437	-2.025733988354737	-0.7071225844479335	-0.7674823342498559	0.7470421577895769	0.1748971193415638	-0.4246861924686192	0.6949891067538128
7557.647705078125	0.1650133053685524	-9.761295725771035	-2.062172228992442	-1.444452153573865	-1.535870878040052	-0.01535870878040052	0.1522633744855967	-0.4309623430962343	0.7058823529411765
7577.178955078125	0.1533219074699061	-9.920334505534655	-1.827816839535367	0.01510349233899894	0.0004531047701699683	0.7547215121797772	0.154320987654321	-0.4184100418410042	0.6949891067538128
7596.710205078125	0.2059246095701069	-9.710569346019618	-1.958216695952755	-0.714674330617433	-0.767708886634941	0.3696814016996884	0.1522633744855967	-0.4330543933054393	0.6884531590413944
7616.241455078125	0.2075614659002259	-9.546883713007718	-1.747995843718656	-0.3384676622400399	-0.0101540298672012	0.7546154408334035	0.1563786008230453	-0.4225941422594142	0.69281045751634
7635.772705078125	0.154544497691785	-9.798075483346754	-1.720681561513652	-0.7071423091580777	-0.02121426927474233	-0.0002121426927474233	0.1604938271604938	-0.4330543933054393	0.6971677559912854
7655.303955078125	0.1439130147871479	-9.851122763709455	-1.996167513088106	-0.3158222860866136	0.3636596597756105	1.513070558861907	0.1646090534979424	-0.4184100418410042	0.6884531590413944
7674.835205078125	0.003310087245351759	-9.770001376474927	-2.246042725527051	-0.714674330617433	-0.767708886634941	0.3696814016996884	0.1460905349794239	-0.4456066945606694	0.701525054466231
7694.366455078125	0.2264206778765661	-9.681164535575714	-2.007046545252546	-0.3309257784256125	0.3632065550054406	0.75834904668213	0.1584362139917695	-0.4163179916317991	0.6862745098039217
7713.897705078125	0.1860489300208656	-9.677935280741728	-1.764864557565161	-1.760313889080767	0.320324911685786	0.003203249116857859	0.1604938271604938	-0.4393305439330544	0.6971677559912854
7733.428955078125	0.1219953064458261	-10.02269157763962	-2.025167151070048	-0.3460391331196837	0.7358874827228274	-0.3699996157388095	0.1604938271604938	-0.4184100418410042	0.6862745098039217
7752.960205078125	0.02141351617543953	-9.979860503668171	-1.983627374870139	0.7599650829242856	1.515336265920564	1.147228834357319	0.154320987654321	-0.4351464435146443	0.701525054466231
7772.491455078125	0.03816502302546603	-9.314810828766531	-2.111823537672719	-0.3234036193213294	1.482835204853196	0.01482835204853196	0.154320987654321	-0.4225941422594142	0.701525054466231
7792.022705078125	-0.1077910309589045	-9.769002085789442	-2.36831589338694	-0.338477524595112	0.3629800026203556	0.3809882905922413	0.1625514403292181	-0.4142259414225941	0.701525054466231
7811.553955078125	0.2654708158064669	-9.816554782989682	-2.336657879476268	-0.7146447435522166	-1.887110984097611	1.490562852423175	0.1502057613168724	-0.4288702928870293	0.6971677559912854
7831.085205078125	0.2037855818843897	-9.924472114591342	-2.14065039637537	-0.7071225844479335	-0.7674823342498559	0.7470421577895769	0.1502057613168724	-0.4142259414225941	0.6797385620915033
7850.616455078125	0.3160183538477405	-9.812306029367367	-1.810687441162214	-0.714674330617433	-0.767708886634941	0.3696814016996884	0.1604938271604938	-0.4100418410041841	0.6884531590413944
7870.147705078125	0.1270877483617519	-9.513447386047041	-1.595613613030856	-0.3309356407806847	0.7363405874929974	0.3847218964409677	0.1563786008230453	-0.4246861924686192	0.6906318082788672
7889.678955078125	0.1046163380025873	-9.740386401761477	-2.112235782970675	0.03017739761278156	1.12030830700301	0.3885615736360679	0.1625514403292181	-0.4288702928870293	0.7058823529411765
7909.210205078125	0.07281484656174439	-9.890232515542735	-2.008934992463035	0.02265523850849842	0.0006796571552549525	1.132082268269666	0.1625514403292181	-0.4246861924686192	0.6884531590413944
7928.741455078125	0.1843989384239	-9.842934440438292	-2.106464348799292	-0.3309356407806847	0.7363405874929974	0.3847218964409677	0.1625514403292181	-0.403765690376569	0.6906318082788672
7948.272705078125	-0.07797094400161923	-9.817296420363947	-2.08760412641781	-0.7071423091580777	-0.02121426927474233	-0.0002121426927474233	0.1460905349794239	-0.4267782426778242	0.69281045751634
7967.803955078125	-0.1489812069796645	-9.847615647461403	-2.231244331816604	0.02266510086357052	-0.3724543753323019	1.505709418510828	0.1563786008230453	-0.4288702928870293	0.6949891067538128
7987.335205078125	0.1226005391259133	-9.962168309630899	-2.032235945443821	-0.3459996836993952	-0.7566486472273998	1.124508985225839	0.154320987654321	-0.4246861924686192	0.6971677559912854
8006.866455078125	0.3465022769833518	-9.794216746109269	-1.960993289283105	-0.3083099893374026	1.856422342110923	0.395922713987147	0.154320987654321	-0.4393305439330544	0.6949891067538128
8026.397705078125	0.1257530031691054	-9.646921905311684	-1.814421898567226	-0.3158518731518299	1.483061757238281	0.3921891081384206	0.1502057613168724	-0.4225941422594142	0.6862745098039217
8045.928955078125	-0.03704650453321803	-9.765256513927868	-1.852269654378089	-0.3233740322561131	0.3634331073905256	1.135709802772018	0.1460905349794239	-0.4414225941422594	0.701525054466231
8065.460205078125	0.3067135328946134	-9.732687114579067	-1.948213685046472	-0.03768969436199261	-2.613070989338322	0.7285862712386924	0.1522633744855967	-0.4267782426778242	0.69281045751634
8084.991455078125	0.08534690153857526	-9.647128027960662	-1.915846366726082	-0.2932262217085478	2.603143511856206	0.4033899256845999	0.1563786008230453	-0.4393305439330544	0.6971677559912854
8104.522705078125	-0.006751527159169853	-9.76606180682608	-1.87220898945128	-1.053171579922689	0.3415391809605283	0.003415391809605283	0.1440329218106996	-0.4414225941422594	0.7080610021786493
8124.053955078125	-0.07068693333258967	-10.098996363562	-1.960202142056881	0.007581333234715798	-1.119175545077585	1.498242206813375	0.1522633744855967	-0.4393305439330544	0.7167755991285404
8143.585205078125	0.1532855328847923	-9.92397196404603	-2.191635439843151	-0.7222063520767882	-1.51420350399514	0.7395749460921242	8.248971193415638	-0.4267782426778242	0.6971677559912854
8163.116455078125	0.2033026082264903	-9.972769480381272	-1.920847872179223	-0.3535612922239668	-0.383741167124928	0.3735210788947885	0.1440329218106996	-0.4351464435146443	0.701525054466231
8182.647705078125	0.166911856630462	-9.571440599580072	-2.264781699291487	-1.060733188447261	0.714446661063	-0.7475725145214456	0.1604938271604938	-0.4456066945606694	0.6862745098039217
8202.178955078125	0.2233945144761301	-9.98378087561932	-1.97170257338368	0.4063840659901746	1.87786316377075	0.7734956127697831	0.1707818930041153	-0.4121338912133891	0.6884531590413944
8221.710205078125	0.0930330534541402	-9.888613846505173	-1.806631674922031	-0.6920388168190788	-0.02076116450457237	0.7545093694870298	0.1625514403292181	-0.4205020920502092	0.6840958605664489
8241.241455078125	-0.05605121485001329	-9.645525525405372	-2.038392343974325	-0.3611130383934663	-0.383967719510013	-0.003839677195100129	0.1522633744855967	-0.4288702928870293	0.6906318082788672
8260.772705078125	0.1864207591131395	-9.640752371514335	-2.086234017045192	-0.3384873869501842	0.7361140351079124	0.007361140351079124	0.1790123456790124	-0.4184100418410042	0.6993464052287582
8280.303955078125	-0.05978668266016758	-10.0190723064208	-2.026804007400167	-0.6920486791741509	0.3523728679829845	0.3808822192458676	0.1481481481481482	-0.4121338912133891	0.69281045751634
8299.835205078125	0.03404257004590707	-9.727056126722427	-1.930456825080107	-0.3384676622400399	-0.0101540298672012	0.7546154408334035	0.1625514403292181	-0.4163179916317991	0.6949891067538128
8319.366455078125	0.08472045035050502	-9.709773146767684	-2.121005089198516	0.02265523850849842	0.0006796571552549525	1.132082268269666	0.1502057613168724	-0.4184100418410042	0.6753812636165578
8338.897705078125	0.4390068885482006	-9.63466468053349	-1.982393670191698	-0.6995905629885782	-0.02098771688965735	0.3771486133971412	0.1604938271604938	-0.4267782426778242	0.6949891067538128
8358.428955078125	0.002623011748758604	-9.838708926134242	-2.04746477174478	-0.669432890085941	1.845588655088467	0.01845588655088467	0.1563786008230453	-0.4142259414225941	0.6906318082788672
8377.960205078125	-0.03726778325932671	-9.787384386538735	-2.045297452715086	0.007551746169499472	0.0002265523850849842	0.3773607560898886	0.154320987654321	-0.4330543933054393	0.6884531590413944
8397.491455078125	0.06270675352068852	-9.890940809547311	-2.099980579002765	2.958706521632559e-05	-1.11940209746267	1.120881450723487	0.1625514403292181	-0.4163179916317991	0.69281045751634
8417.022705078125	0.06322913297912774	-9.838702863703391	-1.925646286198813	-1.0682356228414	-1.151450053759869	0.7432024805944768	0.1460905349794239	-0.4393305439330544	0.69281045751634
8436.553955078125	0.3388262291192073	-9.551720522422707	-1.969147258779438	0.02264537615342631	0.3738136896428118	0.7584551180285036	0.1481481481481482	-0.4330543933054393	0.69281045751634
8456.085205078125	-0.006657559480959311	-9.756665039005025	-1.942445282090516	0.03017739761278156	1.12030830700301	0.3885615736360679	0.1584362139917695	-0.4288702928870293	0.6862745098039217
8475.616455078125	0.2271390759325628	-9.609324729976047	-1.892336259880891	-0.353581016934111	0.3625268978501856	-0.3737332215875359	0.1419753086419753	-0.4393305439330544	0.6884531590413944
8495.147705078125	0.2881311719271946	-9.570721191118933	-1.95040222258415	0.07543856285441786	2.987337783751304	0.7845903589695886	0.168724279835391	-0.4309623430962343	0.6819172113289761
8514.678955078125	-0.07978866285216497	-9.999068305418518	-2.086609887758034	-0.6920684038842951	1.098640932958098	-0.3663720812364568	0.1440329218106996	-0.4267782426778242	0.6906318082788672
8534.210205078125	0.134734494476777	-9.758873784645544	-1.880535738226903	0.4063742036351026	2.250997196258307	0.3998684625286208	0.1522633744855967	-0.4184100418410042	0.6753812636165578
8553.741455078125	-0.03767901815214056	-9.828507875820119	-2.118064810235154	-0.3233740322561131	0.3634331073905256	1.135709802772018	0.1460905349794239	-0.4288702928870293	0.6906318082788672
8573.272705078125	0.1853204279134484	-9.750785491483445	-1.980635565244533	-0.338477524595112	0.3629800026203556	0.3809882905922413	0.1419753086419753	-0.4309623430962343	0.6993464052287582
8592.803955078125	0.2869055504898894	-9.693283334849449	-2.08785571729818	-1.075807093721043	-0.4054085411698403	-0.3814125759777361	0.1481481481481482	-0.4267782426778242	0.7080610021786493
8612.335205078125	-0.06856407212914523	-9.886710243217554	-1.939465597326614	-0.6996004253436504	0.3521463155978994	0.003521463155978994	0.1460905349794239	-0.4309623430962343	0.6906318082788672
8631.866455078125	0.124935585409188	-9.728663681303427	-1.909426252453504	0.01510349233899894	0.0004531047701699683	0.7547215121797772	0.1584362139917695	-0.4184100418410042	0.69281045751634
8651.397705078125	0.1449001806109296	-9.75240618133129	-2.223545044634193	-1.053161717567617	-0.03159485152702852	0.3770425420507675	0.154320987654321	-0.4184100418410042	0.7037037037037037
8670.928955078125	0.1352306034015229	-9.709262892170949	-1.968959323423017	-0.3535612922239668	-0.383741167124928	0.3735210788947885	0.1460905349794239	-0.4288702928870293	0.6884531590413944
8690.460205078125	-0.007374947131813942	-9.828403804090488	-2.047049495231398	0.3988619068858915	0.7582345139229947	1.517016307403381	0.1625514403292181	-0.4288702928870293	0.6884531590413944
8709.991455078125	0.1423822509969441	-10.00419914272984	-2.155351791192179	-0.3309257784256125	0.3632065550054406	0.75834904668213	0.1646090534979424	-0.4246861924686192	0.7102396514161221
8729.522705078125	0.1645121444180962	-9.811411820816655	-2.024279004950187	-0.692058541529223	0.7255069004705412	0.007255069004705413	0.1502057613168724	-0.4225941422594142	0.6819172113289761
8749.053955078125	0.1447364949779177	-9.768774744632481	-1.840526725817198	-0.3384676622400399	-0.0101540298672012	0.7546154408334035	0.1728395061728395	-0.4163179916317991	0.6971677559912854
8768.585205078125	0.3248856693743605	-9.93567548680638	-2.008686432798091	0.3762066683773931	0.7575548567677397	0.3849340391337152	0.1604938271604938	-0.4225941422594142	0.69281045751634
8788.116455078125	0.1253346954402972	-9.688752678192502	-1.957931761702697	-0.3233838946111852	0.7365671398780824	0.7620826525308564	0.1666666666666667	-0.4225941422594142	0.69281045751634
8807.647705078125	0.1654093841842355	-9.721687844202723	-2.140995954933951	-0.3309159160705404	-0.009927477482116214	1.131976196923292	0.1625514403292181	-0.403765690376569	0.69281045751634
8827.178955078125	0.06230461227415311	-9.931154934200853	-2.081793286445887	-0.6844870706495794	-0.02053461211948738	1.131870125576918	0.154320987654321	-0.4205020920502092	0.6971677559912854
8846.710205078125	0.1661267718350901	-9.649949079117262	-2.036391741793068	-0.7071324468030056	-0.3943483017622991	0.3734150075484148	0.1584362139917695	-0.4435146443514644	0.6840958605664489
8866.241455078125	0.1025904756927795	-9.942972632742256	-2.172890403647862	1.972471014421648e-05	-0.7462680649751136	0.7472543004823244	0.1481481481481482	-0.4121338912133891	0.6862745098039217
8885.772705078125	0.09522563261238602	-9.669355930680592	-2.098677156369522	-0.7071423091580777	-0.02121426927474233	-0.0002121426927474233	0.1481481481481482	-0.4246861924686192	0.701525054466231
8905.303955078125	-0.01727186549818162	-9.807994630626245	-2.04612800574185	-0.7071423091580777	-0.02121426927474233	-0.0002121426927474233	0.1646090534979424	-0.4330543933054393	0.6862745098039217
8924.835205078125	0.1747101635167943	-9.801710921047844	-2.04389399997278	0.03018725996785367	0.7471742745154536	0.76218872387723	0.1460905349794239	-0.4309623430962343	0.6949891067538128
8944.366455078125	0.2354052003996638	-9.792813293366962	-2.042842168219907	-0.3384676622400399	-0.0101540298672012	0.7546154408334035	0.1563786008230453	-0.4267782426778242	0.7080610021786493
8963.897705078125	0.2555840014915197	-9.79513520438339	-2.234675667679002	-1.060713463737117	-0.0318214039121135	-0.000318214039121135	0.1440329218106996	-0.4309623430962343	0.6797385620915033
8983.428955078125	-0.006136190427662154	-9.704528133675309	-1.778217061517335	-0.676945186835152	0.3528259727531544	1.135603731425645	0.1522633744855967	-0.4205020920502092	0.6949891067538128
9002.960205078125	0.1441403559441089	-9.828388648013357	-1.742503281366479	0.02265523850849842	0.0006796571552549525	1.132082268269666	0.1502057613168724	-0.4288702928870293	0.6993464052287582
9022.491455078125	0.0736312539165198	-9.808591780065196	-1.924036710807529	-0.7071423091580777	-0.02121426927474233	-0.0002121426927474233	0.1502057613168724	-0.4246861924686192	0.69281045751634
9042.022705078125	0.02312312167578604	-9.808899953633521	-2.055870332121484	-0.3686450598528215	-1.130462336870211	0.3660538671973356	0.1769547325102881	-0.4121338912133891	0.69281045751634
9061.553955078125	0.3757737139485047	-9.89737607989702	-2.117373693117993	-0.6995905629885782	-0.02098771688965735	0.3771486133971412	0.1563786008230453	-0.4288702928870293	0.701525054466231
9081.085205078125	0.2335945543851124	-9.973877894822101	-1.971105423944729	0.0452710275967084	1.493895444260737	0.7696559355746829	0.1728395061728395	-0.4184100418410042	0.69281045751634
9100.616455078125	0.01454377161464996	-9.656733949646117	-2.007943785018685	-0.3384873869501842	0.7361140351079124	0.007361140351079124	0.1666666666666667	-0.4121338912133891	0.69281045751634
9120.147705078125	0.07242179896148743	-9.929537275568434	-1.899793049829211	-0.3384577998849678	-0.383288062354758	1.128242591074566	0.1440329218106996	-0.4372384937238493	0.7037037037037037
9139.678955078125	0.3772165724913503	-9.753090225612457	-1.827316688990053	-0.3384676622400399	-0.0101540298672012	0.7546154408334035	0.1666666666666667	-0.4225941422594142	0.6819172113289761
9159.210205078125	0.3767032866791895	-9.804418806828535	-1.910696331717059	-0.3384873869501842	0.7361140351079124	0.007361140351079124	0.1625514403292181	-0.397489539748954	0.6884531590413944
9178.741455078125	-0.02959880823117658	-10.03058789382473	-2.107885988834155	-0.3233838946111852	0.7365671398780824	0.7620826525308564	0.1440329218106996	-0.4288702928870293	0.6949891067538128
9198.272705078125	0.1041283123189777	-9.789188970122433	-1.942963619928387	-0.3459996836993952	-0.7566486472273998	1.124508985225839	0.1666666666666667	-0.4184100418410042	0.69281045751634
9217.803955078125	0.4204124027190771	-9.473911243243814	-2.105855074498637	-1.083339115180399	-1.151903158530039	-0.01151903158530039	0.1378600823045268	-0.4267782426778242	0.701525054466231
9237.335205078125	0.02513584871874719	-9.607627249337405	-2.126594650444329	0.0678966790399905	2.613977198878663	0.7808567531208621	0.1584362139917695	-0.4079497907949791	0.6906318082788672
9256.866455078125	0.1129107538136656	-9.921045830754656	-1.979771668848081	-0.3158420107967578	1.109927724750724	0.7658162583795828	0.1502057613168724	-0.4225941422594142	0.6949891067538128
9276.397705078125	-0.1372423200393419	-9.683827963530156	-1.990614326427407	0.03019712232292578	0.3740402420278968	1.135815874118392	0.1522633744855967	-0.4246861924686192	0.6797385620915033
9295.928955078125	0.3280189357198537	-9.622348852257057	-1.982887758306159	-0.7222162144318603	-1.141069471507583	0.3659477958509619	0.1522633744855967	-0.4330543933054393	0.6840958605664489
9315.460205078125	0.05275224206122407	-9.876290945392746	-1.665004196566197	0.03772914378228104	1.120534859388095	0.7659223297259565	0.1481481481481482	-0.4246861924686192	0.6906318082788672
9334.991455078125	-0.08796587166676564	-9.806688176777577	-2.056870633212112	0.05281291141113576	1.867256029133379	0.7733895414234093	0.1584362139917695	-0.4246861924686192	0.6862745098039217
9354.522705078125	0.1357044834131438	-9.661874891008864	-2.27971649769611	-0.3611031760383941	-0.7571017519975698	0.3697874730460621	0.1831275720164609	-0.4393305439330544	0.6949891067538128
9374.053955078125	0.355477705860171	-9.906774868528361	-2.087743562327412	-0.3535612922239668	-0.383741167124928	0.3735210788947885	0.1625514403292181	-0.4205020920502092	0.6884531590413944
9393.585205078125	0.0635019423674809	-9.811421924868075	-2.227309814193466	-0.3535711545790389	-0.01060713463737117	-0.0001060713463737117	0.1378600823045268	-0.4351464435146443	0.7058823529411765
9413.116455078125	0.1746121542180156	-9.811511850925717	-2.014081996256631	0.03019712232292578	0.3740402420278968	1.135815874118392	0.1584362139917695	-0.4142259414225941	0.6862745098039217
9432.647705078125	0.3772165724913503	-9.753090225612457	-1.827316688990053	-0.3158420107967578	1.109927724750724	0.7658162583795828	0.154320987654321	-0.4163179916317991	0.6862745098039217
9452.178955078125	0.3477299192309411	-9.671452521350343	-1.803327650107531	0.03772914378228104	1.120534859388095	0.7659223297259565	0.1440329218106996	-0.4267782426778242	0.6906318082788672
9471.710205078125	0.1559388567878124	-9.658639573744024	-1.915716024462758	0.3837682769019647	0.3846473766652679	1.135921945464766	0.1604938271604938	-0.4121338912133891	0.6775599128540306
9491.241455078125	0.07512766393189403	-9.658950778527773	-2.108458888549696	-0.3384873869501842	0.7361140351079124	0.007361140351079124	0.1584362139917695	-0.4184100418410042	0.6906318082788672
9510.772705078125	0.1854093435659487	-9.741893926233415	-2.101402219037627	-0.7297482358912155	-1.887564088867781	0.7358413402433978	0.1563786008230453	-0.4100418410041841	0.6840958605664489
9530.303955078125	0.06342616198182725	-9.81899996343344	-1.975164221400339	-1.053161717567617	-0.03159485152702852	0.3770425420507675	0.1419753086419753	-0.4225941422594142	0.6949891067538128
9549.835205078125	-0.01815698040261633	-9.896506121069718	-1.808138188988825	0.02266510086357052	-0.3724543753323019	1.505709418510828	0.154320987654321	-0.4225941422594142	0.6993464052287582
9569.366455078125	0.3383190057378989	-9.602442860553554	-1.991890468121814	-0.3233740322561131	0.3634331073905256	1.135709802772018	0.1502057613168724	-0.4309623430962343	0.6819172113289761
9588.897705078125	0.2758395933741714	-9.789778036320248	-1.658447677599443	0.02264537615342631	0.3738136896428118	0.7584551180285036	0.1810699588477366	-0.4267782426778242	0.6906318082788672
9608.428955078125	0.2958961354438393	-9.804325849555466	-2.063014906880911	-0.3083099893374026	1.856422342110923	0.395922713987147	0.1707818930041153	-0.4330543933054393	0.6884531590413944
9627.960205078125	0.2268278711488118	-9.640445208351151	-1.974703476655564	0.4667092741505214	5.237881875239441	0.4297373093184322	0.1481481481481482	-0.4163179916317991	0.673202614379085
9647.491455078125	-0.2897336744824839	-9.781448256329199	-1.95661621420775	0.06033507051541891	2.986884678981134	0.02986884678981134	0.1460905349794239	-0.4121338912133891	0.701525054466231
9667.022705078125	-0.1173302659049869	-9.712824570296672	-1.820147864507217	0.03016753525770946	1.493442339490567	0.01493442339490567	0.1625514403292181	-0.4225941422594142	0.69281045751634
9686.553955078125	-0.3704084626442257	-9.768118991695291	-1.79514033724151	1.865949574258111	3.041053114093415	1.917202983971123	0.1584362139917695	-0.4309623430962343	0.69281045751634
9706.085205078125	0.0278689946279891	-9.334312658413213	-1.052295528832967	12.44305474934258	-3.358051641101812	7.136230804343699	0.154320987654321	-0.4414225941422594	0.6971677559912854
9725.616455078125	0.1974169982740563	-9.55122946552367	-1.19275902046516	7.568290038633936	7.316600939964989	0.07316600939964987	0.1563786008230453	-0.4309623430962343	0.6840958605664489
9745.147705078125	0.3003833446796779	-10.36570593607262	0.3938094457340751	10.72027275694265	5.545488779723205	0.4328133783632698	0.1790123456790124	-0.4267782426778242	0.6557734204793029
9764.678955078125	0.01250275322771145	-9.860835788339967	-0.1999874689554283	14.83485541291542	1.56444864746209	-1.871147966355568	0.1666666666666667	-0.4309623430962343	0.6797385620915033
9784.210205078125	0.4431242895020492	-10.23302559524963	-0.1940887237361476	18.86752266695461	5.416771948665356	1.563601681750805	0.1748971193415638	-0.4414225941422594	0.6644880174291939
9803.741455078125	-0.2442816095725621	-10.28674681584208	0.1296844895768172	23.74963201437624	2.578160602222332	1.157857077720337	0.1851851851851852	-0.4456066945606694	0.6405228758169935
9823.272705078125	0.320296409219175	-10.39460150232493	-0.4357190302159738	27.22499862729613	0.07048130210246623	0.7554217941531002	0.1790123456790124	-0.4707112970711297	0.6230936819172114
9842.803955078125	0.4201284788741614	-10.51240463783639	0.1048436791595483	33.04804868212308	8.827262355986081	0.4656311141258986	0.1893004115226338	-0.50836820083682	0.6013071895424837
9862.335205078125	0.8587746527866507	-10.08213068093092	0.5751882831883913	39.96199946065502	18.36303908829726	0.9383473720150481	0.1934156378600823	-0.5188284518828451	0.5860566448801744
9881.866455078125	0.5184489824366428	-9.771263372497346	0.678237482815661	46.20654693616621	28.62500237823424	2.550400967178569	0.220164609053498	-0.5355648535564853	0.5686274509803922
9901.397705078125	-0.5034282995949457	-9.938789555454173	1.073783814988918	50.39658787970354	26.88503196474932	1.778284281911644	0.1975308641975309	-0.5397489539748953	0.5468409586056645
9920.928955078125	-0.7786111296267855	-10.18434528591086	1.220370361781927	55.86521870702776	16.22819536718098	3.181149878200112	0.2283950617283951	-0.5794979079497907	0.5315904139433552
9940.460205078125	-0.6010768837379648	-10.61273887884698	1.160321984189969	61.65725315367332	4.088523564759454	4.569187122440048	0.2139917695473251	-0.6276150627615062	0.5294117647058824
9959.991455078125	-0.3134781953206299	-11.14579933004279	0.9547267666961696	67.02126402878011	3.130040905938031	8.710545692078249	0.2325102880658436	-0.6485355648535565	0.4901960784313726
9979.522705078125	0.08049392564131501	-11.14252662778769	1.059840224028645	73.25076718608274	11.1527468961795	11.80964067650897	0.2489711934156379	-0.6799163179916318	0.5054466230936819
9999.053955078125	-0.3520221202743642	-10.95978778501218	1.296975238031496	75.98232739079756	18.69738026948512	17.16810587816655	0.2489711934156379	-0.6736401673640167	0.4923747276688454
10018.58520507812	-0.4287805781055249	-10.55482548732017	1.235647687529704	77.2684492960438	10.52700870276191	18.97319461532951	0.2427983539094651	-0.7238493723849372	0.4945533769063181
10038.11645507812	-0.2148515390001078	-10.37404278889966	1.559957425973097	78.08028059390483	-1.762069194123153	18.85030383636066	0.2407407407407408	-0.7489539748953974	0.5098039215686275
10057.64770507812	0.01711929432173227	-10.4092826890389	1.530212108996323	80.4496627154909	-5.795465342415871	17.67789440317962	0.2633744855967078	-0.7845188284518828	0.5206971677559913
10077.17895507812	-0.3862091782555843	-10.33808954273014	1.782263734111241	81.8337600738392	-6.500211078381839	16.91612996468788	0.2695473251028807	-0.7949790794979079	0.5315904139433552
10096.71020507812	-0.4196162034671426	-10.64848903358295	1.988631911538707	83.94015254545994	-9.048959602740679	18.77743493227448	0.257201646090535	-0.809623430962343	0.5381263616557734
10116.24145507812	-0.8219474061692571	-10.47756889975398	2.114366727415256	85.30922531030983	-12.73923070337727	20.24996618353227	0.2592592592592593	-0.8493723849372384	0.542483660130719
10135.77270507812	-1.107323203274085	-10.73232032740845	2.331098630384716	84.48896460629039	-18.7339877782292	20.56737710334978	0.2551440329218107	-0.8493723849372384	0.5620915032679739
10155.30395507812	-0.8817098391060154	-10.39320613282376	2.350310473755631	84.78978202358874	-22.82944086765055	22.03585653471972	0.271604938271605	-0.8744769874476986	0.5708061002178649
10174.83520507812	-0.8111168734516363	-10.40461663809292	2.360546888249727	84.47396959985718	-22.83891524036249	23.92255424382279	0.2633744855967078	-0.8807531380753137	0.5882352941176471
10194.36645507812	-0.5788146272432043	-10.40671524957295	2.615290232663062	85.65539265404543	-18.32586060843834	25.47711875240618	0.2654320987654321	-0.8744769874476986	0.6143790849673203
10213.89770507812	-0.7184465554434917	-10.22849392818754	2.986441343086694	86.91220495931275	-8.959798030325096	25.94813786875336	0.257201646090535	-0.8912133891213389	0.6405228758169935
10233.42895507812	-0.4944437770718482	-10.05043831324542	3.058190212223577	88.16145565605547	0.7791720278906193	25.66816907876947	0.2427983539094651	-0.8849372384937237	0.6644880174291939
10252.96020507812	-1.389381840297566	-9.645254736827303	3.402833343745559	88.590475235844	3.403982913791738	26.8264926593266	0.2510288065843622	-0.907949790794979	0.6949891067538128
10272.49145507812	-1.503196906713365	-9.915650267296114	3.40837743675998	88.3793123513951	-7.423247495129789	27.09557884580342	0.2325102880658436	-0.8870292887029287	0.7167755991285404
10292.02270507812	-1.085963238571174	-9.606424867218369	3.852253467687714	87.21300265190094	-12.30898305477133	26.66936299964097	0.2325102880658436	-0.8744769874476986	0.7625272331154684
10311.55395507812	-0.5278144276982928	-9.347099335485842	3.628376989958827	88.01818945064657	-7.434081182152244	26.71811201836716	0.2366255144032922	-0.8661087866108785	0.7777777777777779
10331.08520507812	-0.6686537900433284	-9.289621428575257	4.04398390582232	86.37851611553141	-0.02058481504152022	25.66017151034015	0.220164609053498	-0.8786610878661087	0.8169934640522877
10350.61645507812	-1.163995817286458	-9.328874657938707	4.178481965495857	85.00946307539168	2.92341822061996	24.93489455956469	0.2325102880658436	-0.8577405857740585	0.8300653594771242
10370.14770507812	-1.32365296499701	-9.132973267377725	4.257387534253872	82.42885889522628	-1.63161184508351	24.13462727777558	0.2222222222222222	-0.8535564853556484	0.8562091503267975
10389.67895507812	-1.18061698187316	-8.970789096406909	4.600260435966985	80.64591935470223	-2.431368688015649	24.12662970934626	0.2078189300411523	-0.8221757322175731	0.8823529411764707
10409.21020507812	-1.287541085220187	-8.552088319998463	4.842348455976158	79.60031924565919	-2.83587101964515	25.25466015772808	0.2037037037037037	-0.8200836820083681	0.89760348583878
10428.74145507812	-1.458291470985292	-8.455409724791812	5.077798114202072	79.65315188178047	-1.714883055486885	26.77530399963381	0.2098765432098766	-0.805439330543933	0.9193899782135078
10448.27270507812	-1.274460380251223	-8.254118833203139	5.37252925251713	75.7487854137822	-2.578282706243251	26.76667000312625	0.1975308641975309	-0.7803347280334727	0.9368191721132898
10467.80395507812	-1.128828666317451	-7.832361581239996	5.415275452456645	74.31939730312703	-2.621164349562906	26.01152420556098	0.1748971193415638	-0.7740585774058577	0.9716775599128541
10487.33520507812	-1.33169680033286	-7.917154780760729	5.621128323261666	72.24321181618429	-0.07150961566372495	25.65966226233393	0.1625514403292181	-0.7740585774058577	0.9956427015250545
10506.86645507812	-1.328541305074242	-7.601605254898898	5.869260586830577	71.54360152848558	0.6537707324217316	25.28955657524875	0.1666666666666667	-0.7384937238493723	1.019607843137255
10526.39770507812	-1.534743776058412	-7.009731141194713	6.058408429422106	71.86699528545182	-0.455930439943908	24.90110107295905	0.1522633744855967	-0.7175732217573221	1.030501089324619
10545.92895507812	-1.879870891643435	-7.17900835626271	6.622250873270431	70.41499138570848	-1.992027870369045	24.50838160808877	0.1440329218106996	-0.6945606694560669	1.03921568627451
10565.46020507812	-1.615270034664273	-6.981548920972689	6.695375914210785	69.61735633313234	-6.866703190603046	24.83699334545246	0.1481481481481482	-0.6506276150627615	1.054466230936819
10584.99145507812	-1.442559462923593	-6.88220891862188	6.873787191762903	69.60980458696284	-6.86692974298813	24.45963258936257	0.1728395061728395	-0.6422594142259413	1.082788671023965
10604.52270507812	-1.328507961704554	-6.588169907829127	7.212861980547055	68.26338706062144	-3.175978985196282	24.11918360637445	0.1419753086419753	-0.6317991631799162	1.074074074074074
10624.05395507812	-1.770540003248048	-6.346929617734131	7.22050367463637	67.90981590604241	-3.186586119833653	24.11907753502808	0.1502057613168724	-0.606694560669456	1.106753812636166
10643.58520507812	-1.586631111318042	-6.137858606551685	7.283301364619843	66.79625994382894	-3.966261455416475	22.22448832884206	0.1378600823045268	-0.5836820083682008	1.115468409586057
10663.11645507812	-1.564109180701775	-5.905867565127003	7.295126135997239	67.85697340756606	-3.934440051504362	22.22480654288119	0.1131687242798354	-0.5523012552301255	1.148148148148148
10682.64770507812	-1.734448331574067	-5.768065480638967	7.603343151743221	67.1271659975444	-3.583199945446802	20.71888498167761	0.1337448559670782	-0.5543933054393305	1.156862745098039
10702.17895507812	-1.993889049492787	-5.449511009884684	7.626777478202758	65.69025572778497	-4.745710238614212	20.70725987874593	0.1296296296296297	-0.502092050209205	1.172113289760349
10721.71020507812	-1.903287030810416	-5.480218232556687	7.767562278670123	65.66008819252727	-6.239152578104779	20.69232545535103	0.1358024691358025	-0.50836820083682	1.22004357298475
10741.24145507812	-1.849364739594699	-5.138494161490084	7.70437962432753	63.87714865200321	-7.038909421036919	20.68432788692171	0.1234567901234568	-0.4748953974895397	1.200435729847495
10760.77270507812	-1.585744986008465	-5.039145065492998	8.0655186301986	64.20807443042882	-7.40211597604236	19.92597884023958	0.1296296296296297	-0.4435146443514644	1.215686274509804
10780.30395507812	-2.129581408044225	-4.877332723614455	8.00756482246611	63.2001541533927	-4.820413285845981	19.95179586714154	0.1255144032921811	-0.4330543933054393	1.230936819172114
10799.83520507812	-1.743469228682278	-4.649953171258085	8.285421184503809	62.07911548149524	-8.212253401226784	20.29523595655377	0.1358024691358025	-0.3933054393305439	1.230936819172114
10819.36645507812	-1.851444153377035	-4.33633452962271	8.118204185520449	61.35687954235323	-8.607054807759255	19.91392945192241	0.1234567901234568	-0.3744769874476987	1.237472766884532
10838.89770507812	-1.657415043544268	-4.125342738265228	8.393320328812914	59.93505304022265	-9.022843931181383	19.90977156068819	0.1296296296296297	-0.3326359832635983	1.259259259259259
10858.42895507812	-1.88908073451321	-4.059588602836121	8.44479642917973	58.22754220019795	-6.462128957874659	20.31273720098729	0.1213991769547325	-0.3305439330543933	1.276688453159041
10877.96020507812	-1.977744796133131	-3.835085673919164	8.495538975413419	57.18191250408969	-5.747229192041488	20.31988619864562	0.1213991769547325	-0.297071129707113	1.272331154684096
10897.49145507812	-1.943349594692649	-3.425868560173987	8.071899338670638	56.39935135678734	-9.502049310042649	20.28233799746561	0.1152263374485597	-0.2740585774058577	1.287581699346405
10917.02270507812	-1.699923798275402	-3.325713160873545	8.473280760539227	55.30090874926793	-10.65440557334286	19.51609745370054	0.1275720164609054	-0.2468619246861924	1.28322440087146
10936.55395507812	-1.627397927584284	-3.143833162468773	8.624514160580517	53.54059486018716	-10.33408066165707	19.51930070281739	0.1193415637860082	-0.2238493723849372	1.298474945533769
10956.08520507812	-1.654884989068579	-2.862236280595207	8.446399942140161	52.54021646696547	-7.379017386588052	19.54885133556808	0.1296296296296297	-0.2238493723849372	1.305010893246187
10975.61645507812	-1.64278336668226	-2.66217505206441	8.274705837972382	51.83305443309724	-6.653963590887679	18.80138489239301	0.117283950617284	-0.202928870292887	1.294117647058824
10995.14770507812	-1.500774965587875	-2.602749084039953	8.440713382000711	50.43382399534472	-4.830268862229211	17.68754636798148	0.1419753086419753	-0.1589958158995816	1.305010893246187
11014.67895507812	-1.579051051942392	-2.349549638683668	8.351580492394879	47.9738800938551	-3.038395537482855	16.57338962953083	0.1419753086419753	-0.1443514644351464	1.30718954248366
11034.21020507812	-1.446366669498832	-2.212424525640804	8.188046420154286	46.63502417603829	0.2796477402065217	16.98392855287376	0.1337448559670782	-0.1087866108786611	1.315904139433551
11053.74145507812	-1.673841199938555	-1.727554337289868	8.745368719620972	45.25845883914934	1.730888093532689	17.37579944697307	0.1255144032921811	-0.100418410041841	1.313725490196079
11073.27270507812	-1.681722360046536	-1.505569337986896	8.705884107479989	43.07666725409447	-0.2002372958100016	16.22441272138152	0.1275720164609054	-0.0711297071129707	1.326797385620915
11092.80395507812	-1.681997190245173	-1.533052357850623	8.9873354910131	41.9329733436885	-3.592757068346061	15.43577054252409	0.1275720164609054	-0.06276150627615062	1.315904139433551
11112.33520507812	-1.621319330249718	-1.525872418911224	8.816584094842852	41.58690462350361	-1.737467488160563	13.94488947606179	0.1378600823045268	-0.0397489539748954	1.337690631808279
11131.86645507812	-1.417006316881179	-1.296591284077518	8.921000372627313	41.67741709163181	2.369725497823581	14.36331989648767	0.139917695473251	-0.0104602510460251	1.328976034858388
11151.39770507812	-1.646773456588211	-1.040982022457447	8.769867002695085	41.3087325823587	2.731799290903597	13.23486516272036	0.1358024691358025	-0.01255230125523012	1.315904139433551
11170.92895507812	-1.636981620356617	-1.071899409398997	8.728015011306283	40.72229986365175	7.191818249640896	14.78889931457188	0.1275720164609054	0.02092050209205021	1.328976034858388
11190.46020507812	-1.765660756817095	-0.8084999241337301	8.54797900228575	40.08306409588874	9.41144714675726	15.94317107524116	0.1275720164609054	0.0397489539748954	1.339869281045752
11209.99145507812	-2.026597884751189	-0.6395864549168695	8.755835506487454	37.90128237318893	7.107187724927011	15.16541149989078	0.1337448559670782	0.06276150627615062	1.337690631808279
11229.52270507812	-2.24635797193137	-0.3933729507127101	8.695241510118789	34.33540329214083	5.507674039062732	15.14941636303214	0.1234567901234568	0.06485355648535564	1.342047930283224
11249.05395507812	-2.103266416524708	-0.2256315514606261	8.583847374423339	30.31790856692615	-0.9561343847832603	15.08477827879368	0.1111111111111111	0.100418410041841	1.355119825708061
11268.58520507812	-1.772315285082628	-0.4638517405860377	8.65605395708957	27.61658493395455	-9.619263646011214	12.35663755221913	0.1111111111111111	0.1087866108786611	1.326797385620915
11288.11645507812	-1.617079670273682	-0.09180541120655097	8.797420750918755	25.08123205667571	-11.93413020247883	11.57877190552238	0.1193415637860082	0.102510460251046	1.339869281045752
11307.64770507812	-1.361595698891225	0.2040664745138792	8.592546962696378	24.40426714513042	-10.83503616475056	11.9671213364657	0.1234567901234568	0.1506276150627615	1.344226579520697
11327.17895507812	-1.31482505527093	-0.1693742139616348	8.715756776122948	23.78009542028611	-7.122418032913805	12.38160600835011	0.1440329218106996	0.1276150627615063	1.350762527233116
11346.71020507812	-1.514872138129739	0.02793770217764841	8.854935032414454	23.56231762378705	-1.905070769793851	13.94321344324546	0.1296296296296297	0.1359832635983264	1.328976034858388
11366.24145507812	-1.674011958407562	0.2755718360115284	9.057644532822563	21.7567622941748	-4.198043399831473	14.29764220751112	0.1316872427983539	0.1694560669456067	1.331154684095861
11385.77270507812	-1.624044392917824	0.2218233344802442	8.833234561178674	19.8757388146429	-8.358951716157728	12.74659916208371	0.139917695473251	0.1673640167364017	1.34640522875817
11405.30395507812	-1.54324532492361	0.2209220530935367	8.904704558496352	16.58043071679485	-12.56228857103347	11.1951318312708	0.139917695473251	0.1631799163179916	1.331154684095861
11424.83520507812	-1.128591221109069	0.2721910204062333	8.80030343678902	15.17366825758298	-11.4850884597352	10.45118685125171	0.1481481481481482	0.1945606694560669	1.342047930283224
11444.36645507812	-1.056930257219544	0.3675803386516313	8.381547088097761	14.18082188582064	-7.783530567305978	10.11084393960996	0.1502057613168724	0.1799163179916318	1.350762527233116
11463.89770507812	-0.9045389328854654	0.4551976205443901	8.35714883513271	11.75862685282343	-5.617390448146641	10.50986383136759	0.1604938271604938	0.196652719665272	1.324618736383442
11483.42895507812	-1.096176413747003	0.4833687263098517	8.770782429753782	9.313786443672795	-3.825064018630115	10.15042860509672	0.1790123456790124	0.2112970711297071	1.318082788671024
11502.96020507812	-1.196056982848807	0.5963219171394833	8.755229263402224	7.884408195372713	-4.241079694437326	9.768909957772609	0.1748971193415638	0.2092050209205021	1.309368191721133
11522.49145507812	-1.287030830623452	0.5898462305840928	8.935813922414891	5.619655888359143	-10.27917151737908	8.576453567845078	0.1666666666666667	0.2238493723849372	1.328976034858388
11542.02270507812	-1.031121478676193	0.928256172784776	8.945192502943387	4.212883566792199	-8.828837373593249	7.458881437584822	0.1728395061728395	0.1861924686192468	1.344226579520697
11561.55395507812	-1.040906242071793	0.9598808433257604	9.057786999947592	3.189849935062003	-5.874453755679483	6.356349802065847	0.1748971193415638	0.2071129707112971	1.337690631808279
11581.08520507812	-0.9618228420087782	0.7874127688191724	9.140863521131983	1.775545592035704	-5.170614229253855	5.608671216198028	0.1810699588477366	0.2092050209205021	1.318082788671024
11600.61645507812	-1.123409863540643	0.790326777248841	9.109090321035119	1.098551093425191	-2.952118094062916	4.876139196417862	0.1872427983539095	0.2092050209205021	1.326797385620915
11620.14770507812	-1.082520788252213	0.83883026568775	8.990712264997827	-0.676866287994575	-2.6322462871473	4.124620933354943	0.1810699588477366	0.2112970711297071	1.32244008714597
11639.67895507812	-1.194291805065648	0.772839695455403	9.238820278843328	-0.3685760233673167	-3.742400564283109	2.981443918885471	0.1728395061728395	0.2154811715481171	1.320261437908497
11659.21020507812	-1.18609135693278	0.582783498641172	9.441520685605157	-0.353492255738462	-2.995679394537826	2.988911130582924	0.1748971193415638	0.2092050209205021	1.318082788671024
11678.74145507812	-1.045511668709252	0.4993381795799325	9.45895623673635	-1.414215581830651	-2.654366765962382	2.614965766302641	0.1893004115226338	0.2154811715481171	1.302832244008715
11698.27270507812	-1.124181813069168	0.7131318243963152	9.46885921753357	-1.782890228748689	-2.665427005369923	1.86013818277649	0.1975308641975309	0.2217573221757322	1.324618736383442
11717.80395507812	-0.8903043452442823	0.8685553745616826	9.317353008103925	-2.128949086578516	-1.183271457671982	0.7428842665553557	0.1769547325102881	0.2112970711297071	1.313725490196079
11737.33520507812	-1.055313608992266	0.5292451613794339	9.399747505817434	-1.391629379807657	-0.04174888139422971	1.131657982884171	0.2119341563786008	0.2133891213389121	1.313725490196079
11756.86645507812	-0.9231718141099866	0.6121115182942795	9.869858706258464	-2.482530103512627	-0.8207445598217967	0.3691510449678198	0.1831275720164609	0.2112970711297071	1.318082788671024
11776.39770507812	-1.042676471880662	0.7828578624388164	9.533766633453642	-0.3309257784256125	0.3632065550054406	0.75834904668213	0.1831275720164609	0.2196652719665272	1.315904139433551
11795.92895507812	-1.034087017768106	0.6317022635934629	9.586900808658559	-0.669442752441013	2.218722687576024	-0.3551712636902775	0.2119341563786008	0.2175732217573222	1.324618736383442
11815.46020507812	-0.8919260454972705	0.7063853492628556	9.258723239331404	1.557570548435203	7.509413683617235	-0.3022643537298654	0.2139917695473251	0.1924686192468619	1.32244008714597
11834.99145507812	-1.054490128801497	0.6115931804564084	9.555388293088342	1.497245340274856	4.149394972148544	0.04149394972148544	0.1995884773662552	0.2092050209205021	1.30718954248366
11854.52270507812	-1.366526475984423	0.7210897752950913	9.779964981580669	0.04525130288656418	2.240163509235851	0.02240163509235851	0.1810699588477366	0.202928870292887	1.318082788671024
11874.05395507812	-1.407749995374871	0.6391418766543681	9.583536159535537	-0.7599650829242856	-1.515336265920564	-1.147228834357319	0.1769547325102881	0.1841004184100418	1.32244008714597
11893.58520507812	-1.286678199228877	0.6251093700415947	9.432530100651206	-1.098442607519398	-1.152356263300209	-0.7662405437650777	0.1954732510288066	0.2112970711297071	1.331154684095861
11913.11645507812	-1.063688857214709	0.7018213492362213	9.468898623334111	-0.7674971043836409	-2.261830883280763	-0.7773352899648832	0.1790123456790124	0.1882845188284519	1.331154684095861
11932.64770507812	-1.398155188145976	0.5885215894428669	9.591202103348261	-0.4214875583291736	-1.87831626854092	-1.52821712494956	0.1872427983539095	0.200836820083682	1.320261437908497
11952.17895507812	-1.15376849643864	0.7847665177521466	9.502448115670697	-0.4063840659901746	-1.87786316377075	-0.7734956127697831	0.1975308641975309	0.2133891213389121	1.339869281045752
11971.71020507812	-1.294832168725211	0.8198134305092502	9.694709016504879	0.7071521715131499	-0.3519197632128144	0.3738392929339096	0.1995884773662552	0.2175732217573222	1.32244008714597
11991.24145507812	-1.223682469837563	0.8640762485669804	9.212785169548157	0.692058541529223	-0.7255069004705412	-0.007255069004705413	0.1810699588477366	0.2217573221757322	1.328976034858388
12010.77270507812	-1.425635176794276	0.8708257549158662	9.483830390523307	0.7222359391420046	0.3948014065324691	0.3813065046313625	0.1604938271604938	0.205020920502092	1.32244008714597
12030.30395507812	-1.324952346009684	0.8380987323649066	9.442796827299563	0.707162033868222	-0.7250537957003712	0.7474664431750718	0.1954732510288066	0.2112970711297071	1.313725490196079
12049.83520507812	-1.477024382318876	0.7824102529608888	9.630410874885463	1.060723326092188	-0.3413126285754433	0.3739453642802834	0.1790123456790124	0.2092050209205021	1.331154684095861
12069.36645507812	-1.405636227817705	0.8505186323709703	9.513318054188858	1.000378393221698	-2.955063275069021	-0.02955063275069021	0.191358024691358	0.2071129707112971	1.335511982570806
12088.89770507812	-0.829902325852607	0.8481512531231499	9.417946923236016	1.022984319954835	-1.088713455475982	-0.7656041156868354	0.2078189300411523	0.2175732217573222	1.309368191721133
12108.42895507812	-1.083861595875712	0.7047495033378787	9.721368556177834	0.6996201500537946	-1.098414380573013	0.7437328373263454	0.1954732510288066	0.2196652719665272	1.311546840958606
12127.96020507812	-1.256144766241306	0.6481496384957329	9.777421791838133	1.767895222315483	-1.439500456763371	1.495038957696517	0.1831275720164609	0.2071129707112971	1.313725490196079
12147.49145507812	-1.074506254665483	0.6301826142598216	9.35409740149967	1.39168855393809	-2.197055313531111	1.110104918562802	0.2037037037037037	0.196652719665272	1.309368191721133
12167.02270507812	-1.032490577643669	0.7913462760371682	9.392878771661787	1.361511156325308	-3.317363620534121	0.7215433449267343	0.191358024691358	0.2133891213389121	1.315904139433551
12186.55395507812	-1.223344994520118	0.8978237803114093	9.557910264322896	0.2630685488059105	-4.469719883834331	-0.0446971988383433	0.2037037037037037	0.2154811715481171	1.311546840958606
12206.08520507812	-1.143883702933977	0.763144858117445	9.380253759411888	0.6618910062715135	-2.218949239961109	-0.02218949239961108	0.2078189300411523	0.2154811715481171	1.320261437908497
12225.61645507812	-0.9226362993847007	0.6656629908228641	9.165470927961438	0.6543195353918699	-1.47290772737108	-1.146804548971824	0.1995884773662552	0.2175732217573222	1.315904139433551
12245.14770507812	-1.183478449235442	0.8440742683749831	9.313197211754678	1.083329252825327	1.525037191017595	-0.3621081186558618	0.205761316872428	0.2071129707112971	1.311546840958606
12264.67895507812	-1.304735149522431	0.8396163608882639	9.634994072609796	0.7146841929725051	0.3945748541473841	0.003945748541473841	0.1995884773662552	0.2447698744769874	1.342047930283224
12284.21020507812	-1.354872463076032	0.8763900560331288	9.171684919585038	1.429388110655154	0.04288164331965463	0.7551457975652721	0.205761316872428	0.202928870292887	1.30718954248366
12303.74145507812	-1.377159979699344	0.6678404139039792	9.484266885544672	0.2856942002491926	-3.349638129216405	-0.03349638129216405	0.1851851851851852	0.2154811715481171	1.331154684095861
12323.27270507812	-1.142954130203292	0.8561021311859316	9.586931120812821	-0.07542870049934575	-3.360471816238861	-0.4109632087284264	0.2098765432098766	0.2259414225941422	1.320261437908497
12342.80395507812	-1.04054451703094	0.9960533474111063	9.645457828260854	-0.4139358121596741	-1.878089716155835	-1.150856368859672	0.2016460905349794	0.2259414225941422	1.32244008714597
12362.33520507812	-1.175501300638967	0.6316881179214743	9.302657675717969	1.075777506655827	1.524810638632511	-0.7394688747457504	0.2098765432098766	0.2154811715481171	1.320261437908497
12381.86645507812	-1.084533515295174	0.6375575613916357	9.061436583320672	1.136152026591534	3.019159187663418	0.7849085730087098	0.1995884773662552	0.2154811715481171	1.324618736383442
12401.39770507812	-1.214893965912023	0.7328256310199877	9.236613554013093	0.01511335469407105	-0.3726809277173868	1.128348662420939	0.220164609053498	0.2154811715481171	1.318082788671024
12420.92895507812	-1.305143353199818	0.7987959931494938	9.592544931782044	-0.3912509865859594	-2.996812156463251	1.102107350133481	0.1831275720164609	0.2154811715481171	1.318082788671024
12440.46020507812	-1.051147708591599	0.9458352014461405	9.65294189914801	-0.06784736726462995	-4.479647361316447	1.087278998084949	0.2181069958847737	0.2259414225941422	1.309368191721133
12459.99145507812	-0.8988746016591399	1.021630743176929	9.456234205283671	-0.4138963627393857	-3.370625846106063	0.3436522321049771	0.1954732510288066	0.2175732217573222	1.333333333333333
12479.52270507812	-1.100654529336563	1.045658177454849	9.435215757518773	-0.669432890085941	1.845588655088467	0.01845588655088467	0.2119341563786008	0.2405857740585774	1.315904139433551
12499.05395507812	-1.224265473604525	0.8057758718707666	9.442187552998909	-1.023013907020052	2.208115552938652	-0.3552773350366513	0.2037037037037037	0.2280334728033473	1.318082788671024
12518.58520507812	-1.335270603320286	0.8163740114057161	9.269890236961327	-0.3309257784256125	0.3632065550054406	0.75834904668213	0.2016460905349794	0.2175732217573222	1.315904139433551
12538.11645507812	-1.406865890875578	0.7275523265836352	9.335440270551741	-0.3384676622400399	-0.0101540298672012	0.7546154408334035	0.2078189300411523	0.2280334728033473	1.311546840958606
12557.64770507812	-1.133802890831757	0.7611250582384895	9.198435395720781	-0.6844870706495794	-0.02053461211948738	1.131870125576918	0.1954732510288066	0.2238493723849372	1.320261437908497
12577.17895507812	-1.145806503919296	0.5708647595855647	9.34031749617241	-2.452362568254918	0.6726977796687704	0.3840854683627254	0.1851851851851852	0.2196652719665272	1.302832244008715
12596.71020507812	-1.192645855089251	0.937434693095147	9.539995781154371	-3.550795313419244	-0.8527925161189952	-0.008527925161189952	0.2078189300411523	0.2092050209205021	1.318082788671024
12616.24145507812	-1.045108517057574	0.5396533447476783	9.450875016410244	-2.866278655704448	-1.951660001462178	-0.01951660001462178	0.1954732510288066	0.2154811715481171	1.342047930283224
12635.77270507812	-0.9822017033187596	0.7697286580230348	9.351896739100289	-3.565879081048098	-1.599513685864279	-0.01599513685864279	0.2139917695473251	0.2071129707112971	1.337690631808279
12655.30395507812	-1.26717940079762	0.5547871929652847	9.510017060589785	-2.482520241157555	-1.193878592309354	0.742778195208982	0.2160493827160494	0.2112970711297071	1.313725490196079
12674.83520507812	-1.053301892354447	0.7304168251613433	9.318917115263817	-3.174559057976634	-1.214639756813926	1.497287564696012	0.1954732510288066	0.2259414225941422	1.320261437908497
12694.36645507812	-0.9623957417243197	0.7301227972650072	9.471326626890454	-2.08368792133688	0.6837580190763115	1.138913051888876	0.2078189300411523	0.2092050209205021	1.320261437908497
12713.89770507812	-0.9924724715876854	0.7527528412314735	9.653975543608325	-1.699978818565348	3.30720959066692	0.0330720959066692	0.2222222222222222	0.2238493723849372	1.309368191721133
12733.42895507812	-1.083350330873835	0.7558760035255463	9.784536054443299	-1.745249846162057	1.813314146406183	-0.7365838396680137	0.2037037037037037	0.2071129707112971	1.313725490196079
12752.96020507812	-1.153850339255146	0.7765822361015515	9.693957275079194	-1.692456659461065	4.426838240514676	-0.7104485987269288	0.2078189300411523	0.198744769874477	1.298474945533769
12772.49145507812	-1.125067938378745	0.6245192934386383	9.696742962055822	-0.9777527417784155	4.075145029686946	0.04075145029686946	0.1954732510288066	0.2238493723849372	1.309368191721133
12792.02270507812	-1.144548549517445	0.6966601997706362	9.801165302271137	-1.000358668511553	2.208795210093907	0.7768049332330146	0.205761316872428	0.2217573221757322	1.30718954248366
12811.55395507812	-1.46782363309538	0.6923841652094858	9.73711268910124	-1.421806777420439	-1.16205718839724	0.7430964092481032	0.1934156378600823	0.2154811715481171	1.300653594771242
12831.08520507812	-1.115988437772295	0.52236834398265	9.600817118679997	-0.3308961913603962	-0.7561955424572299	1.879230497405616	0.2016460905349794	0.2133891213389121	1.311546840958606
12850.61645507812	-1.204339273798181	0.7781938323031193	9.754139026149902	-0.3309060537154684	-0.383061509969673	1.505603347164454	0.2119341563786008	0.2196652719665272	1.32244008714597
12870.14770507812	-1.124997210018801	0.6315921294329797	9.394067008108836	-1.053132130502401	-1.150996948989699	1.497923992774254	0.2139917695473251	0.2112970711297071	1.324618736383442
12889.67895507812	-1.225993266397428	0.6329965925804274	9.332521210096361	-1.775377931999478	-1.172664323034611	0.7429903379017294	0.1975308641975309	0.200836820083682	1.326797385620915
12909.21020507812	-1.07511653937128	0.5691541436800761	9.310635834719585	-1.015422711430264	0.71580597537351	1.516592022017886	0.2037037037037037	0.200836820083682	1.313725490196079
12928.74145507812	-1.033689928547281	0.6714111856759795	9.518183154947822	-1.030506479059119	-0.03091519437177356	1.509124810320433	0.1975308641975309	0.202928870292887	1.333333333333333
12948.27270507812	-1.285267673650577	0.7661619278716026	9.39919279339445	-0.9927871976319096	1.462753697503879	1.901419989805228	0.1995884773662552	0.202928870292887	1.320261437908497
12967.80395507812	-1.07249756924309	0.8310511564991165	9.242948794253738	-2.091210080441163	-0.4358706307714438	1.882433746522474	0.220164609053498	0.2071129707112971	1.324618736383442
12987.33520507812	-1.223674386596426	0.8648845726806195	9.293633747394331	-1.346328765145732	0.332744465403837	3.022195369182341	0.2078189300411523	0.200836820083682	1.324618736383442
13006.86645507812	-0.9596615854099358	1.003538428703404	9.545630810631577	-2.813416432517952	-1.950074134766584	2.622008692614599	0.2119341563786008	0.202928870292887	1.311546840958606
13026.39770507812	-1.297989684794113	0.5040618236190104	9.426364608474426	-3.197194571774988	-1.961587478944294	1.11245959690867	0.2160493827160494	0.200836820083682	1.318082788671024
13045.92895507812	-1.063878813381414	0.6828257325657044	9.589159064151039	-3.949617770884847	-3.103563159992217	-0.03103563159992217	0.2119341563786008	0.1945606694560669	1.313725490196079
13065.46020507812	-1.135566047804632	0.5848093609509798	9.745157534842232	-3.189642825605489	-1.961360926559209	1.489820352998559	0.1954732510288066	0.202928870292887	1.320261437908497
13084.99145507812	-1.12617534241443	0.5137788898700935	9.731598908241079	-2.422175308287064	1.419872054184224	1.146274192239956	0.1975308641975309	0.205020920502092	1.333333333333333
13104.52270507812	-1.092836014347389	0.817408666271174	9.858224901452914	-2.79084009285003	1.035677782289126	0.7650737589549668	0.2181069958847737	0.196652719665272	1.313725490196079
13124.05395507812	-0.9632182115099475	0.6478758187022376	9.325791911850317	-3.197204434130061	-1.588453446456738	0.7388324466675081	0.2078189300411523	0.198744769874477	1.309368191721133
13143.58520507812	-1.044193089998878	0.6311960506172964	9.516067366580373	-2.098761826610662	-0.4360971831565288	1.505072990432586	0.1954732510288066	0.2196652719665272	1.324618736383442
13163.11645507812	-0.9631878993556861	0.6509070341283839	9.628974078773471	-0.6995708382784341	-0.7672557818647709	1.124402913879466	0.2119341563786008	0.1924686192468619	1.34640522875817
13182.64770507812	-1.075501503730401	0.5306577077680181	9.500626355199584	-1.030506479059119	-0.03091519437177356	1.509124810320433	0.2139917695473251	0.1861924686192468	1.30718954248366
13202.17895507812	-1.166804743581353	0.4912428135818377	9.416934497283684	-1.045600109043046	-0.4045023316295003	1.128030448381818	0.2345679012345679	0.1903765690376569	1.311546840958606
13221.71020507812	-1.217478582265383	0.4743639956839131	9.64790705032518	0.01512321704914316	-0.7458149602049436	1.501975812662102	0.2119341563786008	0.1841004184100418	1.300653594771242
13241.24145507812	-1.064269840171387	0.6437230535684173	9.718513151246405	-0.3384577998849678	-0.383288062354758	1.128242591074566	0.2037037037037037	0.1882845188284519	1.302832244008715
13260.77270507812	-1.224862623043476	0.7460609279756845	9.530104925218856	-0.3384577998849678	-0.383288062354758	1.128242591074566	0.1934156378600823	0.205020920502092	1.328976034858388
13280.30395507812	-0.9822603068169985	0.763868308199152	9.775845559816537	0.3762263930875373	0.01128679179262612	1.132188339616039	0.2181069958847737	0.196652719665272	1.315904139433551
13299.83520507812	-0.9435941228410764	0.5900826653873322	9.646330818303584	0.01511335469407105	-0.3726809277173868	1.128348662420939	0.2078189300411523	0.1903765690376569	1.326797385620915
13319.36645507812	-1.104694129094474	0.6416982016637515	9.435179382933658	0.03020698467799789	0.0009062095403399367	1.509443024359554	0.2078189300411523	0.2071129707112971	1.315904139433551
13338.89770507812	-1.18649046696389	0.5428724955302456	9.49002619485435	-0.3686253351426773	-1.876730401845325	1.11330816767966	0.2037037037037037	0.196652719665272	1.298474945533769
13358.42895507812	-1.096117810248764	0.4892290761337345	9.356934619138544	-0.3535514298688947	-0.7568751996124847	0.7471482291359507	0.2037037037037037	0.1945606694560669	1.320261437908497
13377.96020507812	-1.244363442285017	0.8161810240235848	9.432405820818735	-0.7523738873344976	-3.007645843485706	0.7246405226972185	0.2078189300411523	0.1945606694560669	1.311546840958606
13397.49145507812	-0.9835000739262924	0.6398915972697683	9.496907053871702	-0.3761770813121768	-1.87695695423041	0.7359474115897714	0.2119341563786008	0.1903765690376569	1.328976034858388
13417.02270507812	-1.075305485132843	0.5502595675237641	9.441002347767286	-0.3460194084095394	-0.01038058225228618	0.3772546847435149	0.2181069958847737	0.205020920502092	1.333333333333333
13436.55395507812	-0.9633768451172492	0.632012457972072	9.75934059182117	0.7373492938360756	0.02212047881508227	1.509655167052302	0.2098765432098766	0.202928870292887	1.318082788671024
13456.08520507812	-1.186297479581758	0.5621712337433771	9.400083970729737	0.3611426254586826	-0.7354343779526574	1.124721127918587	0.2078189300411523	0.2133891213389121	1.313725490196079
13475.61645507812	-0.7317293414408647	0.5644395932872766	9.525955191300461	0.3535908792891831	-0.7356609303377424	0.7473603718286981	0.2139917695473251	0.1882845188284519	1.311546840958606
13495.14770507812	-1.215248618116882	0.6973604105340759	9.729786241416244	0.7599650829242856	1.515336265920564	1.147228834357319	0.220164609053498	0.1924686192468619	1.326797385620915
13514.67895507812	-1.181932529368108	0.9986662551084445	9.623972573320328	-1.060713463737117	-0.0318214039121135	-0.000318214039121135	0.2098765432098766	0.196652719665272	1.315904139433551
13534.21020507812	-0.9424190216608737	0.7075927834076039	9.278480701479026	-0.3309257784256125	0.3632065550054406	0.75834904668213	0.2016460905349794	0.2133891213389121	1.305010893246187
13553.74145507812	-1.156185385538421	0.5430776077740815	9.571147582088877	-1.068245485196472	-0.7783160212723121	0.3695753303533146	0.2222222222222222	0.1924686192468619	1.318082788671024
13573.27270507812	-1.225065714477027	0.7257517846205042	9.518986427035751	-0.3686450598528215	-1.130462336870211	0.3660538671973356	0.2283950617283951	0.2133891213389121	1.298474945533769
13592.80395507812	-1.326974166698924	0.6359166634409483	9.422566495545464	-0.3913002983613199	-1.131141994025466	-0.7660284010723302	0.220164609053498	0.196652719665272	1.324618736383442
13612.33520507812	-1.045814790251866	0.4690260253184694	9.45743759780785	-0.6995807006335061	-0.3941217493772142	0.7507757636383033	0.2119341563786008	0.205020920502092	1.302832244008715
13631.86645507812	-0.9835031051417185	0.6395884757271536	9.466588837179387	-0.3158321484416857	0.7367936922631674	1.139443408620745	0.220164609053498	0.2175732217573222	1.313725490196079
13651.39770507812	-0.8331194558248903	0.5264382558948224	9.563445263691039	-0.3384676622400399	-0.0101540298672012	0.7546154408334035	0.2386831275720165	0.2133891213389121	1.302832244008715
13670.92895507812	-1.113553361379957	0.7658759832164029	9.714026952415709	-0.6995807006335061	-0.3941217493772142	0.7507757636383033	0.2283950617283951	0.2112970711297071	1.315904139433551
13690.46020507812	-0.8537185854558385	0.4867273130020218	9.591556755553119	-0.3611031760383941	-0.7571017519975698	0.3697874730460621	0.2098765432098766	0.2071129707112971	1.324618736383442
13709.99145507812	-0.772530511481936	0.5247266295841918	9.513460521313887	0.3535711545790389	0.01060713463737117	0.0001060713463737117	0.2160493827160494	0.1924686192468619	1.313725490196079
13729.52270507812	-1.123967607179054	0.734552413407749	9.591144510255164	0.7448517282302145	1.888017193637951	0.01888017193637951	0.2139917695473251	0.1903765690376569	1.311546840958606
13749.05395507812	-1.155775161050749	0.5841000565412615	9.633808867378173	0.7674971043836409	2.261830883280763	0.7773352899648832	0.2489711934156379	0.1757322175732217	1.344226579520697
13768.58520507812	-0.9748085688943888	0.4989410903591073	9.560653514283558	0.707162033868222	-0.7250537957003712	0.7474664431750718	0.2119341563786008	0.1903765690376569	1.313725490196079
13788.11645507812	-1.086913019404699	0.399607150439151	9.504060722277407	0.3762362554426094	-0.3618472406949307	1.505815489857202	0.2407407407407408	0.1882845188284519	1.328976034858388
13807.64770507812	-1.074296090395936	0.6511990412144361	9.435958405298178	0.7448813152954309	0.7686150961752809	1.139761622659866	0.2160493827160494	0.202928870292887	1.32244008714597
13827.17895507812	-0.931075203131092	0.8318736262847441	9.608040505040504	0.007551746169499472	0.0002265523850849842	0.3773607560898886	0.2283950617283951	0.1924686192468619	1.291938997821351
13846.71020507812	-0.9314955316701844	0.7898407723755155	9.44431849744349	0.3460391331196837	-0.7358874827228274	0.3699996157388095	0.2139917695473251	0.202928870292887	1.324618736383442
13866.24145507812	-0.8807863288061829	0.8102560082706108	9.567058472479006	-0.3309356407806847	0.7363405874929974	0.3847218964409677	0.2407407407407408	0.200836820083682	1.318082788671024
13885.77270507812	-0.8932415929922181	0.5748305997681061	9.231930326179697	-9.862355072108239e-06	0.3731340324875568	-0.3736271502411622	0.2386831275720165	0.198744769874477	1.318082788671024
13905.30395507812	-1.228194939201952	0.4128293121280012	9.533612041466908	0.4063840659901746	1.87786316377075	0.7734956127697831	0.2222222222222222	0.2175732217573222	1.326797385620915
13924.83520507812	-0.8519948342835032	0.6591024302355415	9.660798809532579	0.7523936120446419	2.261377778510593	0.02261377778510593	0.2037037037037037	0.2092050209205021	1.328976034858388
13944.36645507812	-1.012703813746928	0.749820645509248	9.320293287067287	0.7826104590777119	1.889149955563376	1.905683952385823	0.2304526748971193	0.205020920502092	1.309368191721133
13963.89770507812	-1.082803701691987	0.8105389217103846	9.191315070684762	-0.2856547508289042	1.857101999266178	1.528004982256813	0.2139917695473251	0.200836820083682	1.318082788671024
