Time Stamp	Accelerometer X	Accelerometer Y	Accelerometer Z	Gyroscope X	Gyroscope Y	Gyroscope Z	Magnetometer X	Magnetometer Y	Magnetometer Z
1595.733642578125	-3.709480189900797	-7.311655353716016	4.849847682940444	-1.000358668511553	2.208795210093907	0.7768049332330146	0.205761316872428	-0.397489539748954	0.7167755991285404
1615.264892578125	0.2876138444944656	-9.62245393439183	-2.074206154234243	2.189284157093935	4.170156136653117	-0.7130154197655444	0.1893004115226338	-0.3870292887029289	0.7124183006535948
1634.796142578125	-0.04696868302813693	-9.747373353318745	-2.103999970657835	-1.007890689970909	1.462300592733709	1.14669847762545	0.1995884773662552	-0.399581589958159	0.7167755991285404
1654.327392578125	0.01273514641038267	-9.837596470072846	-1.915994896281963	-1.030516341414191	0.3422188381157832	1.135497660079271	0.1954732510288066	-0.3912133891213389	0.6862745098039217
1673.858642578125	0.2282141470037027	-9.50181762286206	-2.250586517450844	-0.7297383735361436	-2.260698121355338	1.10946849048456	0.1893004115226338	-0.3933054393305439	0.69281045751634
1693.389892578125	0.4076772563086945	-9.737324874181068	-2.210062198418694	0.04529075230685262	0.7476273792856235	1.516910236057007	0.1954732510288066	-0.4079497907949791	0.7037037037037037
1712.921142578125	0.2993163568496744	-9.462303708971957	-2.197394749152829	-0.3083001269823305	1.483288309623366	0.7695498642283092	0.1769547325102881	-0.4079497907949791	0.6862745098039217
1732.452392578125	0.4682662006516487	-9.7390365004917	-2.260046940795847	-0.6694131653757966	1.099320590113353	0.765710187033209	0.1810699588477366	-0.3933054393305439	0.7058823529411765
1751.983642578125	0.2558315507513216	-9.770380278403195	-1.77888999134194	-0.3007779678780473	2.602916959471121	0.02602916959471122	0.1872427983539095	-0.403765690376569	0.6993464052287582
1771.514892578125	0.1281567570020395	-9.406546522018282	-2.014500303985439	-0.3083099893374026	1.856422342110923	0.395922713987147	0.1975308641975309	-0.4079497907949791	0.701525054466231
1791.046142578125	0.2973046402118553	-9.663475372753869	-2.116564358599212	0.02264537615342631	0.3738136896428118	0.7584551180285036	0.1872427983539095	-0.399581589958159	0.7058823529411765
1810.577392578125	0.2459093722564027	-9.752497117794073	-2.030620307621685	0.3837781392570367	0.0115133441777111	1.509549095705928	0.2098765432098766	-0.397489539748954	0.6993464052287582
1830.108642578125	0.2943724444896298	-9.956694944976419	-2.151456679369582	-1.053181442277761	0.7146732134480851	-0.3702117584315569	0.1934156378600823	-0.3933054393305439	0.701525054466231
1849.639892578125	0.3564648716839527	-9.808058286150194	-2.315121093873499	-0.2856843378941205	2.976504096728848	0.4071235315333263	0.1954732510288066	-0.3870292887029289	0.69281045751634
1869.171142578125	0.1243242902982485	-9.789793192397379	-1.962993891464361	-1.414264893606011	-0.7886966035245982	0.7468300150968296	0.1934156378600823	-0.3807531380753138	0.7124183006535948
1888.702392578125	0.1832996176293509	-9.952866519893199	-1.990759824767862	-0.3460194084095394	-0.01038058225228618	0.3772546847435149	0.1934156378600823	-0.4079497907949791	0.6906318082788672
1908.233642578125	0.2072421778753385	-9.578812515496459	-1.911211638339504	-0.3083001269823305	1.483288309623366	0.7695498642283092	0.1872427983539095	-0.3891213389121339	0.6971677559912854
1927.764892578125	0.1361460304602191	-9.61772018630133	-1.903766973252889	0.3686845092731099	-0.3620737930800156	1.128454733767313	0.1893004115226338	-0.4100418410041841	0.6993464052287582
1947.296142578125	0.0844981612192543	-9.732002059892757	-2.324138959766284	-0.6995905629885782	-0.02098771688965735	0.3771486133971412	0.2098765432098766	-0.403765690376569	0.6862745098039217
1966.827392578125	0.2884110541515421	-9.542732968684183	-2.181323244963401	-1.090861274284682	-2.271531808377794	0.7320016630482976	0.2078189300411523	-0.3765690376569037	0.69281045751634
1986.358642578125	0.3661536465910583	-9.849281805540642	-2.377691442700011	-1.429378248300082	-0.4160156758072115	-0.3815186473241099	0.1831275720164609	-0.4163179916317991	0.6971677559912854
2005.889892578125	0.1946070615740186	-9.832223135527434	-2.025018621514167	-0.6769649115452961	1.099094037728268	0.3883494309433204	0.1995884773662552	-0.397489539748954	0.69281045751634
2025.421142578125	0.4064021250194289	-9.864838003107623	-1.83261222233953	0.3535908792891831	-0.7356609303377424	0.7473603718286981	0.1995884773662552	-0.4163179916317991	0.7189542483660132
2044.952392578125	0.2948816886812224	-9.905770525817163	-2.108501325565662	0.7599552205692135	1.888470298408121	0.7736016841161567	0.1872427983539095	-0.403765690376569	0.7080610021786493
2064.483642578125	0.5895461402569043	-9.732254661178269	-2.349404140343213	-0.3233937569662573	1.109701172365639	0.3884555022896942	0.1893004115226338	-0.405857740585774	0.7058823529411765
2084.014892578125	0.1239110345951505	-9.831118762707174	-2.055973393445973	0.4063742036351026	2.250997196258307	0.3998684625286208	0.1954732510288066	-0.403765690376569	0.6993464052287582
2103.546142578125	0.1841968573954902	-9.863142543279267	-2.107476774751625	-0.3611031760383941	-0.7571017519975698	0.3697874730460621	0.1831275720164609	-0.401673640167364	0.7102396514161221
2123.077392578125	0.4064809366205087	-9.856956842999644	-2.054439598440343	-0.3309159160705404	-0.009927477482116214	1.131976196923292	0.1851851851851852	-0.4100418410041841	0.701525054466231
2142.608642578125	0.5280609665529526	-9.820165970967365	-2.172596375751526	-0.2781227293695489	2.603596616626376	1.158111437864377	0.168724279835391	-0.4100418410041841	0.6971677559912854
2162.139892578125	0.1440989293332849	-9.832531309095758	-2.156852242828122	0.05279318670099155	2.613524094108493	0.02613524094108493	0.1831275720164609	-0.4100418410041841	0.7233115468409587
2181.671142578125	0.09562777385892143	-9.629141806027052	-2.1168644489264	-0.3686450598528215	-1.130462336870211	0.3660538671973356	0.1954732510288066	-0.3828451882845188	0.6862745098039217
2201.202392578125	0.3963425314251913	-9.860696352430365	-2.448667351903226	-1.075767644300755	-1.897944671120067	1.113096024986913	0.1666666666666667	-0.3912133891213389	0.6884531590413944
2220.733642578125	0.4878822060793835	-9.797637977920246	-2.020356612188754	-1.060693739026972	-0.7780894688872271	0.7469360864432033	0.1748971193415638	-0.405857740585774	0.69281045751634
2240.264892578125	0.1140323035213397	-9.808890859987242	-1.873142603802533	0.02262565144328209	1.120081754617925	0.01120081754617925	0.1975308641975309	-0.3849372384937238	0.6906318082788672
2259.796142578125	0.3566043075935554	-9.794114695189922	-1.930584136128005	-0.737290119705643	-2.260924673740423	0.7321077343946713	0.1707818930041153	-0.4142259414225941	0.6949891067538128
2279.327392578125	0.2671854733325236	-9.645089030384007	-2.358370475573754	-0.3535415675138225	-1.130009232100041	1.120775379377113	0.1769547325102881	-0.401673640167364	0.6971677559912854
2298.858642578125	0.2452839314734746	-9.815041196086893	-2.225672957863348	-1.068265209906616	-0.03204795629719848	-0.3776789701290098	0.1975308641975309	-0.4079497907949791	0.6949891067538128
2318.389892578125	0.5093896899330335	-9.667091612757261	-2.054018259496109	-0.6844969330046514	0.3525994203680694	0.7582429753357562	0.1934156378600823	-0.4121338912133891	0.6993464052287582
2337.921142578125	0.1246435783231359	-9.757864389908637	-1.799778096843514	-0.6920486791741509	0.3523728679829845	0.3808822192458676	0.205761316872428	-0.405857740585774	0.6949891067538128
2357.452392578125	0.09469921153337862	-9.721998038581331	-2.313435738096561	-0.3535514298688947	-0.7568751996124847	0.7471482291359507	0.1872427983539095	-0.405857740585774	0.6884531590413944
2376.983642578125	0.2273371153404043	-9.589520789191891	-1.931748122851645	-0.3460391331196837	0.7358874827228274	-0.3699996157388095	0.1934156378600823	-0.4205020920502092	0.7080610021786493
2396.514892578125	-0.01608059783570612	-9.688867864378697	-2.25228096687406	-0.3611031760383941	-0.7571017519975698	0.3697874730460621	0.2016460905349794	-0.4184100418410042	0.6971677559912854
2416.046142578125	0.2654799094527454	-9.815645418361838	-2.245703229399322	-0.4138963627393857	-3.370625846106063	0.3436522321049771	0.1790123456790124	-0.4100418410041841	0.6797385620915033
2435.577392578125	0.6189590339419438	-9.821268322977339	-2.101035441971064	-0.737290119705643	-2.260924673740423	0.7321077343946713	0.1954732510288066	-0.405857740585774	0.6884531590413944
2455.108642578125	0.4360645887745546	-9.928894657898089	-2.118346713269785	0.4138963627393857	3.370625846106063	-0.3436522321049771	0.1995884773662552	-0.4079497907949791	0.69281045751634
2474.639892578125	-0.1067715321705773	-9.66705220695672	-2.27229911354833	0.3988027327554589	2.997038708848335	-0.7247465940435922	0.1769547325102881	-0.405857740585774	0.6971677559912854
2494.171142578125	0.3480087910501465	-9.643565339429799	-2.044354744717554	-0.4365220141826677	-4.490707600723987	0.3324514145587979	0.1995884773662552	-0.397489539748954	0.7080610021786493
2513.702392578125	0.7975087369985235	-9.138015189036548	-2.105491328647499	-1.098432745164325	-1.525490295787766	-0.3926133935239154	0.1769547325102881	-0.4100418410041841	0.7037037037037037
2533.233642578125	0.267939235568492	-9.569712806787168	-1.889947662125088	-1.038107537003979	1.834528415680926	-0.7363716969752663	0.1954732510288066	-0.399581589958159	0.7080610021786493
2552.764892578125	0.1951183265758953	-9.781096635339766	-1.961851123248704	-1.098413020454181	-2.271758360762879	0.354640906958409	0.1954732510288066	-0.4184100418410042	0.6906318082788672
2572.296142578125	0.256398388036011	-9.713696549934259	-2.16998953048504	-0.7448418658751425	-2.261151226125508	0.3547469783047827	0.1975308641975309	-0.403765690376569	0.69281045751634
2591.827392578125	0.3680168336729963	-9.66296309734685	-1.923912430975057	-1.053141992857473	-0.7778629165021421	1.124296842533092	0.1975308641975309	-0.4163179916317991	0.7037037037037037
2611.358642578125	0.3877106402966688	-9.713784455181619	-1.916155550699549	-1.414314205381372	1.076973558913186	-1.121305736108982	0.1872427983539095	-0.397489539748954	0.6819172113289761
2630.889892578125	0.4065718730832931	-9.847863196721205	-2.154994107771894	0.4214579712639573	2.99771836600359	0.4073356742260736	0.1790123456790124	-0.4184100418410042	0.7080610021786493
2650.421142578125	0.4185956942736734	-9.655582087784182	-2.094754763608089	0.03018725996785367	0.7471742745154536	0.76218872387723	0.191358024691358	-0.4163179916317991	0.6840958605664489
2669.952392578125	0.2030732462592452	-9.99570567710578	-2.194724248362394	-0.6844870706495794	-0.02053461211948738	1.131870125576918	0.1934156378600823	-0.397489539748954	0.6971677559912854
2689.483642578125	0.1638301209472132	-9.879614167904945	-1.775170690014058	-0.737299982060715	-1.887790641252866	0.3584805841535091	0.1810699588477366	-0.4100418410041841	0.6993464052287582
2709.014892578125	0.06553083589271483	-9.60853257234468	-2.136336976823964	-0.7448320035200703	-2.634285258613065	0.7283741285459449	0.1954732510288066	-0.3933054393305439	0.701525054466231
2728.546142578125	0.2852959750986057	-9.854240873977817	-2.02521261930144	-0.7372802573505709	-2.63405870622798	1.105734884635833	0.1851851851851852	-0.4121338912133891	0.69281045751634
2748.077392578125	0.2156992689142867	-9.74320442170265	-2.171871915264677	-0.7523837496895698	-2.63451181099815	0.3510133724560562	0.1810699588477366	-0.4100418410041841	0.6993464052287582
2767.608642578125	0.3869882006201039	-9.786028422838106	-2.07129012499429	-0.007512296749211039	-1.492762682335312	1.11714784487476	0.1934156378600823	-0.403765690376569	0.7102396514161221
2787.139892578125	0.5680224899209815	-9.864417674568532	-2.477439648728207	0.338477524595112	-0.3629800026203556	-0.3809882905922413	0.1872427983539095	-0.399581589958159	0.701525054466231
2806.671142578125	0.5524935732928339	-9.397107317181263	-2.242108207903913	0.3686351974977494	1.503596369357768	-0.7396810174384979	0.1810699588477366	-0.4184100418410042	0.7037037037037037
2826.202392578125	0.1578232623777333	-9.470199014751927	-2.259810505992607	-1.767855772895194	-0.05303567318685583	-0.0005303567318685583	0.1728395061728395	-0.4163179916317991	0.6971677559912854
2845.733642578125	-0.01699097286869206	-9.779905367677291	-2.266942955890329	-2.174229976530297	-2.304032869445162	-0.4003988192604894	0.1872427983539095	-0.401673640167364	0.7102396514161221
2865.264892578125	0.218460706167506	-9.467060696380722	-1.824703781292715	-1.038077949938762	0.715126318218255	0.3845097537482203	0.1851851851851852	-0.4163179916317991	0.6862745098039217
2884.796142578125	-0.1456882966217276	-9.51832461166771	-1.618787254963744	-1.030536066124335	1.088486903090897	0.3882433595969467	0.1831275720164609	-0.397489539748954	0.6949891067538128
2904.327392578125	0.3183301608127481	-9.581125332866609	-1.920317409479648	-0.744802416454854	-3.753687356075735	1.849255579269431	0.1831275720164609	-0.4225941422594142	0.7058823529411765
2923.858642578125	0.9331293567848773	-9.717367351815323	-2.193708791194635	-1.053141992857473	-0.7778629165021421	1.124296842533092	0.1934156378600823	-0.405857740585774	0.7233115468409587
2943.389892578125	0.6090348346367409	-9.803587243396628	-2.372977902712353	-0.2328714264829847	4.843760125862227	1.180513072956735	0.1954732510288066	-0.4100418410041841	0.69281045751634
2962.921142578125	0.4847388356824698	-10.11197501761162	-2.147216008988403	0.8051867987456335	4.874901872619086	0.04874901872619085	0.1934156378600823	-0.399581589958159	0.7167755991285404
2982.452392578125	0.206299469877807	-9.67308331524961	-2.24926793874047	-0.6241717248443046	3.712618131836761	0.4144846718844054	0.1769547325102881	-0.4184100418410042	0.7058823529411765
3001.983642578125	0.3049008660697779	-9.913953797062616	-1.896689085232837	-0.2931966346433316	1.483741414393536	1.524271376408086	0.1893004115226338	-0.4142259414225941	0.7124183006535948
3021.514892578125	0.32852009667031	-9.572232757211438	-2.020780982348414	0.09054205519341681	2.987790888521474	1.539311871149366	0.1666666666666667	-0.4205020920502092	0.7102396514161221
3041.046142578125	-0.09543680728707422	-9.543680728707423	-2.033693960063798	-1.022984319954835	1.088713455475982	0.7656041156868354	0.1831275720164609	-0.4100418410041841	0.7189542483660132
3060.577392578125	0.09503365563539676	-9.688553628379518	-1.998628860014137	-1.060713463737117	-0.0318214039121135	-0.000318214039121135	0.1872427983539095	-0.4079497907949791	0.7080610021786493
3080.108642578125	0.4693857295490387	-9.627083610752697	-2.173630020211842	-1.075787369010899	-1.151676606144954	0.3658417245045882	0.191358024691358	-0.4079497907949791	0.7080610021786493
3099.639892578125	0.2860820702991196	-9.775631353926423	-2.243496504569088	-1.045600109043046	-0.4045023316295003	1.128030448381818	0.1893004115226338	-0.397489539748954	0.69281045751634
3119.171142578125	0.2882150355539846	-9.562334828439928	-2.121699237531103	-0.7222162144318603	-1.141069471507583	0.3659477958509619	0.1831275720164609	-0.3891213389121339	0.6949891067538128
3138.702392578125	0.2460841723459772	-9.73501710883663	-2.30247183190019	-0.7448418658751425	-2.261151226125508	0.3547469783047827	0.1748971193415638	-0.403765690376569	0.6884531590413944
3158.233642578125	0.2359053509449779	-9.742798238835547	-2.090841464492934	-0.7146644682623609	-1.140842919122498	0.7433085519408505	0.1872427983539095	-0.397489539748954	0.7102396514161221
3177.764892578125	0.3753746039173954	-9.937287083007948	-2.068868183868799	0.3460489954747557	-1.109021515210384	0.7436267659799717	0.191358024691358	-0.3912133891213389	0.6884531590413944
3197.296142578125	0.6987396135529724	-9.924018442682563	-2.115476152261225	0.03770941907213682	1.866802924363209	0.01866802924363209	0.1872427983539095	-0.4100418410041841	0.7124183006535948
3216.827392578125	-0.08563082538349093	-9.573183548450105	-1.934060940221795	0.3912904360062478	1.504276026513023	0.392401250831168	0.191358024691358	-0.4100418410041841	0.7037037037037037
3236.358642578125	0.509875694806359	-9.618491125424715	-2.24350256699994	0.368694371628182	-0.7352078255675725	1.502081884008475	0.1728395061728395	-0.3933054393305439	0.6862745098039217
3255.889892578125	0.3958423808798772	-9.910711406961781	-2.4006680556302	-0.3309356407806847	0.7363405874929974	0.3847218964409677	0.1790123456790124	-0.4100418410041841	0.7080610021786493
3275.421142578125	0.1566299739049737	-9.589527862027888	-2.073869689321941	0.0452710275967084	1.493895444260737	0.7696559355746829	0.1995884773662552	-0.4267782426778242	0.7037037037037037
3294.952392578125	0.3876985154349642	-9.714996941352076	-2.03742841746881	-0.3309159160705404	-0.009927477482116214	1.131976196923292	0.1872427983539095	-0.4079497907949791	0.7080610021786493
3314.483642578125	0.3183301608127481	-9.581125332866609	-1.920317409479648	-0.6995905629885782	-0.02098771688965735	0.3771486133971412	0.1893004115226338	-0.4225941422594142	0.7037037037037037
3334.014892578125	0.36577474466279	-9.887171998367471	-2.127064488835382	-1.007910414681053	2.208568657708822	0.399444177143126	0.1748971193415638	-0.4121338912133891	0.6971677559912854
3353.546142578125	0.0235262733274635	-9.768584788465775	-2.06395155244759	-1.045629696108262	0.7148997658331701	0.007148997658331701	0.2016460905349794	-0.4100418410041841	0.7145969498910676
3373.077392578125	0.1158267830536183	-9.629442906759381	-2.106576503770059	-0.6920388168190788	-0.02076116450457237	0.7545093694870298	0.2098765432098766	-0.4142259414225941	0.7189542483660132
3392.608642578125	0.3771852499319467	-9.756222481552808	-2.140604928143978	-1.11351651279318	-2.272211465533049	-0.4000806052213682	0.1831275720164609	-0.403765690376569	0.7080610021786493
3412.139892578125	0.3579046990113722	-9.664075553408246	-2.055382306437874	-0.03013794819249313	-2.612844436953238	1.105947027328581	0.1934156378600823	-0.4100418410041841	0.7058823529411765
3431.671142578125	0.5083732223601324	-9.768738370047366	-2.119716822642403	-0.3309356407806847	0.7363405874929974	0.3847218964409677	0.1831275720164609	-0.399581589958159	0.6906318082788672
3451.202392578125	0.4179864199730181	-9.716509517849722	-2.128110258157403	-0.3083001269823305	1.483288309623366	0.7695498642283092	0.1893004115226338	-0.405857740585774	0.6993464052287582
3470.733642578125	0.07652101262277929	-9.519615909439249	-2.313599423729573	-0.6845166577147956	1.098867485343183	0.01098867485343183	0.1790123456790124	-0.397489539748954	0.7037037037037037
3490.264892578125	0.08523979859351809	-9.657838322466379	-1.976989013086879	-0.6845067953597235	0.7257334528556262	0.384615825094594	0.1810699588477366	-0.4142259414225941	0.701525054466231
3509.796142578125	0.1535957272634013	-9.89295252618513	-2.119374295299249	-0.3460095460544673	-0.383514614739843	0.7508818349846771	0.1769547325102881	-0.3912133891213389	0.7145969498910676
3529.327392578125	0.4170629096731854	-9.80886054783298	-2.274151186173705	-0.3309356407806847	0.7363405874929974	0.3847218964409677	0.1769547325102881	-0.401673640167364	0.7037037037037037
3548.858642578125	0.2886293016622246	-9.520908217615929	-2.01861366331872	-0.3384676622400399	-0.0101540298672012	0.7546154408334035	0.1954732510288066	-0.4163179916317991	0.6906318082788672
3568.389892578125	0.325287810620896	-9.895461362152838	-2.026873725354969	-1.075797231365971	-0.7785425736573971	-0.007785425736573971	0.1872427983539095	-0.4246861924686192	0.7211328976034859
3587.921142578125	0.2768126135259643	-9.692476021140951	-2.027310220376334	-0.3309257784256125	0.3632065550054406	0.75834904668213	0.1851851851851852	-0.3933054393305439	0.7102396514161221
3607.452392578125	0.1654942582161676	-9.713200441009514	-2.302186897650132	-0.3082902646272583	1.110154277135809	1.143177014469471	0.191358024691358	-0.403765690376569	0.7233115468409587
3626.983642578125	0.4682823671339215	-9.737419852264422	-2.098349785103498	-1.068265209906616	-0.03204795629719848	-0.3776789701290098	0.1872427983539095	-0.4079497907949791	0.6949891067538128
3646.514892578125	0.2887364046072817	-9.510197923110212	-1.957471016957923	-0.3234036193213294	1.482835204853196	0.01482835204853196	0.1893004115226338	-0.4079497907949791	0.7037037037037037
3666.046142578125	0.1663288528634999	-9.629740976276286	-2.035379315840735	-1.090880998994826	-1.525263743402681	-0.01525263743402681	0.1810699588477366	-0.401673640167364	0.7276688453159043
3685.577392578125	0.4989906002110676	-9.696899574852841	-2.025309618195077	-0.3535415675138225	-1.130009232100041	1.120775379377113	0.1769547325102881	-0.4121338912133891	0.6906318082788672
3705.108642578125	0.5313033566537871	-9.495926960883915	-2.065442910437254	0.01513307940421527	-1.1189489926925	1.875602962903264	0.1893004115226338	-0.4142259414225941	0.69281045751634
3724.639892578125	0.6715789129295595	-9.609785474720821	-2.059632070465331	-1.053181442277761	0.7146732134480851	-0.3702117584315569	0.1954732510288066	-0.3953974895397489	0.6971677559912854
3744.171142578125	0.315177696769556	-9.896371737185824	-2.138131456356242	-0.3158715978619742	2.229329822213395	-0.3550651923439038	0.205761316872428	-0.4225941422594142	0.7080610021786493
3763.702392578125	-0.1598915617035071	-9.928550109744652	-2.265703188781035	-0.3233937569662573	1.109701172365639	0.3884555022896942	0.1872427983539095	-0.401673640167364	0.7233115468409587
3783.233642578125	0.4375700924362073	-9.778344291732823	-2.211814240935007	-0.7222063520767882	-1.51420350399514	0.7395749460921242	0.1851851851851852	-0.4079497907949791	0.7145969498910676
3802.764892578125	0.5601574962952739	-9.640816027038284	-2.35522710517684	-1.068265209906616	-0.03204795629719848	-0.3776789701290098	0.1790123456790124	-0.4100418410041841	0.6971677559912854
3822.296142578125	0.3782037383151319	-9.654373643234294	-2.054694220536139	-0.3158617355069021	1.856195789725838	0.01856195789725838	0.1851851851851852	-0.4205020920502092	0.7102396514161221
3841.827392578125	0.1849031305897823	-9.792515223850058	-2.114039356149231	0.03020698467799789	0.0009062095403399367	1.509443024359554	0.1851851851851852	-0.3912133891213389	0.6993464052287582
3861.358642578125	0.7528559025559624	-9.562894592888624	-2.25849495849766	-1.399181125977156	-0.0419754337793147	0.7542972267942823	0.191358024691358	-0.401673640167364	0.7058823529411765
3880.889892578125	0.5500039350228257	-9.646071144182079	-1.89094493200029	-1.023023769375124	2.581249585426209	-0.7289044852778135	0.191358024691358	-0.4288702928870293	0.7124183006535948
3900.421142578125	-0.01696369192985674	-9.777177273793759	-1.994079005659492	-0.3460095460544673	-0.383514614739843	0.7508818349846771	0.1995884773662552	-0.399581589958159	0.7102396514161221
3919.952392578125	0.3963960828977199	-9.855341205177506	-1.913045523672323	-1.068225760486328	-1.524584086247426	1.116829630835639	0.1954732510288066	-0.4184100418410042	0.7102396514161221
3939.483642578125	0.1259288136638219	-9.629340855840036	-2.07616735061496	-1.053151855212545	-0.4047288840145853	0.7506696922919297	0.205761316872428	-0.399581589958159	0.7189542483660132
3959.014892578125	0.4890886298189897	-9.676995603959623	-2.074918489859388	-0.3384676622400399	-0.0101540298672012	0.7546154408334035	0.1893004115226338	-0.405857740585774	0.701525054466231
3978.546142578125	0.3456636407154514	-9.878080372899316	-2.268225160015589	-1.053171579922689	0.3415391809605283	0.003415391809605283	0.1954732510288066	-0.4163179916317991	0.7189542483660132
3998.077392578125	0.5094644599135451	-9.659614614706101	-2.316269924520008	-1.053161717567617	-0.03159485152702852	0.3770425420507675	0.1934156378600823	-0.4100418410041841	0.7254901960784315
4017.608642578125	0.4577781952771825	-9.77773602783731	-2.11057164570172	0.06036465758063524	1.867482581518464	1.150750297513298	0.1893004115226338	-0.4100418410041841	0.6906318082788672
4037.139892578125	0.4078833789576724	-9.716712609283274	-2.168625483543274	-0.300748380812831	1.483514862008451	1.146910620318198	0.1831275720164609	-0.403765690376569	0.7102396514161221
4056.671142578125	0.2564923557142216	-9.704299782113205	-2.240225823124276	-0.2932262217085478	2.603143511856206	0.4033899256845999	0.1872427983539095	-0.4163179916317991	0.6993464052287582
4076.202392578125	0.1268361574813817	-9.538606474084055	-2.091823578291005	-0.3384676622400399	-0.0101540298672012	0.7546154408334035	0.191358024691358	-0.3912133891213389	0.7080610021786493
4095.733642578125	0.4711034182905216	-9.455314736604407	-2.165024399617012	-0.6996004253436504	0.3521463155978994	0.003521463155978994	0.168724279835391	-0.4100418410041841	0.6993464052287582
4115.264892578125	0.1641049511458505	-9.85213114804122	-2.056622073547168	-1.038097674648906	1.461394383193369	-0.3627445467341041	0.191358024691358	-0.399581589958159	0.7145969498910676
4134.796142578125	0.2273330737198362	-9.589924951248712	-1.972172411774732	-0.6920388168190788	-0.02076116450457237	0.7545093694870298	0.2037037037037037	-0.4100418410041841	0.701525054466231
4154.327392578125	0.6108889280724004	-9.618177899830679	-2.010153541064346	0.02265523850849842	0.0006796571552549525	1.132082268269666	0.1831275720164609	-0.399581589958159	0.6993464052287582
4173.858642578125	0.2676401556464456	-9.599620798991811	-1.8510420121305	-0.2856843378941205	2.976504096728848	0.4071235315333263	0.1934156378600823	-0.405857740585774	0.7037037037037037
4193.389892578125	0.06070109931372172	-10.09150623024399	-1.958513755064517	-1.068245485196472	-0.7783160212723121	0.3695753303533146	0.1934156378600823	-0.405857740585774	0.6906318082788672
4212.921142578125	0.5118156726790927	-9.424493338151352	-2.031763075837342	-0.3686253351426773	-1.876730401845325	1.11330816767966	0.1851851851851852	-0.403765690376569	0.7080610021786493
4232.452392578125	0.5793481211582061	-9.74195556094708	-2.329789145320621	-0.338477524595112	0.3629800026203556	0.3809882905922413	0.205761316872428	-0.4100418410041841	0.7211328976034859
4251.983642578125	0.549883696810922	-9.658094965372459	-2.08346651736112	-0.6845166577147956	1.098867485343183	0.01098867485343183	0.1810699588477366	-0.4184100418410042	0.701525054466231
4271.514892578125	0.1128844832799723	-9.923672884123983	-2.242529546848147	0.02264537615342631	0.3738136896428118	0.7584551180285036	0.1893004115226338	-0.399581589958159	0.701525054466231
4291.046142578125	0.2557931553559238	-9.774219817942981	-2.162920736111267	0.03774886849242525	0.3742667944129817	1.513176630208281	0.2037037037037037	-0.397489539748954	0.7037037037037037
4310.577392578125	0.5707869583896269	-9.587970827703989	-2.09995329806393	-0.3082902646272583	1.110154277135809	1.143177014469471	0.1810699588477366	-0.397489539748954	0.7276688453159043
4330.108642578125	0.2565085221964943	-9.702683133885929	-2.078528667431927	0.06034493287049102	2.613750646493577	0.4034959970309736	0.191358024691358	-0.4163179916317991	0.7102396514161221
4349.639892578125	0.3475177341511109	-9.692671029333367	-1.905400798367582	-0.3384676622400399	-0.0101540298672012	0.7546154408334035	0.1975308641975309	-0.4100418410041841	0.701525054466231
4369.171142578125	0.3075016489054114	-9.653875513499264	-2.146285425852576	0.03021684703307	-0.3722278229472168	1.883070174600717	0.1790123456790124	-0.4205020920502092	0.7080610021786493
4388.702392578125	0.5681447489431694	-9.852191772349743	-2.264705918905833	-0.3233937569662573	1.109701172365639	0.3884555022896942	0.168724279835391	-0.399581589958159	0.6993464052287582
4408.233642578125	0.1053205903865953	-9.669961163360679	-2.139010508829825	-0.6996004253436504	0.3521463155978994	0.003521463155978994	0.1934156378600823	-0.4184100418410042	0.7037037037037037
4427.764892578125	0.1945040002495297	-9.84252926797633	-2.045736978951877	-1.451994037388292	-1.909231462912694	-0.01909231462912694	0.1975308641975309	-0.405857740585774	0.7080610021786493
4447.296142578125	0.4879812257833043	-9.787736007528167	-2.040062543674131	0.01510349233899894	0.0004531047701699683	0.7547215121797772	0.1769547325102881	-0.4163179916317991	0.701525054466231
4466.827392578125	0.6297622857207293	-9.751044155199807	-2.12771923136743	0.0678966790399905	2.613977198878663	0.7808567531208621	0.1872427983539095	-0.3953974895397489	0.7189542483660132
4486.358642578125	0.3571630616371084	-9.738239290834624	-2.402532253117279	-0.6694526147960852	2.59185672006358	-0.7287984139314397	0.1954732510288066	-0.4142259414225941	0.7080610021786493
4505.889892578125	0.2262206176584405	-9.701170557388281	-1.987846826743335	-1.4067525968568	0.7040660788107139	-0.3703178297779307	0.191358024691358	-0.405857740585774	0.6993464052287582
4525.421142578125	0.3262820492806719	-9.796037496175241	-2.183508751285653	-0.361093313683322	-1.130235784485127	0.7434146232872243	0.1893004115226338	-0.4142259414225941	0.6906318082788672
4544.952392578125	0.7005613740240864	-9.741842395571171	-2.076046101997914	-0.7146644682623609	-1.140842919122498	0.7433085519408505	0.2016460905349794	-0.397489539748954	0.7145969498910676
4564.483642578125	0.598842877968895	-9.812681900080209	-2.29272647430513	-0.6995905629885782	-0.02098771688965735	0.3771486133971412	0.1872427983539095	-0.401673640167364	0.6993464052287582
4584.014892578125	0.2031864116351547	-9.984389139514834	-2.072945168616966	-1.4143043430263	0.7038395264256289	-0.7476785858678192	0.1851851851851852	-0.4184100418410042	0.6906318082788672
4603.546142578125	0.1456246410977786	-9.679960132646395	-2.048198325877908	-1.060713463737117	-0.0318214039121135	-0.000318214039121135	0.1728395061728395	-0.4100418410041841	0.6884531590413944
4623.077392578125	0.2141008079795655	-9.903050515174767	-1.998062022729448	-0.3384380751748236	-1.129556127329872	1.87549689155689	0.1893004115226338	-0.3912133891213389	0.7058823529411765
4642.608642578125	0.2654142331185121	-9.822213051785155	-1.892496914298477	-0.676955049190224	0.7259600052407112	0.7619765811844826	0.1851851851851852	-0.4100418410041841	0.7058823529411765
4662.139892578125	0.3377915742537494	-9.655186008968501	-2.216755122079625	-0.338477524595112	0.3629800026203556	0.3809882905922413	0.1872427983539095	-0.3933054393305439	0.7058823529411765
4681.671142578125	0.09442640214502546	-9.749278977416648	-2.011772210101908	-0.3309257784256125	0.3632065550054406	0.75834904668213	0.1851851851851852	-0.3891213389121339	0.7102396514161221
4701.202392578125	0.2033895030687065	-9.964079996159654	-2.061826670433862	-0.6920388168190788	-0.02076116450457237	0.7545093694870298	0.191358024691358	-0.4142259414225941	0.7080610021786493
4720.733642578125	0.4886824469518861	-9.717613890669982	-2.097155486225597	-1.060713463737117	-0.0318214039121135	-0.000318214039121135	0.1872427983539095	-0.4121338912133891	0.7189542483660132
4740.264892578125	0.2066329035746831	-9.639739945562001	-1.944567132888818	-0.3083099893374026	1.856422342110923	0.395922713987147	0.1893004115226338	-0.403765690376569	0.7080610021786493
4759.796142578125	0.4154836464361633	-9.966786871535202	-1.908325921253813	-0.6769747739003683	1.472228070215825	0.01472228070215825	0.1934156378600823	-0.3953974895397489	0.6906318082788672
4779.327392578125	0.1854083331608067	-9.741994966747619	-2.111508291268399	0.0226355137983542	0.7469477221303685	0.3848279677873415	0.1995884773662552	-0.4121338912133891	0.7080610021786493
4798.858642578125	0.3187040107153061	-9.543740342610805	-2.221474724498135	-0.7297580982462877	-1.514430056380224	0.3622141900022355	0.1934156378600823	-0.3933054393305439	0.701525054466231
4818.389892578125	0.3365538279547396	-9.778960638869474	-2.475481483562917	-0.6844969330046514	0.3525994203680694	0.7582429753357562	0.1934156378600823	-0.4100418410041841	0.6971677559912854
4837.921142578125	0.05146498591025395	-10.00501656048976	-2.418928097357305	-0.7071127220928615	-1.140616366737413	1.120669308030739	0.2098765432098766	-0.399581589958159	0.6993464052287582
4857.452392578125	0.3862021054195899	-9.8646379428895	-1.853006239726643	-0.6844870706495794	-0.02053461211948738	1.131870125576918	0.1893004115226338	-0.3849372384937238	0.7102396514161221
4876.983642578125	0.115716648893135	-9.640456322807713	-2.198037366823172	-1.030545928479407	1.461620935578454	0.01461620935578454	0.2078189300411523	-0.399581589958159	0.6993464052287582
4896.514892578125	0.2051132542410417	-9.791704878926135	-1.992584616454401	-1.053161717567617	-0.03159485152702852	0.3770425420507675	0.2016460905349794	-0.405857740585774	0.7233115468409587
4916.046142578125	0.09441326687817882	-9.750592504101311	-2.143151149101941	-0.3384676622400399	-0.0101540298672012	0.7546154408334035	0.1954732510288066	-0.4079497907949791	0.6949891067538128
4935.577392578125	0.3789231467762706	-9.58243279712042	-1.929877862933713	-0.3158321484416857	0.7367936922631674	1.139443408620745	0.1893004115226338	-0.4163179916317991	0.6971677559912854
4955.108642578125	0.2976118033750381	-9.632759056435587	-2.074621430747625	-0.3460095460544673	-0.383514614739843	0.7508818349846771	0.1851851851851852	-0.397489539748954	0.6949891067538128
4974.639892578125	0.2754940348155906	-9.824333892178316	-2.084421350220356	-0.7071225844479335	-0.7674823342498559	0.7470421577895769	0.1975308641975309	-0.4225941422594142	0.701525054466231
4994.171142578125	0.3577005971726783	-9.684485737277631	-2.076606876851751	-0.3384676622400399	-0.0101540298672012	0.7546154408334035	0.168724279835391	-0.4184100418410042	0.7320261437908497
5013.702392578125	0.3045775364243223	-9.946286761608176	-2.100329168776772	-0.7222162144318603	-1.141069471507583	0.3659477958509619	0.1810699588477366	-0.4100418410041841	0.7058823529411765
5033.233642578125	0.3060810192756909	-9.795938476471319	-2.214008840903537	0.04525130288656418	2.240163509235851	0.02240163509235851	0.191358024691358	-0.3933054393305439	0.7058823529411765
5052.764892578125	0.1443262704902459	-9.80979719339966	-1.903188011106495	-1.406742734501728	0.3309320463231571	0.003309320463231571	0.1851851851851852	-0.3933054393305439	0.701525054466231
5072.296142578125	0.417965201465035	-9.718631368648024	-2.34033777500361	-0.7071324468030056	-0.3943483017622991	0.3734150075484148	0.1810699588477366	-0.401673640167364	0.6993464052287582
5091.827392578125	0.3062881523298109	-9.77522517105932	-2.162466053797345	-0.6844969330046514	0.3525994203680694	0.7582429753357562	0.1934156378600823	-0.405857740585774	0.701525054466231
5111.358642578125	0.176838076745949	-9.588919598132374	-1.972627094088654	-1.098413020454181	-2.271758360762879	0.354640906958409	0.1954732510288066	-0.4100418410041841	0.6993464052287582
5130.889892578125	0.3673913928900681	-9.725507175639668	-2.118965081216719	-0.3610834513282499	-1.503369816972683	1.117041773528386	0.1995884773662552	-0.4079497907949791	0.7167755991285404
5150.421142578125	0.4690876600321343	-9.656890562443136	-2.124618297986482	-0.3233740322561131	0.3634331073905256	1.135709802772018	0.1810699588477366	-0.3953974895397489	0.6993464052287582
5169.952392578125	0.1943736579862054	-9.855563494308759	-2.339319286620424	-0.3233937569662573	1.109701172365639	0.3884555022896942	0.2037037037037037	-0.3953974895397489	0.7145969498910676
5189.483642578125	0.3468619812139212	-9.758246323052331	-2.403635615532397	-1.060713463737117	-0.0318214039121135	-0.000318214039121135	0.1769547325102881	-0.4163179916317991	0.7058823529411765
5209.014892578125	0.0949265526903396	-9.699263922885235	-2.059771506374934	-0.3459996836993952	-0.7566486472273998	1.124508985225839	0.1975308641975309	-0.399581589958159	0.7102396514161221
5228.546142578125	0.4567819358071224	-9.877361974843318	-1.97414876423258	-0.7146546059072888	-1.513976951610055	1.116935702182013	0.1975308641975309	-0.4142259414225941	0.7080610021786493
5248.077392578125	0.6406685988240038	-9.670513854973379	-2.133684663326086	-0.2932262217085478	2.603143511856206	0.4033899256845999	0.1790123456790124	-0.401673640167364	0.6906318082788672
5267.608642578125	0.3985886620559658	-9.636083289352925	-2.205091005119814	0.03773900613735315	0.7474008269005386	1.139549479967119	0.2037037037037037	-0.4142259414225941	0.6906318082788672
5287.139892578125	0.4688997246757132	-9.675684098085243	-1.98414571270801	-0.7222162144318603	-1.141069471507583	0.3659477958509619	0.1851851851851852	-0.3912133891213389	0.7167755991285404
5306.671142578125	0.450290082769459	-9.516446268508641	-2.259198200476526	-0.654329397746942	1.846041759858636	0.7731773987306619	0.1954732510288066	-0.3933054393305439	0.701525054466231
5326.202392578125	0.3081301209037658	-9.591028313663829	-1.920914558918599	-1.406762459211872	1.077200111298271	-0.7439449800190928	0.1851851851851852	-0.4142259414225941	0.7037037037037037
5345.733642578125	0.1446344440585708	-9.778979836567174	-1.851139011024137	-1.060723326092188	0.3413126285754433	-0.3739453642802834	0.2016460905349794	-0.3953974895397489	0.7080610021786493
5365.264892578125	0.3165841807272878	-9.755723341412635	-2.211893052536086	-1.45953592120272	-2.282592047785335	-0.02282592047785335	0.1975308641975309	-0.3953974895397489	0.6971677559912854
5384.796142578125	0.387902617273658	-9.694586757482693	-2.016203847054934	-1.060693739026972	-0.7780894688872271	0.7469360864432033	0.205761316872428	-0.4079497907949791	0.7037037037037037
5404.327392578125	0.1657145265371342	-9.691173608912852	-2.119265171543908	-0.3233937569662573	1.109701172365639	0.3884555022896942	0.1893004115226338	-0.405857740585774	0.6884531590413944
5423.858642578125	0.3553756549408241	-9.916979960463053	-2.09835584753435	-0.7071127220928615	-1.140616366737413	1.120669308030739	0.1810699588477366	-0.4100418410041841	0.6906318082788672
5443.389892578125	0.4680277450381252	-9.762882061844051	-2.624877967055963	-0.7071028597377893	-1.513750399224969	1.494296458271901	0.1851851851851852	-0.401673640167364	0.6949891067538128
5462.921142578125	0.7726386248321352	-9.604824385473364	-2.371504732015246	-0.6844870706495794	-0.02053461211948738	1.131870125576918	0.1954732510288066	-0.4100418410041841	0.7080610021786493
5482.452392578125	0.5285732419599714	-9.768938430265491	-2.099322805255291	0.3837386898367483	1.504049474127938	0.01504049474127938	0.1934156378600823	-0.4100418410041841	0.6971677559912854
5501.983642578125	-0.0464564076211182	-9.696145812616873	-2.0307264001616	-0.3083297140475468	2.602690407086036	-0.3513315864951774	0.1975308641975309	-0.4163179916317991	0.6993464052287582
5521.514892578125	0.2130994964837952	-10.0031816647518	-1.912169502414166	0.01513307940421527	-1.1189489926925	1.875602962903264	0.1995884773662552	-0.4121338912133891	0.6993464052287582
5541.046142578125	0.5398847275252073	-9.647890883842908	-2.093157313078509	0.03775873084749736	0.001132761925424921	1.886803780449443	0.1995884773662552	-0.3953974895397489	0.7124183006535948
5560.577392578125	0.1752961984991826	-9.743107422809015	-2.242978166731217	0.0452710275967084	1.493895444260737	0.7696559355746829	0.1851851851851852	-0.4100418410041841	0.6993464052287582
5580.108642578125	0.3278946558873818	-9.634776835504258	-2.215833632590077	-0.6769747739003683	1.472228070215825	0.01472228070215825	0.1995884773662552	-0.4079497907949791	0.6906318082788672
5599.639892578125	0.5479073443530746	-9.855730211157198	-2.659024608831501	-0.6694131653757966	1.099320590113353	0.765710187033209	0.1995884773662552	-0.4121338912133891	0.7145969498910676
5619.171142578125	0.4918187445128054	-9.403984134578046	-2.04103859504135	-0.6618712815613693	1.472681174985995	0.7694437928819354	0.1872427983539095	-0.4163179916317991	0.7080610021786493
5638.702392578125	0.5167656474699895	-9.939596869162671	-2.017064712235959	0.01507390527378262	1.11985520223284	-0.3661599385437094	0.191358024691358	-0.3953974895397489	0.6819172113289761
5658.233642578125	0.1344313729341623	-9.789185938907009	-1.882054377155403	-0.3158715978619742	2.229329822213395	-0.3550651923439038	0.1810699588477366	-0.4205020920502092	0.7102396514161221
5677.764892578125	-0.05777496602234848	-9.817900642638891	-2.107634397953785	0.0679164037501347	1.867709133903549	1.528111053603187	0.205761316872428	-0.4079497907949791	0.69281045751634
5697.296142578125	0.2070148367183775	-9.601546631192555	-2.164875870061131	0.03019712232292578	0.3740402420278968	1.135815874118392	0.1893004115226338	-0.405857740585774	0.7102396514161221
5716.827392578125	0.3173844215997905	-9.675699254162375	-2.288691926572929	-0.3083198516924747	2.229556374598479	0.0222955637459848	0.191358024691358	-0.4267782426778242	0.6884531590413944
5736.358642578125	0.1551184078124688	-9.740684471278382	-2.04103859504135	-0.3158814602170463	2.602463854700951	-0.728692342585066	0.1893004115226338	-0.405857740585774	0.69281045751634
5755.889892578125	0.09228737445930822	-9.963181745988374	-2.194205910524523	-0.6996004253436504	0.3521463155978994	0.003521463155978994	0.1995884773662552	-0.405857740585774	0.6993464052287582
5775.421142578125	0.1243940082530498	-9.782821396917242	-2.27577591764212	0.39890135630618	-0.7343016160272325	3.01152490836803	0.1769547325102881	-0.401673640167364	0.6949891067538128
5794.952392578125	0.6703381354151237	-9.733863226164411	-2.348676648640938	0.02265523850849842	0.0006796571552549525	1.132082268269666	0.2016460905349794	-0.403765690376569	0.7080610021786493
5814.483642578125	0.3759697325460621	-9.877774220141275	-2.17699770055029	-0.3158814602170463	2.602463854700951	-0.728692342585066	0.1954732510288066	-0.4163179916317991	0.7058823529411765
5834.014892578125	0.06300179182216677	-9.861436979399487	-2.17931051792044	0.01511335469407105	-0.3726809277173868	1.128348662420939	0.1934156378600823	-0.4142259414225941	0.6949891067538128
5853.546142578125	0.4174852590225618	-9.766625612895341	-2.090217034115148	-1.038058225228618	-0.03114174675685855	1.131764054230545	0.1954732510288066	-0.4121338912133891	0.7124183006535948
5873.077392578125	0.2264307819279866	-9.680154130433666	-1.905985822944828	-0.2932064969984036	1.856875446881093	1.150644226166924	0.205761316872428	-0.403765690376569	0.6949891067538128
5892.608642578125	0.2674107936792005	-9.622556995716318	-2.124918388313671	-1.075807093721043	-0.4054085411698403	-0.3814125759777361	0.1769547325102881	-0.4267782426778242	0.701525054466231
5912.139892578125	0.06460530478259817	-9.701085683356348	-2.30259004930181	-0.6844969330046514	0.3525994203680694	0.7582429753357562	0.1851851851851852	-0.405857740585774	0.6949891067538128
5931.671142578125	0.389517244690652	-9.533124015783299	-2.028316583897814	-1.399171263622085	-0.4151094662668715	1.127924377035445	0.1810699588477366	-0.397489539748954	0.7058823529411765
5951.202392578125	0.4291968650240491	-9.605566022847626	-2.122450978956787	-1.068225760486328	-1.524584086247426	1.116829630835639	0.2139917695473251	-0.3953974895397489	0.6993464052287582
5970.733642578125	0.1052235914929586	-9.679661052724347	-2.099092432882904	-0.338477524595112	0.3629800026203556	0.3809882905922413	0.2078189300411523	-0.397489539748954	0.69281045751634
5990.264892578125	0.8411329790064791	-9.826096038746048	-2.139459128712895	0.01512321704914316	-0.7458149602049436	1.501975812662102	0.1975308641975309	-0.399581589958159	0.7124183006535948
6009.796142578125	0.5491723715909197	-9.729227487372691	-2.127434297117372	-0.3158420107967578	1.109927724750724	0.7658162583795828	0.1831275720164609	-0.4225941422594142	0.6884531590413944
6029.327392578125	0.3242602285914323	-9.998219565099198	-2.203739083039753	-0.6996102876987225	0.7252803480854563	-0.3701056870851832	0.1954732510288066	-0.399581589958159	0.69281045751634
6048.858642578125	0.1650951481850583	-9.753111444120441	-2.253681388400939	-0.6845166577147956	1.098867485343183	0.01098867485343183	0.1954732510288066	-0.4100418410041841	0.6840958605664489
6068.389892578125	0.2658921547507012	-9.774420888566249	-2.162829799648482	-1.113486925727964	-3.391613562995719	0.7208008455021183	0.1934156378600823	-0.4225941422594142	0.7124183006535948
6087.921142578125	0.4774810955471335	-9.827648021044235	-2.011860115349266	0.02265523850849842	0.0006796571552549525	1.132082268269666	0.1872427983539095	-0.4142259414225941	0.6949891067538128
6107.452392578125	0.5579628963267439	-9.860276023891275	-2.083393768190892	-0.3007286561026868	0.7372467970333373	1.894164920800522	0.1995884773662552	-0.4100418410041841	0.701525054466231
6126.983642578125	0.2854768376190324	-9.836154621935144	-2.236427710195314	-0.3384972493052563	1.109248067595469	-0.3662660098900831	0.1954732510288066	-0.4163179916317991	0.6949891067538128
6146.514892578125	0.2245817405180374	-9.865058271428589	-2.218279823438977	0.03019712232292578	0.3740402420278968	1.135815874118392	0.1934156378600823	-0.3953974895397489	0.6971677559912854
6166.046142578125	0.366373914912025	-9.82725497344398	-2.194769716593786	-0.361093313683322	-1.130235784485127	0.7434146232872243	0.1934156378600823	-0.4121338912133891	0.6906318082788672
6185.577392578125	0.4981610575894456	-9.779853837015045	-2.241586838850615	0.03773900613735315	0.7474008269005386	1.139549479967119	0.1954732510288066	-0.4079497907949791	0.6993464052287582
6205.108642578125	0.1738816313003143	-9.884564142695842	-2.250065148397547	-1.060723326092188	0.3413126285754433	-0.3739453642802834	0.2037037037037037	-0.401673640167364	0.6971677559912854
6224.639892578125	0.1163218815732222	-9.579933054798991	-2.205106161196945	-0.3535612922239668	-0.383741167124928	0.3735210788947885	0.1975308641975309	-0.3953974895397489	0.6906318082788672
6244.171142578125	0.4381834083574309	-9.717012699610462	-2.138034457462606	-1.451994037388292	-1.909231462912694	-0.01909231462912694	0.2016460905349794	-0.3891213389121339	0.69281045751634
6263.702392578125	0.387384279435787	-9.746420541269794	-2.150113850935798	-1.399190988332229	0.3311585987082421	0.3806700765531202	0.1975308641975309	-0.4142259414225941	0.7037037037037037
6283.233642578125	0.2951949142752575	-9.87444796641365	-2.005921964329445	-0.338477524595112	0.3629800026203556	0.3809882905922413	0.1893004115226338	-0.405857740585774	0.7037037037037037
6302.764892578125	0.07372623199987238	-9.799093971729938	-1.984166931215993	-1.075787369010899	-1.151676606144954	0.3658417245045882	0.1954732510288066	-0.405857740585774	0.7080610021786493
6322.296142578125	0.4997938722989964	-9.616572366059964	-2.071790275539604	-0.6995905629885782	-0.02098771688965735	0.3771486133971412	0.1934156378600823	-0.4079497907949791	0.6840958605664489
6341.827392578125	0.165110304262189	-9.751595836407366	-2.102090304939363	-0.3234036193213294	1.482835204853196	0.01482835204853196	0.1934156378600823	-0.403765690376569	0.7102396514161221
6361.358642578125	0.1977271926526653	-9.520210027662774	-2.130598886022269	-0.6995708382784341	-0.7672557818647709	1.124402913879466	0.1975308641975309	-0.4100418410041841	0.7058823529411765
6380.889892578125	0.5293674204016218	-9.689520586100459	-2.236758112676764	-0.7221866273666441	-2.260471568970253	1.486829246574449	0.191358024691358	-0.4100418410041841	0.6906318082788672
6400.421142578125	0.6615920685055495	-9.598368907020813	-1.94804999941346	0.3912904360062478	1.504276026513023	0.392401250831168	0.191358024691358	-0.4100418410041841	0.7058823529411765
6419.952392578125	0.1545131751323816	-9.801207739287104	-2.033969800667577	0.06033507051541891	2.986884678981134	0.02986884678981134	0.1831275720164609	-0.405857740585774	0.7102396514161221
6439.483642578125	0.2474290215900441	-9.600532184429939	-1.982602824056102	0.01511335469407105	-0.3726809277173868	1.128348662420939	0.1975308641975309	-0.4163179916317991	0.7080610021786493
6459.014892578125	0.2540845602607193	-9.945079327463427	-2.08057170662915	-0.3384577998849678	-0.383288062354758	1.128242591074566	0.1893004115226338	-0.397489539748954	0.701525054466231
6478.546142578125	0.3457768060913608	-9.866763835308369	-2.146446080270162	-0.3309257784256125	0.3632065550054406	0.75834904668213	0.1790123456790124	-0.399581589958159	0.6862745098039217
6498.077392578125	0.5801685701335496	-9.65991066341272	-2.204466574742028	-0.6694033030207246	0.7261865576257962	1.139337337274371	0.1810699588477366	-0.4163179916317991	0.69281045751634
6517.608642578125	0.3981895520248565	-9.675994292463852	-2.156585495870621	0.007581333234715798	-1.119175545077585	1.498242206813375	0.191358024691358	-0.401673640167364	0.6906318082788672
6537.139892578125	0.3571014269234434	-9.744402762201121	-2.008901649093347	-0.6920684038842951	1.098640932958098	-0.3663720812364568	0.1975308641975309	-0.4142259414225941	0.6993464052287582
6556.671142578125	0.2241927345383486	-9.903958869397469	-2.068713591882066	0.05280304905606366	2.240390061620936	0.3997623911822471	0.2016460905349794	-0.4079497907949791	0.7058823529411765
6576.202392578125	-0.02750827999227768	-9.821535069934841	-2.410543755488584	-0.7071225844479335	-0.7674823342498559	0.7470421577895769	0.1975308641975309	-0.401673640167364	0.7124183006535948
6595.733642578125	0.4565475218141671	-9.900803374138849	-2.298555501569609	3.944942028843296e-05	-1.492536129950227	1.494508600964649	0.1995884773662552	-0.4079497907949791	0.6862745098039217
6615.264892578125	0.3777945242326022	-9.695295051487268	-2.107249433594664	-0.3233740322561131	0.3634331073905256	1.135709802772018	0.2098765432098766	-0.403765690376569	0.7037037037037037
6634.796142578125	0.3059739163306337	-9.806648770977036	-2.275151487264333	-0.669432890085941	1.845588655088467	0.01845588655088467	0.191358024691358	-0.4100418410041841	0.6819172113289761
6654.327392578125	0.3375187648653963	-9.682466947803817	-1.915091594084971	-0.3083001269823305	1.483288309623366	0.7695498642283092	0.1872427983539095	-0.4163179916317991	0.701525054466231
6673.858642578125	0.2061115345213859	-9.691876850891715	-2.108795353461999	-0.3309257784256125	0.3632065550054406	0.75834904668213	0.1954732510288066	-0.4163179916317991	0.6840958605664489
6693.389892578125	0.2335975856005385	-9.973574773279486	-1.940787207252413	-0.3611031760383941	-0.7571017519975698	0.3697874730460621	0.1934156378600823	-0.401673640167364	0.7254901960784315
6712.921142578125	0.2965195554164834	-9.741983852291057	-1.888174401100792	-0.6467677892223704	1.473134279756165	1.524165305061713	0.205761316872428	-0.4121338912133891	0.7124183006535948
6732.452392578125	0.3287221776987197	-9.552024654370463	-2.019768556396082	-0.3309356407806847	0.7363405874929974	0.3847218964409677	0.1810699588477366	-0.4142259414225941	0.6862745098039217
6751.983642578125	0.3456616199051672	-9.878282453927726	-2.288437304477133	0.0226355137983542	0.7469477221303685	0.3848279677873415	0.1810699588477366	-0.4079497907949791	0.701525054466231
6771.514892578125	0.2834822978686282	-10.03560859697557	-1.983794091718577	-1.436910269759438	-1.16251029316741	-0.0116251029316741	0.1831275720164609	-0.4079497907949791	0.6819172113289761
6791.046142578125	0.4781732230694368	-9.758435268813894	-2.159907707977677	-0.3233740322561131	0.3634331073905256	1.135709802772018	0.1872427983539095	-0.4079497907949791	0.7102396514161221
6810.577392578125	0.295185820628979	-9.875357331041494	-2.096876614406391	-0.6618712815613693	1.472681174985995	0.7694437928819354	0.1851851851851852	-0.4163179916317991	0.7102396514161221
6830.108642578125	0.2248889036812202	-9.834341955110308	-2.176336895587391	-0.6845166577147956	1.098867485343183	0.01098867485343183	0.1975308641975309	-0.403765690376569	0.7102396514161221
6849.639892578125	0.1458176284799099	-9.660661394433262	-2.138140550002521	-0.3384676622400399	-0.0101540298672012	0.7546154408334035	0.1995884773662552	-0.405857740585774	0.6993464052287582
6869.171142578125	0.4691189825915378	-9.653758306502786	-1.811330058832557	-0.3384676622400399	-0.0101540298672012	0.7546154408334035	0.1851851851851852	-0.405857740585774	0.7058823529411765
6888.702392578125	0.3761728239796139	-9.857465076786095	-2.165879202367186	-0.6995905629885782	-0.02098771688965735	0.3771486133971412	0.2016460905349794	-0.397489539748954	0.7102396514161221
6908.233642578125	0.1857144859188475	-9.711379690943543	-2.079671435647585	-0.6920684038842951	1.098640932958098	-0.3663720812364568	0.1954732510288066	-0.4163179916317991	0.7080610021786493
6927.764892578125	0.2551879226758366	-9.834743085951702	-2.155851941737494	-1.060703601382045	-0.4049554363996703	0.3733089362020411	0.1893004115226338	-0.4225941422594142	0.7058823529411765
6947.296142578125	0.2984241691092454	-9.551522483014864	-2.030147438015207	0.01512321704914316	-0.7458149602049436	1.501975812662102	0.191358024691358	-0.4079497907949791	0.6993464052287582
6966.827392578125	0.3957686213045076	-9.918087364498737	-2.128310318375529	-0.3384676622400399	-0.0101540298672012	0.7546154408334035	0.1975308641975309	-0.405857740585774	0.7102396514161221
6986.358642578125	0.5304010648619376	-9.586156140068869	-1.99925632160735	0.4214579712639573	2.99771836600359	0.4073356742260736	0.1790123456790124	-0.397489539748954	0.7124183006535948
7005.889892578125	0.2177322040600888	-9.53991090712244	-2.040474788972087	-1.053171579922689	0.3415391809605283	0.003415391809605283	0.1934156378600823	-0.3953974895397489	0.7037037037037037
7025.421142578125	0.5297938113715663	-9.646881489106002	-2.01239967169512	-0.3610834513282499	-1.503369816972683	1.117041773528386	0.2016460905349794	-0.4100418410041841	0.7124183006535948
7044.952392578125	0.5183620875944265	-9.779952856718966	-2.211086749232732	-0.3535514298688947	-0.7568751996124847	0.7471482291359507	0.1954732510288066	-0.3807531380753138	0.6840958605664489
7064.483642578125	0.4273872294146398	-9.78652958378856	-2.040608162450837	-1.030536066124335	1.088486903090897	0.3882433595969467	0.1954732510288066	-0.3870292887029289	0.6993464052287582
7084.014892578125	0.3983027174007659	-9.664677754872905	-2.034806416125194	-0.3158420107967578	1.109927724750724	0.7658162583795828	0.1975308641975309	-0.399581589958159	0.69281045751634
7103.546142578125	0.3598426560738217	-9.470279847163292	-1.86385495973682	-0.3535514298688947	-0.7568751996124847	0.7471482291359507	0.1810699588477366	-0.405857740585774	0.7080610021786493
7123.077392578125	0.2953636519339796	-9.857574200541436	-2.338409921992581	-0.6995905629885782	-0.02098771688965735	0.3771486133971412	0.1831275720164609	-0.401673640167364	0.6884531590413944
7142.608642578125	0.4370850979680239	-9.826843738551164	-2.012223861200404	-1.083339115180399	-1.151903158530039	-0.01151903158530039	0.1831275720164609	-0.401673640167364	0.6971677559912854
7162.139892578125	0.3379219165170737	-9.642151782636072	-1.923172814411077	-1.053171579922689	0.3415391809605283	0.003415391809605283	0.205761316872428	-0.4079497907949791	0.701525054466231
7181.671142578125	0.08393637596027517	-9.78818058579067	-1.882509059469325	-1.098432745164325	-1.525490295787766	-0.3926133935239154	0.205761316872428	-0.403765690376569	0.6840958605664489
7201.202392578125	0.2232560889716694	-9.997623426065388	-2.346133458898402	0.02262565144328209	1.120081754617925	0.01120081754617925	0.1872427983539095	-0.3891213389121339	0.6993464052287582
7220.733642578125	0.1734936357257676	-9.923363700150517	-2.090392844609864	0.03017739761278156	1.12030830700301	0.3885615736360679	0.1995884773662552	-0.4100418410041841	0.69281045751634
7240.264892578125	0.5288682802614497	-9.739434600117669	-2.178652744172966	-1.798023308152904	-1.546478012677423	-0.01546478012677423	0.2016460905349794	-0.405857740585774	0.7102396514161221
7259.796142578125	0.2962982766903747	-9.764111724901925	-2.081202199437789	-0.7146644682623609	-1.140842919122498	0.7433085519408505	0.1954732510288066	-0.3953974895397489	0.6971677559912854
7279.327392578125	0.599049000617873	-9.792069635182415	-2.25128975942971	-0.3535711545790389	-0.01060713463737117	-0.0001060713463737117	0.1893004115226338	-0.397489539748954	0.6797385620915033
7298.858642578125	0.2470228387229405	-9.6411504711403	-2.004839820422311	0.4591871150462383	4.118253225391685	1.17325800395203	0.1851851851851852	-0.4121338912133891	0.7058823529411765
7318.389892578125	0.1156368268869132	-9.648438523429899	-1.986316062953131	-0.3309257784256125	0.3632065550054406	0.75834904668213	0.1934156378600823	-0.3891213389121339	0.6862745098039217
7337.921142578125	0.3372004872456509	-9.714294709778352	-2.068201316475047	-0.3384577998849678	-0.383288062354758	1.128242591074566	0.1893004115226338	-0.403765690376569	0.6971677559912854
7357.452392578125	0.1837734976409718	-9.905478518731112	-2.301516999040954	-0.6920684038842951	1.098640932958098	-0.3663720812364568	0.1975308641975309	-0.3891213389121339	0.6993464052287582
7376.983642578125	-0.138673053720483	-9.826901331644262	-2.159398463786085	-1.053171579922689	0.3415391809605283	0.003415391809605283	0.1872427983539095	-0.4163179916317991	0.6993464052287582
7396.514892578125	0.28832618011961	-9.551220371877392	-2.020132302247219	-1.48215171029093	-3.775807834890818	0.3396004122171296	0.2016460905349794	-0.4121338912133891	0.7037037037037037
7416.046142578125	0.6091783121669119	-9.789239490379536	-1.948016656043773	-0.6920388168190788	-0.02076116450457237	0.7545093694870298	0.1934156378600823	-0.4100418410041841	0.6840958605664489
7435.577392578125	0.487581105347053	-9.827748051153298	-2.00166310665571	0.4516255065216667	4.491160705494157	0.4222700976209793	0.1810699588477366	-0.4205020920502092	0.69281045751634
7455.108642578125	-0.117166580271975	-9.696456006995481	-2.203166183324211	0.04526116524163629	1.867029476748294	0.3960287853335207	0.2016460905349794	-0.4100418410041841	0.6993464052287582
7474.639892578125	0.2454850020967423	-9.794934133760123	-2.234766604141786	-1.459496471782431	-3.775128177735563	1.471682680486796	0.1975308641975309	-0.4142259414225941	0.6971677559912854
7494.171142578125	0.7297337912853183	-9.854903699751	-2.212720574347424	-0.007512296749211039	-1.492762682335312	1.11714784487476	0.1872427983539095	-0.4142259414225941	0.6949891067538128
7513.702392578125	0.3676136820213188	-9.703278262514596	-1.915831210648951	-0.6769846362554405	1.845362102703382	-0.358904869539004	0.1872427983539095	-0.4163179916317991	0.7102396514161221
7533.233642578125	0.08392223028828649	-9.789595152989538	-2.023994070700129	-0.3007582431679031	1.856648894496008	0.7732834700770356	0.1954732510288066	-0.4121338912133891	0.6949891067538128
7552.764892578125	0.2249252782663339	-9.830704496598932	-1.812518295279607	-0.3460095460544673	-0.383514614739843	0.7508818349846771	0.2098765432098766	-0.4121338912133891	0.6971677559912854
7572.296142578125	0.3068964162253243	-9.714398781507983	-2.139216631478803	0.7825907343675677	2.63541802053849	1.158429651903498	0.1893004115226338	-0.401673640167364	0.7037037037037037
7591.827392578125	0.4084845700171914	-9.656593503331374	-2.216118566840134	0.04526116524163629	1.867029476748294	0.3960287853335207	0.1748971193415638	-0.3891213389121339	0.6949891067538128
7611.358642578125	-0.04790027656910589	-9.840532707415642	-2.330889476520312	-0.6920486791741509	0.3523728679829845	0.3808822192458676	0.1872427983539095	-0.4246861924686192	0.7145969498910676
7630.889892578125	0.2031944948762911	-9.983580815401195	-1.992096590770792	-1.482131985580786	-4.522075899865931	1.086854712699454	0.2016460905349794	-0.4100418410041841	0.7080610021786493
7650.421142578125	0.8514219345679617	-9.8073014926988	-2.259628633067039	-0.01504431820856629	-2.239257299695511	1.487041389267196	0.1790123456790124	-0.399581589958159	0.6906318082788672
7669.952392578125	0.4187856504403786	-9.636586471113667	-2.215015204425017	-0.3007681055229752	2.229782926983564	0.3996563198358734	0.1728395061728395	-0.4163179916317991	0.69281045751634
7689.483642578125	0.1449981899097083	-9.742605251453417	-2.253357048350342	0.06034493287049102	2.613750646493577	0.4034959970309736	0.1893004115226338	-0.4142259414225941	0.701525054466231
7709.014892578125	-0.05889954694544876	-9.93035873494892	-2.244581679691648	-0.3158124237315415	-0.009474372711946247	1.886697709103069	0.1954732510288066	-0.4184100418410042	0.7124183006535948
7728.546142578125	0.4610094709214544	-9.454608463410114	-2.114584974925938	-1.105935179558464	-3.391387010610635	1.098161601592007	0.2078189300411523	-0.397489539748954	0.6949891067538128
7748.077392578125	0.7296701357613693	-9.861269252145908	-1.839302114785035	-1.060733188447261	0.714446661063	-0.7475725145214456	0.1769547325102881	-0.3953974895397489	0.69281045751634
7767.608642578125	0.1041464996115346	-9.787370240866746	-1.761054319774495	0.06787695432984628	3.360245263853776	0.03360245263853776	0.1893004115226338	-0.401673640167364	0.701525054466231
7787.139892578125	0.07546109762877011	-9.625607408840164	-1.803758082698044	-0.7297482358912155	-1.887564088867781	0.7358413402433978	0.1748971193415638	-0.399581589958159	0.7058823529411765
7806.671142578125	0.2860800494888355	-9.775833434954833	-2.263708649030631	0.391310160716392	0.7580079615379097	1.139655551313492	0.1851851851851852	-0.4205020920502092	0.7211328976034859
7826.202392578125	0.2669985483812446	-9.663781525511908	-2.207791818064511	-0.3158715978619742	2.229329822213395	-0.3550651923439038	0.1769547325102881	-0.399581589958159	0.7211328976034859
7845.733642578125	-0.06424155893146059	-9.454458923449092	-2.140032028428436	-0.6995905629885782	-0.02098771688965735	0.3771486133971412	0.1995884773662552	-0.3912133891213389	0.69281045751634
7865.264892578125	0.2851029877164744	-9.873539612190948	-1.935270395176827	-0.7523541626243535	-3.75391390846082	1.471894823179543	0.1975308641975309	-0.4100418410041841	0.6949891067538128
7884.796142578125	0.9422411903558729	-9.816285004816756	-1.966240323185764	-1.0606838766719	-1.151223501374784	1.120563236684365	0.1954732510288066	-0.3933054393305439	0.69281045751634
7904.327392578125	0.2253041801946022	-9.792814303772104	-2.063145249144235	0.4289998550783847	3.371078950876232	0.4110692800748001	0.205761316872428	-0.3870292887029289	0.7102396514161221
7923.858642578125	0.1645030507718177	-9.812321185444498	-2.115233655027133	-0.6920486791741509	0.3523728679829845	0.3808822192458676	0.2037037037037037	-0.4079497907949791	0.6862745098039217
7943.389892578125	0.4768728316516201	-9.88847441059557	-2.035109537667808	-0.3459996836993952	-0.7566486472273998	1.124508985225839	0.191358024691358	-0.4142259414225941	0.7145969498910676
7962.921142578125	0.3045674323729019	-9.947297166750225	-2.20138989108449	-1.030506479059119	-0.03091519437177356	1.509124810320433	0.1893004115226338	-0.3953974895397489	0.6971677559912854
7982.452392578125	0.3860838880179703	-9.87645968305147	-2.025315680625929	-0.3233838946111852	0.7365671398780824	0.7620826525308564	0.1954732510288066	-0.4142259414225941	0.69281045751634
8001.983642578125	0.0135313456623171	-9.757976544879403	-2.033218059241893	0.02265523850849842	0.0006796571552549525	1.132082268269666	0.1790123456790124	-0.401673640167364	0.6797385620915033
8021.514892578125	0.3468053985259665	-9.763904591847805	-1.959474650354605	-0.7372802573505709	-2.63405870622798	1.105734884635833	0.1975308641975309	-0.403765690376569	0.6993464052287582
8041.046142578125	0.5810961220539504	-9.567155471372644	-2.018001357802638	0.03774886849242525	0.3742667944129817	1.513176630208281	0.1872427983539095	-0.3953974895397489	0.6862745098039217
8060.577392578125	0.4161767843636087	-9.897473078790656	-2.046267441651453	-0.3158420107967578	1.109927724750724	0.7658162583795828	0.1995884773662552	-0.4163179916317991	0.6884531590413944
8080.108642578125	0.2751100808616121	-9.862729287576169	-1.884324757509587	0.02264537615342631	0.3738136896428118	0.7584551180285036	0.2037037037037037	-0.4142259414225941	0.6949891067538128
8099.639892578125	0.1847950172395831	-9.803326558869982	-2.1852880747408	-0.6920289544640067	-0.3938951969921292	1.128136519728192	0.191358024691358	-0.401673640167364	0.7037037037037037
8119.171142578125	0.3765739548210073	-9.81735199264676	-2.194172567154835	-0.3610834513282499	-1.503369816972683	1.117041773528386	0.1954732510288066	-0.3912133891213389	0.69281045751634
8138.702392578125	0.5808677704918475	-9.589990627582946	-2.281771661755037	-0.3158420107967578	1.109927724750724	0.7658162583795828	0.1872427983539095	-0.4163179916317991	0.6993464052287582
8158.233642578125	0.3889120120105647	-9.59364728379202	-2.021247789524041	-0.3083001269823305	1.483288309623366	0.7695498642283092	0.2016460905349794	-0.397489539748954	0.7080610021786493
8177.764892578125	0.104506203842104	-9.751399817809808	-2.203696646023787	0.4214776959741015	2.251450301028477	1.154589974708398	0.1831275720164609	-0.401673640167364	0.69281045751634
8197.296142578125	0.05230059096272827	-9.921456055242327	-2.142014443317136	-0.3460292707646115	0.3627534502352706	0.003627534502352706	0.1995884773662552	-0.397489539748954	0.6971677559912854
8216.827392578125	0.245996267098619	-9.743807633572453	-2.171599105876324	-0.7146546059072888	-1.513976951610055	1.116935702182013	0.1831275720164609	-0.4100418410041841	0.673202614379085
8236.358642578125	0.2579038916976636	-9.563146183768993	-2.263457058150261	-0.3083001269823305	1.483288309623366	0.7695498642283092	0.1975308641975309	-0.3870292887029289	0.69281045751634
8255.889892578125	0.2751019976204758	-9.863537611689807	-1.965173335355761	-0.6995905629885782	-0.02098771688965735	0.3771486133971412	0.2098765432098766	-0.397489539748954	0.6993464052287582
8275.421142578125	0.2664842521639418	-9.71521114724219	-2.301277533022288	-0.3459700966341789	-1.87605074469007	2.245390435949326	0.2098765432098766	-0.401673640167364	0.6906318082788672
8294.952392578125	0.6095663077414586	-9.750439932924861	-2.107688959831455	-0.6845067953597235	0.7257334528556262	0.384615825094594	0.1975308641975309	-0.4163179916317991	0.6949891067538128
8314.483642578125	0.1844939165072525	-9.833436632103034	-2.166594569207756	-1.376575199244019	1.824374385813724	0.01824374385813724	0.191358024691358	-0.4142259414225941	0.6906318082788672
8334.014892578125	0.2654698054013249	-9.816655823503886	-2.34676395170704	-1.798013445797832	-1.91961204516498	0.358162370114388	0.191358024691358	-0.403765690376569	0.6971677559912854
8353.546142578125	0.4678711322411076	-9.778543341545808	-2.171117142623566	0.01512321704914316	-0.7458149602049436	1.501975812662102	0.2016460905349794	-0.4163179916317991	0.7080610021786493
8373.077392578125	0.336498255671927	-9.784517867150743	-2.021214446154354	0.7825907343675677	2.63541802053849	1.158429651903498	0.1975308641975309	-0.4225941422594142	0.7167755991285404
8392.608642578125	0.3268034183339691	-9.743900590845524	-2.019280530712472	0.05280304905606366	2.240390061620936	0.3997623911822471	0.1810699588477366	-0.4142259414225941	0.6840958605664489
8412.139892578125	0.2871015690874468	-9.673681475093703	-2.147479724730478	-0.3083001269823305	1.483288309623366	0.7695498642283092	0.1893004115226338	-0.4163179916317991	0.69281045751634
8431.671142578125	0.2044019290210394	-9.862837400926367	-2.036552396210654	0.01510349233899894	0.0004531047701699683	0.7547215121797772	0.1851851851851852	-0.4163179916317991	0.6884531590413944
8451.202392578125	0.3282068710762748	-9.603555316614949	-2.123360343584631	0.07543856285441786	2.987337783751304	0.7845903589695886	0.1831275720164609	-0.405857740585774	0.69281045751634
8470.733642578125	0.4677711021320448	-9.788546352452091	-2.161517283368961	-1.02300404466498	1.834981520451096	0.01834981520451096	0.191358024691358	-0.4225941422594142	0.6971677559912854
8490.264892578125	0.2140775686612984	-9.90537444700148	-2.230501684037199	-1.030555790834479	1.83475496806601	-0.3590109408853777	0.1995884773662552	-0.3933054393305439	0.6993464052287582
8509.796142578125	0.2159104435889748	-9.722086954233832	-2.079904839235398	-0.699560975923362	-1.140389814352328	1.498030064120628	0.191358024691358	-0.4163179916317991	0.6906318082788672
8529.327392578125	0.2986030108193879	-9.533638312000601	-2.261574673370624	-0.3309060537154684	-0.383061509969673	1.505603347164454	0.1954732510288066	-0.4163179916317991	0.69281045751634
8548.858642578125	0.2940693229470152	-9.987007099237882	-2.152975318298081	-0.3007385184577589	1.110380829520894	1.52053777055936	0.1975308641975309	-0.405857740585774	0.6819172113289761
8568.389892578125	0.3070025087652393	-9.703789527516472	-2.088180057348777	-1.045609971398118	-0.03136829914194354	0.7544032981406561	0.1934156378600823	-0.4079497907949791	0.6906318082788672
8587.921142578125	0.477159786711962	-9.859778904561386	-2.195288054431657	0.007571470879643689	-0.7460415125900286	1.124615056572213	0.1954732510288066	-0.405857740585774	0.6971677559912854
8607.452392578125	0.3274076406089143	-9.683478363351007	-2.036455397317017	-0.6694033030207246	0.7261865576257962	1.139337337274371	0.2016460905349794	-0.4205020920502092	0.6797385620915033
8626.983642578125	0.5183833061024096	-9.777831005920664	-1.998859232386524	-1.038097674648906	1.461394383193369	-0.3627445467341041	0.1975308641975309	-0.401673640167364	0.701525054466231
8646.514892578125	0.08299164715245959	-9.882653466572227	-2.240777504331835	-0.300748380812831	1.483514862008451	1.146910620318198	0.1810699588477366	-0.401673640167364	0.7145969498910676
8666.046142578125	0.3373853913866458	-9.69580429567886	-2.238992118445835	-1.09085141192961	-2.644665840865351	1.10562881328946	0.2098765432098766	-0.405857740585774	0.6862745098039217
8685.577392578125	0.6191631357806378	-9.800858139107955	-2.079810871557187	0.3611524878137546	-1.108568410440214	1.498348278159749	0.1769547325102881	-0.397489539748954	0.69281045751634
8705.108642578125	0.2151102027164722	-9.802111041484094	-2.003105965198555	-0.6920486791741509	0.3523728679829845	0.3808822192458676	0.1810699588477366	-0.4225941422594142	0.7037037037037037
8724.639892578125	0.2346969063950876	-9.86364269382458	-2.056491731283844	-1.083329252825327	-1.525037191017595	0.3621081186558618	0.205761316872428	-0.3953974895397489	0.6862745098039217
8744.171142578125	0.3260809786574042	-9.81614455850201	-2.174415105007213	0.3837781392570367	0.0115133441777111	1.509549095705928	0.1934156378600823	-0.4079497907949791	0.701525054466231
8763.702392578125	0.4071710433325281	-9.787946171797714	-2.222699335530298	-0.3309356407806847	0.7363405874929974	0.3847218964409677	0.1810699588477366	-0.401673640167364	0.6906318082788672
8783.233642578125	0.3062841107092427	-9.775629333116139	-2.202890342720432	0.05277346199084734	3.359792159083606	-0.7211190595412394	0.1893004115226338	-0.4225941422594142	0.6884531590413944
8802.764892578125	0.08430517383712298	-9.751300798105888	-2.234196735641671	-0.6845265200698678	1.47200151783074	-0.3626384753877304	0.1851851851851852	-0.4079497907949791	0.6884531590413944
8822.296142578125	0.206010494007181	-9.701980902312203	-2.109301566438165	0.7222655262072208	-0.7246006909302013	1.502187955354849	0.191358024691358	-0.4267782426778242	0.69281045751634
8841.827392578125	0.3886028280370978	-9.624565681138712	-2.083402861837171	0.4064333777655352	0.01219300133296606	2.641631363975594	0.2119341563786008	-0.4121338912133891	0.6884531590413944
8861.358642578125	0.165316426911167	-9.730983571509572	-2.060653590063943	-0.3535317051587504	-1.503143264587598	1.494402529618275	0.1934156378600823	-0.405857740585774	0.6906318082788672
8880.889892578125	0.1663419881303465	-9.628427449591623	-1.904000376840702	-0.3535514298688947	-0.7568751996124847	0.7471482291359507	0.1851851851851852	-0.4121338912133891	0.6775599128540306
8900.421142578125	0.1438402656169204	-9.858397680732205	-2.723804713703674	0.007581333234715798	-1.119175545077585	1.498242206813375	0.1748971193415638	-0.397489539748954	0.701525054466231
8919.952392578125	0.4079874506873034	-9.706305436320172	-2.137801053874792	-0.6542998106817256	0.7266396623959661	1.894058849454149	0.1769547325102881	-0.4184100418410042	0.7037037037037037
8939.483642578125	0.3392314015811689	-9.511203276226551	-1.957016334644001	-1.467097529727291	-1.909684567682864	-0.7738138268089042	0.1893004115226338	-0.4205020920502092	0.6971677559912854
8959.014892578125	0.1433199069687653	-9.910433545547718	-1.867825851945072	-0.3460194084095394	-0.01038058225228618	0.3772546847435149	0.1975308641975309	-0.4100418410041841	0.6775599128540306
8978.546142578125	0.3451655109804214	-9.927893346402321	-2.200013719281019	-0.3460095460544673	-0.383514614739843	0.7508818349846771	0.1893004115226338	-0.4205020920502092	0.7189542483660132
8998.077392578125	0.2960719459385558	-9.786744800083818	-2.324760358928644	0.4214776959741015	2.251450301028477	1.154589974708398	0.1831275720164609	-0.401673640167364	0.6840958605664489
9017.608642578125	0.3490141441664851	-9.543030027795945	-2.089822976109749	0.3535908792891831	-0.7356609303377424	0.7473603718286981	0.1769547325102881	-0.4121338912133891	0.7037037037037037
9037.139892578125	0.4994614490072623	-9.649814695233369	-2.366385009160485	-0.6996004253436504	0.3521463155978994	0.003521463155978994	0.1666666666666667	-0.4121338912133891	0.6993464052287582
9056.671142578125	0.235390044322533	-9.794328901080036	-2.194433251681484	-1.429348661234866	-1.535417773269882	0.7393628033993768	0.1893004115226338	-0.403765690376569	0.7037037037037037
9076.202392578125	0.459218022604602	-9.633753295095362	-1.850832858266096	-0.7222162144318603	-1.141069471507583	0.3659477958509619	0.1954732510288066	-0.4100418410041841	0.6753812636165578
9095.733642578125	0.1650112845582683	-9.761497806799445	-2.082384373453986	0.07540897578920154	4.106739881213975	-0.336291091753898	0.1748971193415638	-0.405857740585774	0.6993464052287582
9115.264892578125	0.2051122438358997	-9.791805919440339	-2.002690688685173	0.7750488505531403	2.262057435665848	1.154696046054772	0.1893004115226338	-0.405857740585774	0.6862745098039217
9134.796142578125	0.2259942869066215	-9.723803632570172	-2.23140498623419	-0.02261578908820999	-1.493215787105482	0.3624263326949829	0.1975308641975309	-0.4100418410041841	0.6884531590413944
9154.327392578125	0.2772167755827838	-9.652059815459001	-2.025285368471668	-0.6694230277308688	1.47245462260091	0.3920830367920469	0.1893004115226338	-0.4142259414225941	0.6993464052287582
9173.858642578125	0.2536622109113429	-9.987314262401066	-2.264505858687708	-1.060713463737117	-0.0318214039121135	-0.000318214039121135	0.2016460905349794	-0.4225941422594142	0.6949891067538128
9193.389892578125	0.1752234493289551	-9.750382339831766	-1.960514357245774	-1.42936838594501	-0.7891497082947683	-0.007891497082947682	0.1872427983539095	-0.403765690376569	0.6949891067538128
9212.921142578125	0.2634702136252103	-10.01661500111534	-2.144660694384161	-1.421826502130583	-0.4157891234221265	-0.004157891234221264	0.1893004115226338	-0.399581589958159	0.6993464052287582
9232.452392578125	0.3258849600598467	-9.835746418257756	-2.114791097574916	0.02264537615342631	0.3738136896428118	0.7584551180285036	0.2119341563786008	-0.403765690376569	0.6971677559912854
9251.983642578125	0.2651959856078296	-9.844037802853409	-2.055206495943158	-0.2932262217085478	2.603143511856206	0.4033899256845999	0.191358024691358	-0.4184100418410042	0.6862745098039217
9271.514892578125	0.00120844454989033	-9.980165646021069	-2.05455175341111	0.06788681668491839	2.987111231366219	0.4072296028796999	0.1831275720164609	-0.4142259414225941	0.701525054466231
9291.046142578125	0.04469628186366924	-9.671785955047218	-2.442738294529684	-0.7222063520767882	-1.51420350399514	0.7395749460921242	0.2037037037037037	-0.405857740585774	0.7124183006535948
9310.577392578125	0.5580619160306647	-9.850374053499197	-2.10309969967627	-1.060693739026972	-0.7780894688872271	0.7469360864432033	0.1893004115226338	-0.4163179916317991	0.6906318082788672
9330.108642578125	0.2656910841274335	-9.79452795089302	-2.153736153370044	-0.6769747739003683	1.472228070215825	0.01472228070215825	0.1934156378600823	-0.399581589958159	0.6710239651416122
9349.639892578125	0.2136835106558994	-9.944780247541381	-2.131465813634147	-0.6618910062715135	2.218949239961109	0.02218949239961108	0.1769547325102881	-0.4184100418410042	0.6819172113289761
9369.171142578125	0.1628813505188294	-9.974491210743325	-2.173863423799655	-1.083319390470254	-1.898171223505152	0.735735268897024	0.1995884773662552	-0.4163179916317991	0.6884531590413944
9388.702392578125	0.1549213788097693	-9.760387371548333	-1.991520659839824	-0.7222162144318603	-1.141069471507583	0.3659477958509619	0.1851851851851852	-0.4079497907949791	0.6775599128540306
9408.233642578125	0.2030732462592452	-9.99570567710578	-2.194724248362394	1.972471014421648e-05	-0.7462680649751136	0.7472543004823244	0.2078189300411523	-0.4142259414225941	0.7080610021786493
9427.764892578125	0.1651274811496038	-9.749878147665884	-1.930287077016243	0.03021684703307	-0.3722278229472168	1.883070174600717	0.1666666666666667	-0.4163179916317991	0.69281045751634
9447.296142578125	0.1869148472276013	-9.591343560068148	-2.194869746702849	0.0528622231864963	0.001585866695594889	2.64152529262922	0.1810699588477366	-0.4142259414225941	0.6993464052287582
9466.827392578125	0.3462961543343739	-9.814829011007063	-2.002430004158525	-0.3233345828358247	-1.129103022559702	2.630218403736667	0.2037037037037037	-0.4184100418410042	0.6840958605664489
9486.358642578125	0.2761134131676666	-9.762396056970726	-1.950005133363325	-1.068245485196472	-0.7783160212723121	0.3695753303533146	0.1893004115226338	-0.4184100418410042	0.7102396514161221
9505.889892578125	0.2250020690571297	-9.823025417519363	-2.054557815841963	-1.053161717567617	-0.03159485152702852	0.3770425420507675	0.1831275720164609	-0.405857740585774	0.69281045751634
9525.421142578125	0.2657991974776327	-9.783716615873098	-2.082487434778475	-1.053161717567617	-0.03159485152702852	0.3770425420507675	0.1769547325102881	-0.4142259414225941	0.701525054466231
9544.952392578125	0.5801039042044587	-9.666377256321834	-1.841154187410411	-0.3083198516924747	2.229556374598479	0.0222955637459848	0.1790123456790124	-0.4100418410041841	0.6971677559912854
9564.483642578125	0.1153246116980201	-9.679660042319206	-2.078789351958576	0.376196806022321	1.130688889255296	0.01130688889255296	0.1872427983539095	-0.3953974895397489	0.6906318082788672
9584.014892578125	0.4286886312375985	-9.65638940149268	-2.155300260529935	-0.3611229007485384	-0.01083368702245615	-0.3774668274362623	0.1810699588477366	-0.397489539748954	0.6862745098039217
9603.546142578125	0.2874946166877038	-9.634376715068006	-2.256621667364301	-1.030526203769263	0.7153528706033401	0.7618705098381089	0.1748971193415638	-0.4100418410041841	0.6862745098039217
9623.077392578125	0.2553788892476838	-9.81564642876698	-2.26600631032365	-1.075787369010899	-1.151676606144954	0.3658417245045882	0.191358024691358	-0.399581589958159	0.6906318082788672
9642.608642578125	0.4482096585819806	-9.724488687256482	-1.855479711514378	-1.444452153573865	-1.535870878040052	-0.01535870878040052	0.1851851851851852	-0.4246861924686192	0.701525054466231
9662.139892578125	0.4782752739887838	-9.748230176879202	-2.149295422770739	-0.6844969330046514	0.3525994203680694	0.7582429753357562	0.1872427983539095	-0.4100418410041841	0.6906318082788672
9681.671142578125	0.2545927940471698	-9.894255948818373	-2.047722425056003	-0.3158420107967578	1.109927724750724	0.7658162583795828	0.1934156378600823	-0.403765690376569	0.6971677559912854
9701.202392578125	0.3053757564865409	-9.866464755386323	-2.197340187275158	-0.3158518731518299	1.483061757238281	0.3921891081384206	0.1810699588477366	-0.4205020920502092	0.6819172113289761
9720.733642578125	0.2656011580697912	-9.803520556657253	-2.04307557180772	0.3837682769019647	0.3846473766652679	1.135921945464766	0.191358024691358	-0.405857740585774	0.6971677559912854
9740.264892578125	0.4865323048096064	-9.932628104897962	-2.390755981186701	-0.6920388168190788	-0.02076116450457237	0.7545093694870298	0.1954732510288066	-0.4184100418410042	0.6971677559912854
9759.796142578125	0.416865880670486	-9.828563448102932	-2.224633250972179	-0.7297679606013598	-1.141296023892668	-0.01141296023892668	0.2016460905349794	-0.405857740585774	0.6949891067538128
9779.327392578125	0.2954889421715937	-9.845045176780031	-2.095357975477892	-0.6845067953597235	0.7257334528556262	0.384615825094594	0.1934156378600823	-0.4225941422594142	0.6884531590413944
9798.858642578125	0.2650312895696757	-9.860507406668802	-1.682294249356936	0.7448911776505029	0.3954810636877241	1.513388772901028	0.1851851851851852	-0.4100418410041841	0.69281045751634
9818.389892578125	0.4077318181863651	-9.731868686414005	-1.664334297957019	0.02265523850849842	0.0006796571552549525	1.132082268269666	0.1954732510288066	-0.4079497907949791	0.6906318082788672
9837.921142578125	0.5804969518047156	-9.627072496296135	-1.950296130044235	1.098462332229542	0.4060881983250952	1.513494844247402	0.1748971193415638	-0.4288702928870293	0.701525054466231
9857.452392578125	0.003476804093789813	-9.753329691631121	-1.588641817550719	2.310023334610277	7.531987267202488	1.962112325502214	0.1975308641975309	-0.4225941422594142	0.6971677559912854
9876.983642578125	0.3693263187370914	-9.53201459093733	-1.957755951207981	2.505165617310981	1.567692281952165	0.01567692281952165	0.205761316872428	-0.4184100418410042	0.6819172113289761
9896.514892578125	-0.4900505355142201	-9.611114157482618	-1.485456213229273	4.634164015664858	0.8852935771863637	1.140928407469977	0.1954732510288066	-0.4330543933054393	0.6993464052287582
9916.046142578125	0.3646451117139795	-10.00013529324852	-1.304441121626094	8.757254976636606	12.20301615676178	1.631464123831769	0.1934156378600823	-0.4246861924686192	0.6775599128540306
9935.577392578125	-1.198123261364297	-9.711316035419593	-0.8005773374149256	7.92953128764334	2.849826237136763	4.934158639729858	0.1810699588477366	-0.4225941422594142	0.6535947712418301
9955.108642578125	0.2199308456491869	-10.33014775831364	-1.261782826933938	9.885036771200172	-5.30046382223713	4.85265573913612	0.1810699588477366	-0.4330543933054393	0.6579520697167757
9974.639892578125	0.02422749449604534	-9.69846267160759	-1.110943484898045	12.8720052926456	1.878697472212204	5.679164333212689	0.2037037037037037	-0.4393305439330544	0.6492374727668846
9994.171142578125	0.2040139334464927	-9.90163695838104	-0.8667790823219608	15.41489019138379	4.940058646040022	6.087136435517005	0.1893004115226338	-0.4414225941422594	0.6296296296296297
10013.70239257812	0.09544590093335266	-9.64732909858393	-0.9056544201622871	19.70299534921882	7.307507770924326	6.110810926765848	0.1893004115226338	-0.4497907949790795	0.627450980392157
10033.23364257812	-0.4038518624408978	-10.08215594105947	-0.942489750020817	20.88445785282736	10.32802627289825	9.159884036313889	0.1851851851851852	-0.4707112970711297	0.6230936819172114
10052.76489257812	0.07302096921072235	-9.869620250644941	-0.9573972674866045	21.779240010292	2.519048842099805	8.704435771439867	0.1975308641975309	-0.4937238493723849	0.6034858387799565
10072.29614257812	0.1537877042403905	-9.873754828486204	-1.209321581553624	22.41093389424058	-0.07394063988920038	7.546430404921863	0.2139917695473251	-0.4979079497907949	0.5904139433551199
10091.82739257812	0.3372924341135773	-9.705100022985709	-1.148548743474817	23.21613055534129	4.427827200242328	7.968806573889216	0.1810699588477366	-0.506276150627615	0.5642701525054467
10111.35864257812	0.01579364277536428	-9.531746833574685	-0.6178435466651221	24.97643458206698	4.480636321044099	7.591976174531196	0.2098765432098766	-0.5188284518828451	0.5468409586056645
10130.88989257812	-0.2209402403860936	-9.972811917397241	-0.7533752507989754	24.49465140264268	-1.877100756428182	7.528398803756473	0.1995884773662552	-0.5460251046025104	0.5272331154684097
10150.42114257812	0.1195177930375225	-10.27044291846998	-0.5426299982961539	25.77313280052378	-6.689492583148466	5.593482432659082	0.2098765432098766	-0.5606694560669455	0.514161220043573
10169.95239257812	0.404415668510161	-10.06348365403441	-0.4890290159156088	28.95525346702499	-5.847760306437012	4.84718277429412	0.2283950617283951	-0.5857740585774058	0.514161220043573
10189.48364257812	0.4431172166660549	-10.23373287884906	-0.26483122935155	30.35443459300215	-5.805784872657696	4.092885547499838	0.2119341563786008	-0.5878661087866108	0.4989106753812637
10209.01489257812	-0.02907339755731122	-9.978046826438195	0.1169685408641335	31.00873440368387	-6.532424535053663	2.19882669804569	0.2160493827160494	-0.6380753138075314	0.4880174291938998
10228.54614257812	0.1604705238499011	-10.21557387763616	-0.02432550379482395	33.78452031597025	-9.434225584550742	2.547167178116757	0.2263374485596708	-0.6171548117154811	0.4684095860566449
10248.07739257812	0.2494468006587155	-10.40885528766381	0.01740523897693213	36.7262473968842	-4.868361831824817	3.72490128734213	0.2407407407407408	-0.6610878661087866	0.4684095860566449
10267.60864257812	0.2293680296759224	-10.3965303657411	0.1996388791814215	39.01359576827583	3.409213843197529	3.807677044092353	0.2366255144032922	-0.6610878661087866	0.44880174291939
10287.13989257812	-0.1027986191520415	-10.27986191520416	0.09103952410887801	40.14219604869788	6.428146478475862	4.215224861011174	0.2345679012345679	-0.6861924686192468	0.4509803921568628
10306.67114257812	-0.01269877182526889	-10.36078627343598	0.2596114763877261	42.99342052383868	6.513683212730086	5.348155700051829	0.2427983539094651	-0.7217573221757322	0.4422657952069717
10326.20239257812	-0.02807309646668294	-9.878016717375369	0.02096994831808017	45.60420210161686	12.18902158543657	6.536984555477008	0.2530864197530864	-0.7175732217573221	0.4357298474945534
10345.73364257812	-0.9273730786906254	-9.909025040779701	0.1720426939417856	40.73622982534967	0.1026839096858636	4.906687216455349	0.2510288065843622	-0.7364016736401673	0.4531590413943355
10365.26489257812	-0.09918136874350696	-9.918136874350697	-0.09285825336456574	39.94515051069328	-18.57776488766428	1.701014803953546	0.2674897119341564	-0.7573221757322175	0.4531590413943355
10384.79614257812	0.1614708249405294	-10.11554376857333	-0.1203240963408773	41.37448930957307	-16.66921308190684	0.5880248503130072	0.2654320987654321	-0.7635983263598326	0.4357298474945534
10404.32739257812	0.9654653525458641	-10.5241718161207	1.02890060817397	40.19403267656939	-6.256865586867097	1.824223796961518	0.271604938271605	-0.7845188284518828	0.4618736383442266
10423.85864257812	0.02319789165629765	-9.801422955582359	0.7121810331576472	43.89666167452694	15.86913865620596	5.819068745052626	0.2654320987654321	-0.7928870292887029	0.4444444444444445
10443.38989257812	-0.7471269054005458	-10.06622589358993	0.9740659211149831	43.68557768891862	2.056835987383977	9.077172133458745	0.2695473251028807	-0.807531380753138	0.4466230936819173
10462.92114257812	-0.8980713295712111	-10.00915315914131	1.328945467131061	42.54189364086773	-1.70881781763964	8.662157104842473	0.2798353909465021	-0.8263598326359832	0.4749455337690632
10482.45239257812	-0.4834374338595109	-9.959905002112709	1.022422900808295	43.39144422015595	-12.50422682264905	8.931561505358417	0.2839506172839507	-0.8430962343096233	0.4618736383442266
10501.98364257812	-0.03966648506655048	-10.02725456726111	1.235614344160017	46.00976768174857	-6.455527865069931	10.12412396663232	0.2839506172839507	-0.8305439330543932	0.4640522875816994
10521.51489257812	-0.08187514947049568	-10.20771696725159	1.286775198122514	47.66542216919161	4.41503729194142	11.36490508990055	0.2818930041152264	-0.8723849372384936	0.4880174291938998
10541.04614257812	-0.5241779795920593	-9.993555534963502	1.616292564668026	49.26832291935396	11.17954222489405	14.07405957319234	0.2736625514403292	-0.8514644351464434	0.4923747276688454
10560.57739257812	-0.8972529014061517	-9.927310342635357	1.43405589324811	49.96045049736868	7.842097097010613	16.68219455587577	0.2633744855967078	-0.8953974895397488	0.4945533769063181
10580.10864257812	-1.007493154429382	-9.840224533847318	1.841348185197684	48.43306720890133	1.079857687908831	17.74664763348286	0.2592592592592593	-0.8765690376569036	0.5119825708061002
10599.63989257812	-0.7651656684015425	-9.849900173487576	2.368540203328475	47.89091937189639	-7.145361971081914	16.53231996519484	0.2654320987654321	-0.8974895397489538	0.514161220043573
10619.17114257812	-0.5737999865232163	-9.905251177574149	2.266676208932829	49.32781977930076	-5.609717645426947	16.17031791788536	0.2633744855967078	-0.9100418410041841	0.5555555555555556
10638.70239257812	-0.341201691608164	-9.877744918392155	2.452195686659261	51.55486266724219	-1.438428746848406	17.34410627856925	0.2613168724279836	-0.8953974895397488	0.5620915032679739
10658.23364257812	-0.9471982379827641	-9.871338949791566	2.890900464069988	51.97633050086122	1.186155586667628	18.12506910303649	0.2654320987654321	-0.9184100418410041	0.5751633986928105
10677.76489257812	-1.069995806111377	-10.02988364144072	2.952452324513315	51.16364126772145	-5.554643000774327	19.56709507942622	0.257201646090535	-0.9100418410041841	0.5686274509803922
10697.29614257812	-1.089248065687974	-9.934907578898422	3.320644968681028	50.97514348413613	-16.75432778502816	21.34189068441387	0.2304526748971193	-0.9184100418410041	0.6056644880174292
10716.82739257812	-0.5826905413681034	-9.784205651961848	3.242336549361965	53.84151090103622	-18.16087407595399	24.72405163659895	0.2304526748971193	-0.901673640167364	0.6143790849673203
10736.35864257812	-0.7523587832260744	-9.579312666041774	3.190278455633328	54.64670756213692	-13.65910623582246	25.1464278055663	0.2283950617283951	-0.9205020920502092	0.6514161220043574
10755.88989257812	-0.7429195783890548	-9.645493192440824	3.66181129610922	56.52767186753839	-7.259393724570863	24.45570794954675	0.2304526748971193	-0.9309623430962343	0.6535947712418301
10775.42114257812	-1.036166431550442	-9.677249215650276	3.940119309245417	56.87366168888272	-6.129611044855906	22.95757181407975	0.2304526748971193	-0.9267782426778242	0.6601307189542485
10794.95239257812	-1.10287742064907	-9.277641054805985	4.37357402153806	59.58907308123339	-10.52576064338389	21.78153484639635	0.220164609053498	-0.9309623430962343	0.6906318082788672
10814.48364257812	-0.9309974019351542	-9.261356355131582	4.325602006203868	62.80137114534739	-8.563720059669429	21.42379676166746	0.2242798353909465	-0.9225941422594142	0.6906318082788672
10834.01489257812	-1.346224405465237	-9.369915293998444	4.760466233669669	63.83944909528615	-9.278846377887685	21.03928700791924	0.2098765432098766	-0.8974895397489538	0.7189542483660132
10853.54614257812	-1.142241794578148	-9.173674407309733	4.590499922294793	65.2537337136023	-9.2364178393382	21.03971129330473	0.205761316872428	-0.8974895397489538	0.7407407407407408
10873.07739257812	-1.223824936962592	-9.25118056494601	4.757525954706307	65.23111792451408	-10.72963362644368	21.40213762599972	0.1954732510288066	-0.8891213389121339	0.7647058823529412
10892.60864257812	-1.573723185628369	-8.887470077988427	5.075242799597831	64.08742401410812	-14.12215339897974	20.61349544714228	0.1975308641975309	-0.8828451882845187	0.786492374727669
10912.13989257812	-1.25147669448504	-8.98605328688784	4.952323982852173	65.06515703117641	-17.45103036369157	19.82548969636309	0.2098765432098766	-0.8661087866108785	0.7908496732026145
10931.67114257812	-1.097334338039791	-8.723332793878029	5.270031734097419	65.42624048250465	-15.94766054671889	18.7084479228347	0.205761316872428	-0.8702928870292886	0.8257080610021788
10951.20239257812	-1.106834167185333	-8.66321469833127	5.202235569876231	65.18582717220724	-11.47726100572931	19.88522738994271	0.1893004115226338	-0.8619246861924685	0.8366013071895426
10970.73364257812	-1.178502203910852	-8.759311300176103	5.550249412952088	66.24655049829943	-11.81857363430475	20.25917275422299	0.1975308641975309	-0.8556485355648534	0.860566448801743
10990.26489257812	-1.395650393798837	-8.251908066752337	5.351225870502174	67.39026413341553	-9.172321926743802	21.79506923356275	0.1810699588477366	-0.8179916317991631	0.8845315904139435
11009.79614257812	-1.493781951599755	-7.964053745834063	5.657566563899371	65.96842776892987	-9.214977017678372	21.41728419208737	0.1995884773662552	-0.8200836820083681	0.9084967320261439
11029.32739257812	-1.5333665938498	-7.882113930434477	5.69157073854988	65.27639881446588	-9.6088722146705	22.54542071181556	0.1851851851851852	-0.8242677824267781	0.89760348583878
11048.85864257812	-1.593533188843377	-7.838167369186207	5.92548963298559	65.55454126854558	-12.95873689627199	22.13456357443351	0.1748971193415638	-0.7824267782426778	0.9520697167755993
11068.38989257812	-1.077076725346855	-7.707672534685467	5.866471868638522	64.13267531699469	-11.88198988974389	20.63589708223464	0.1872427983539095	-0.7866108786610878	0.9520697167755993
11087.92114257812	-1.186256052970934	-7.514494185982305	5.774028891787338	63.13226733670778	-7.8075245172122	19.54456626426184	0.1790123456790124	-0.7594142259414225	0.982570806100218
11107.45239257812	-1.112262063608419	-7.185802320437848	6.467971101725863	61.70284963898741	-6.731004063069183	17.66853901597308	0.1728395061728395	-0.7447698744769874	1
11126.98364257812	-1.362924381653019	-6.999508872372606	6.414173090342619	62.04129757651731	-5.974581968226869	16.16666927465736	0.168724279835391	-0.7154811715481171	1.008714596949891
11146.51489257812	-1.533555539611362	-6.890907496489779	6.832038261698591	61.27377088506844	-7.117010754044962	14.26845253396899	0.2016460905349794	-0.707112970711297	1.013071895424837
11166.04614257812	-1.613820103285433	-6.83655578308869	7.056175423954127	60.85229318909435	-9.368461055073437	13.11386255926059	0.168724279835391	-0.7092050209205021	1.03921568627451
11185.57739257812	-1.521401376157658	-6.685592161220327	7.185859913530944	60.79195811857893	-12.35534573405457	13.08399371247078	0.1810699588477366	-0.6631799163179916	1.07843137254902
11205.10864257812	-1.107230246001016	-6.682620559697562	7.30126131601976	61.89039086374326	-10.82985543826681	13.47660710599469	0.1769547325102881	-0.6715481171548117	1.07843137254902
11224.63989257812	-1.265692084428524	-6.367188240832209	7.214438212568651	62.31184883500721	-7.832137072263217	13.88394278022077	0.1728395061728395	-0.608786610878661	1.093681917211329
11244.17114257812	-1.515026730116472	-6.04812755710176	7.308705981106375	61.24357376274552	-7.491050996072859	13.13263665985059	0.1769547325102881	-0.608786610878661	1.104575163398693
11263.70239257812	-1.431808752212194	-5.807137847481992	7.331688656467416	61.2737511603583	-6.370742689069848	13.52119823348666	0.1584362139917695	-0.5753138075313807	1.14161220043573
11283.23364257812	-1.418681568606696	-5.504520497033244	7.316647765522879	60.19041204517791	-7.522645847599888	13.50967920190136	0.1790123456790124	-0.5627615062761506	1.135076252723312
11302.76489257812	-1.309174869716593	-5.664961719134027	7.653155114841083	59.07685608296443	-8.302321183182709	11.61508999571534	0.1790123456790124	-0.5481171548117154	1.148148148148148
11322.29614257812	-1.397623715041258	-5.41893716069143	7.836289026027139	59.12963940731036	-5.31566305658666	11.26759808641527	0.1769547325102881	-0.50836820083682	1.156862745098039
11341.82739257812	-1.396495092497589	-5.306074906324583	8.013660596688089	59.88956504081435	-2.307790660715868	10.92031831980794	0.1790123456790124	-0.4999999999999999	1.172113289760349
11361.35864257812	-1.455369379314487	-5.132897527408276	8.041932742967756	60.62689460994028	-1.539402116925672	11.68271918637791	0.1769547325102881	-0.4602510460251046	1.191721132897604
11380.88989257812	-1.562613781091543	-4.746226594002775	8.11069889612531	59.89713651169399	-3.053832173305897	12.04493337638015	0.1748971193415638	-0.4581589958158995	1.183006535947712
11400.42114257812	-1.531295263308599	-4.644677846011448	8.227200629813817	59.15985625434342	-5.687890879533876	13.15066826101598	0.1604938271604938	-0.4581589958158995	1.198257080610022
11419.95239257812	-1.437998494112384	-4.405910017299046	8.048152797022208	58.48288148044306	-4.215662809318051	13.16539054171814	0.1748971193415638	-0.405857740585774	1.211328976034858
11439.48364257812	-1.38465415463792	-4.121981120357633	8.264902887284226	56.70749368608851	-5.015193099865106	13.53475372937871	0.1728395061728395	-0.405857740585774	1.213507625272331
11459.01489257812	-1.313961158874478	-4.123388614720507	8.265539442523716	55.63922847618188	-5.047241056162304	13.1570747592497	0.1769547325102881	-0.3577405857740585	1.230936819172114
11478.54614257812	-1.492324947384921	-3.77794928394659	8.109310599460136	53.48759456402966	-5.111790073526872	11.6469953068119	0.1790123456790124	-0.3242677824267782	1.250544662309368
11498.07739257812	-1.329414295116972	-3.64850021876787	8.248725290554882	52.47213240317911	-2.903447968203134	11.66907872786514	0.191358024691358	-0.299163179916318	1.239651416122004
11517.60864257812	-1.568750981924347	-3.339744657081176	8.342577782579225	50.69672488411442	-2.956710193775075	11.29118761504338	0.1810699588477366	-0.2866108786610879	1.250544662309368
11537.13989257812	-1.437348803606047	-3.330839956564301	8.485751180802392	48.86851431599366	-5.250362480967952	10.51353411103938	0.154320987654321	-0.2928870292887029	1.270152505446623
11556.67114257812	-1.228583945181641	-3.666475326244917	8.673077262922808	47.77763331699883	-6.775626224370633	10.49828147360535	0.1748971193415638	-0.2552301255230126	1.272331154684096
11576.20239257812	-1.273031667380367	-3.060742495612392	8.551404275717296	47.46176171913686	-4.546296402157238	10.14321628126145	0.1893004115226338	-0.2364016736401673	1.261437908496732
11595.73364257812	-1.563280648485295	-2.792711313175974	8.511398294523016	47.18363898976731	-1.942699785530861	11.30132771912582	0.1748971193415638	-0.2092050209205021	1.291938997821351
11615.26489257812	-1.339550679502005	-2.641936637069172	8.884810691654554	46.13800929365905	-1.227800019697691	11.30847671678416	0.1769547325102881	-0.198744769874477	1.305010893246187
11634.79614257812	-1.154964816126826	-2.365168481369459	8.647969705548038	45.45346304887904	0.9904695631081621	10.1985839409141	0.1666666666666667	-0.1736401673640167	1.294117647058824
11654.32739257812	-1.587901190581598	-2.224462492503173	8.721382711953876	43.73083885416025	3.923865464132271	9.473200918792267	0.1728395061728395	-0.1527196652719665	1.305010893246187
11673.85864257812	-1.415316919483674	-2.137752554427974	8.646635970760533	42.25622902768376	0.5214182141140949	9.816534936858123	0.1728395061728395	-0.1443514644351464	1.32244008714597
11693.38989257812	-1.574257689948513	-1.870213439295733	8.820039680428659	41.86493859167751	-0.9828578123989284	9.424133686026956	0.168724279835391	-0.09623430962343095	1.291938997821351
11712.92114257812	-1.149679386828769	-1.836625551563748	8.987581019462617	41.52646106708239	-0.6198778097785728	9.805121976619196	0.1666666666666667	-0.1066945606694561	1.309368191721133
11732.45239257812	-1.370449879150998	-1.691452561564466	8.921924893332289	40.89475732077874	2.346245704697989	10.58950019289604	0.1728395061728395	-0.06903765690376569	1.311546840958606
11751.98364257812	-1.459628236988223	-1.51837925437779	8.8791817246082	39.10427589644026	1.173128276893208	10.57776901861799	0.1728395061728395	-0.0606694560669456	1.313725490196079
11771.51489257812	-1.628966076364743	-1.280446020312721	9.1015062200389	37.298720566828	-1.119844353144414	10.93219778288365	0.1769547325102881	-0.02510460251046025	1.30718954248366
11791.04614257812	-1.344804786240659	-1.147145290732511	8.858487616893898	35.76374608277087	-6.389774184681054	10.12478150343621	0.1790123456790124	-0.02719665271966527	1.300653594771242
11810.57739257812	-1.639074169405799	-1.281154314317297	9.01046063349917	34.32683581301143	-7.552284477848463	10.11315640050453	0.168724279835391	-0.02301255230125523	1.311546840958606
11830.10864257812	-1.101903390092135	-1.0994299183044	9.065322601496991	34.36454523208356	-5.685481553485255	10.13182442974817	0.1666666666666667	0.004184100418410041	1.305010893246187
11849.63989257812	-1.057314211173523	-0.6809160668472323	8.581643680808531	34.49275725692883	0.6616483893496559	10.19529572917652	0.1790123456790124	0.01464435146443514	1.309368191721133
11869.17114257812	-1.360268026534573	-0.673267299921923	8.740612742617348	32.44674916759887	4.331611430251846	10.23199535958554	0.168724279835391	0.03765690376569037	1.326797385620915
11888.70239257812	-1.59193674871894	-0.6078162860354301	8.761770626291849	30.67136137324432	3.532081139704792	10.60135854724611	0.1872427983539095	0.04811715481171547	1.328976034858388
11908.23364257812	-1.396927545898387	-0.2988151958992183	8.738766732422825	28.12092472833663	0.47049341349189	9.816025688851902	0.1810699588477366	0.07740585774058577	1.324618736383442
11927.76489257812	-1.334949294485115	-0.1615961151781434	8.443217165942707	24.53242985820032	-2.622236059477871	10.16245688468824	0.1646090534979424	0.07949790794979079	1.32244008714597
11947.29614257812	-1.082896658965056	-0.2088578156974745	8.26155642545376	20.86092495432995	-7.956261803608906	8.59968266498278	0.1748971193415638	0.09414225941422594	1.320261437908497
11966.82739257812	-1.093022939298668	-0.2113848389577385	7.988601538760138	18.32560166411633	-11.3905304575392	8.942698469009514	0.191358024691358	0.08786610878661087	1.320261437908497
11986.35864257812	-1.121247596536659	-0.003547532453733216	8.513862672664473	13.29261519098587	-14.52659467859878	7.779262355100805	0.1831275720164609	0.1066945606694561	1.315904139433551
12005.88989257812	-0.8185746738050982	-0.03928556232799809	8.575708561004136	11.12589751120479	-15.33786486570863	6.261715690965556	0.191358024691358	0.1317991631799163	1.318082788671024
12025.42114257812	-0.8267801739636763	0.1502654319152085	8.322477793088447	7.229033477600642	-14.33536780164213	4.762306699342069	0.2016460905349794	0.1108786610878661	1.313725490196079
12044.95239257812	-0.6967794275773979	0.01902693922992034	8.58994314864532	7.650461861799383	-10.21824733817587	4.048760922844656	0.2037037037037037	0.1297071129707113	1.320261437908497
12064.48364257812	-0.8984300233966385	0.05598755932606424	8.852400936318197	6.70288651763375	-5.022794001485913	4.478073946777594	0.1995884773662552	0.1380753138075314	1.331154684095861
12084.01489257812	-0.8171257528314003	0.1056065350417951	8.926401998516706	5.25841463934974	-5.812396814550851	3.715460937514869	0.2119341563786008	0.1422594142259414	1.302832244008715
12103.54614257812	-0.6588851931300009	-0.2319536564344252	8.820197303630819	4.588971886908726	-3.593674126974828	3.360289673824592	0.220164609053498	0.1317991631799163	1.318082788671024
12123.07739257812	-0.8877257913217738	0.1163097567115177	8.845423078407208	4.634233052150363	-1.726644650226534	3.756318459158112	0.2222222222222222	0.1527196652719665	1.315904139433551
12142.60864257812	-0.8691505031903493	-0.04636345034804972	8.776869110329484	1.737776998833134	-4.798612958691723	3.348240285507423	0.2160493827160494	0.1213389121338912	1.318082788671024
12162.13989257812	-0.7773339775272358	0.044380025054208	8.943940610972389	0.6543984342324467	-4.457979987271534	1.842212652957473	0.2304526748971193	0.1234309623430962	1.318082788671024
12181.67114257812	-0.7640804932789821	0.3596274397785654	9.182057738773311	-0.7372506702853545	-3.75346080369065	2.22661633535932	0.2078189300411523	0.1297071129707113	1.30718954248366
12201.20239257812	-0.6435068268680187	0.2957819596627879	9.099263120623551	-1.090841549574537	-3.017799873352908	1.479255963530622	0.2242798353909465	0.1380753138075314	1.32244008714597
12220.73364257812	-0.5444012385101653	0.1053306944380158	9.444266966781244	-2.144032854207371	-1.929992627417266	0.7354170548579029	0.2263374485596708	0.1297071129707113	1.315904139433551
12240.26489257812	-0.8683260125944375	0.03608560924312968	8.942615969831163	-2.121407202764089	-0.8099108727993406	0.7466178724040822	0.205761316872428	0.1422594142259414	1.309368191721133
12259.79614257812	-0.8478794541399386	0.06053943449099394	9.408689591324565	-2.505175479666053	-1.194558249464609	-0.3893040730606839	0.2448559670781893	0.1464435146443515	1.298474945533769
12279.32739257812	-0.8347411560778786	0.3642682305959953	9.504815494918518	-2.106333297490306	0.3099443294334998	0.3804579338603727	0.2366255144032922	0.1150627615062761	1.296296296296297
12298.85864257812	-1.047805288381702	0.2699762123348624	9.750495505207676	-2.106333297490306	0.3099443294334998	0.3804579338603727	0.2263374485596708	0.1380753138075314	1.320261437908497
12318.38989257812	-0.9997706279287036	0.02293720712964906	9.38508854801659	-2.505165617310981	-1.567692281952165	-0.01567692281952165	0.220164609053498	0.1317991631799163	1.289760348583878
12337.92114257812	-1.059523967219183	0.1082093386877127	9.711986944433912	-1.820639097241114	-3.039693799782905	0.3469615525682087	0.2345679012345679	0.1380753138075314	1.302832244008715
12357.45239257812	-1.118997424285316	0.2214696926805272	9.807964318471983	-1.451994037388292	-1.909231462912694	-0.01909231462912694	0.2304526748971193	0.1129707112970711	1.318082788671024
12376.98364257812	-0.9705588048669318	-0.08618351699619163	9.642550892667179	-0.3233937569662573	1.109701172365639	0.3884555022896942	0.2283950617283951	0.1171548117154812	1.313725490196079
12396.51489257812	-1.110099796604435	0.1011314506676611	9.91314749375926	0.04528088995178051	1.12076141177318	1.143283085815845	0.2366255144032922	0.1338912133891213	1.300653594771242
12416.04614257812	-1.062144958157658	-0.1538897551597374	9.759461840438217	-0.3611031760383941	-0.7571017519975698	0.3697874730460621	0.2427983539094651	0.1317991631799163	1.305010893246187
12435.57739257812	-0.9986238180924782	0.1376181907521841	9.744369418831434	0.6921078533045836	-2.591177062908325	1.860880682201105	0.2345679012345679	0.1255230125523012	1.309368191721133
12455.10864257812	-1.019737243940729	0.04647762612910124	9.678995195735736	1.030585377899696	-2.954157065528681	1.479892391608864	0.2407407407407408	0.1464435146443515	1.298474945533769
12474.63989257812	-0.7570713128085897	0.0504444767167847	9.590911106667351	1.421856089195799	-0.7036129740405439	1.125039341957708	0.2098765432098766	0.1297071129707113	1.311546840958606
12494.17114257812	-0.7585950037627993	-0.1019246187041694	9.502469334178681	2.550456369617834	2.315319661237789	1.532587158876529	0.2386831275720165	0.1276150627615063	1.300653594771242
12513.70239257812	-1.008244895855067	0.1856114245943585	9.473945597018643	1.865939711903039	3.414187146580972	1.543575833729961	0.2345679012345679	0.1422594142259414	1.302832244008715
12533.23364257812	-1.207192657919327	0.4928554201885476	9.497419329278721	2.181821172120085	0.8117232918800206	2.272268176315027	0.2181069958847737	0.1422594142259414	1.331154684095861
12552.76489257812	-1.1992983625445	0.2721839475702389	9.668282880419735	0.6996497371190109	-2.217816478035683	1.864614288049832	0.2078189300411523	0.1380753138075314	1.30718954248366
12572.29614257812	-0.8467195090368667	0.1765339447981924	9.899349401139441	-0.4138470509640251	-5.236296008543846	2.211787983310788	0.2427983539094651	0.1338912133891213	1.296296296296297
12591.82739257812	-1.218269729491607	0.3952492730614947	9.815660574438969	-0.8051276246152008	-7.113706067544427	2.193013882720782	0.2407407407407408	0.1464435146443515	1.298474945533769
12611.35864257812	-0.8996546344288017	-0.06647354389024632	9.735154523935948	-0.5194334243660083	-10.46334419676083	2.159517501428618	0.2489711934156379	0.1401673640167364	1.302832244008715
12630.88989257812	-0.7376745652966796	-0.03008279229421793	9.65778578139899	0.5638859661042462	-8.565172973255679	1.423782232531594	0.2325102880658436	0.1192468619246862	1.300653594771242
12650.42114257812	-0.6479142140976354	-0.1449567632988843	9.461020494441556	2.760741594077825	-5.141058349192591	1.835381869338263	0.2427983539094651	0.1464435146443515	1.309368191721133
12669.95239257812	-0.990167737458672	-0.02687475596821308	9.473603069675489	3.219908984413919	-0.2765370588257914	2.261385572807969	0.2510288065843622	0.1380753138075314	1.305010893246187
12689.48364257812	-0.7065975343426858	0.04731727280214376	9.379138272135066	3.250066657316557	1.590039313152332	1.902692845961712	0.2551440329218107	0.1359832635983264	1.318082788671024
12709.01489257812	-1.129235859589696	0.2077271723435219	9.423336424263704	2.505185342021126	0.8214242169770517	0.762931223301846	0.2654320987654321	0.1527196652719665	1.302832244008715
12728.54614257812	-1.009063324020126	0.1037686080884084	9.368835170901594	1.36152101868038	-3.690497653021678	1.095170495167896	0.2530864197530864	0.1401673640167364	1.315904139433551
12748.07739257812	-0.8350614545079079	0.3322383875930494	9.331493628066898	0.6845462447800119	-2.218269582805854	1.109892775870055	0.2469135802469136	0.1380753138075314	1.313725490196079
12767.60864257812	-0.756890450288163	0.06853072875945763	9.379696015773476	-0.03014781054756524	-2.239710404465681	0.7323198770874187	0.2592592592592593	0.1422594142259414	1.289760348583878
12787.13989257812	-0.6648768956223501	0.1789771044316663	9.497249581214856	0.669442752441013	-2.218722687576024	0.3551712636902775	0.2551440329218107	0.1422594142259414	1.287581699346405
12806.67114257812	-0.5140991883001229	0.105232685139237	9.495070137323458	1.467107392082363	1.536550535195307	1.147440977050066	0.2592592592592593	0.1527196652719665	1.300653594771242
12826.20239257812	-0.7061974139064344	0.08732931642727494	9.340738835116644	1.429397973010226	-0.3302523891679021	1.128772947806434	0.2427983539094651	0.1464435146443515	1.289760348583878
12845.73364257812	-0.6961974342155778	0.07722627541192932	9.360535703064805	1.421865951550871	-1.076747006528101	1.49866649219887	0.2448559670781893	0.1276150627615063	1.300653594771242
12865.26489257812	-0.7051849879541017	0.1885719116605614	9.366013109339852	0.3234134816764015	-1.855969237340753	0.3587987981926302	0.220164609053498	0.1610878661087866	1.315904139433551
12884.79614257812	-0.5233918843915455	0.1860640860979964	9.47881676020846	-0.03771928142720893	-1.493668891875652	-0.3922951794847943	0.2489711934156379	0.1464435146443515	1.313725490196079
12904.32739257812	-0.8060597957156822	0.2021012365125944	9.507094968918979	0.6920486791741509	-0.3523728679829845	-0.3808822192458676	0.2304526748971193	0.1485355648535565	1.285403050108933
12923.85864257812	-0.5440849817007041	0.1369563753841422	9.577164544709778	-0.03774886849242525	-0.3742667944129817	-1.513176630208281	0.2551440329218107	0.1464435146443515	1.302832244008715
12943.38989257812	-0.8071702309667939	0.09105771140143488	9.511632698411921	0.7222063520767882	1.51420350399514	-0.7395749460921242	0.2551440329218107	0.1317991631799163	1.302832244008715
12962.92114257812	-0.8066700804214797	0.1410727659328488	9.463633402138894	1.083329252825327	1.525037191017595	-0.3621081186558618	0.2551440329218107	0.1715481171548117	1.300653594771242
12982.45239257812	-0.8364659176553558	0.1917920728482708	9.425467368708286	1.429348661234866	1.535417773269882	-0.7393628033993768	0.2674897119341564	0.1401673640167364	1.302832244008715
13001.98364257812	-0.6978999668799299	-0.09302699102328793	9.503521165931552	1.467067942662075	3.029086665145534	-0.3470676239145824	0.2674897119341564	0.1380753138075314	1.315904139433551
13021.51489257812	-0.998930981255661	0.1069018744339016	9.702426490979848	1.482161572646002	3.402673802403261	0.03402673802403261	0.2530864197530864	0.1527196652719665	1.291938997821351
13041.04614257812	-1.058023515583241	0.2582545022819546	9.567989055614833	0.7448418658751425	2.261151226125508	-0.3547469783047827	0.2674897119341564	0.1589958158995816	1.313725490196079
13060.57739257812	-0.8141268703697995	0.4054947812018691	9.628295086518014	1.421826502130583	0.4157891234221265	0.004157891234221264	0.2613168724279836	0.1422594142259414	1.313725490196079
13080.10864257812	-0.8461496405367511	0.2335207948097429	9.538568078688657	0.6769747739003683	-1.472228070215825	-0.01472228070215825	0.2345679012345679	0.1610878661087866	1.309368191721133
13099.63989257812	-0.6937633682283824	0.3206328741314773	9.463639464569747	0.676945186835152	-0.3528259727531544	-1.135603731425645	0.2407407407407408	0.1631799163179916	1.291938997821351
13119.17114257812	-0.744248261150849	0.3226486323898646	9.564245504563543	0.3912805736511757	1.87741005900058	0.0187741005900058	0.2633744855967078	0.1631799163179916	1.302832244008715
13138.70239257812	-0.8560657566008177	0.2520101985040932	9.347474195793541	0.04525130288656418	2.240163509235851	0.02240163509235851	0.2592592592592593	0.1527196652719665	1.296296296296297
13158.23364257812	-0.9150208758290793	0.4171043362840094	9.577361573712476	-1.444481740639081	-0.4164687805773815	-1.136240159503887	0.2366255144032922	0.1527196652719665	1.313725490196079
13177.76489257812	-0.9467475972894105	0.274735220553912	9.418410699196217	-1.098432745164325	-1.525490295787766	-0.3926133935239154	0.2510288065843622	0.1527196652719665	1.311546840958606
13197.29614257812	-0.8463638464268655	0.212100205798309	9.416282785967063	-1.083358839890543	-0.4056350935549253	-0.7587733320676248	0.2592592592592593	0.1548117154811715	1.30718954248366
13216.82739257812	-0.7258689916169819	0.1403735655745511	9.555315543918114	0.02262565144328209	1.120081754617925	0.01120081754617925	0.2407407407407408	0.1485355648535565	1.287581699346405
13236.35864257812	-0.7653697702402362	0.2306997436531427	9.41802270362167	-0.3158715978619742	2.229329822213395	-0.3550651923439038	0.2469135802469136	0.1569037656903766	1.296296296296297
13255.88989257812	-0.9765161535844512	0.3281826213528657	9.653108615996446	-1.361501293970236	2.944229588046565	-0.3479161946855721	0.271604938271605	0.1548117154811715	1.289760348583878
13275.42114257812	-0.7854626868950181	0.2416100983769853	9.458771332595354	-0.3158617355069021	1.856195789725838	0.01856195789725838	0.2654320987654321	0.1443514644351464	1.305010893246187
13294.95239257812	-0.8667447285471312	0.1942140139737617	9.607103859473824	-1.722594607653558	1.813993803561438	0.3954984286016521	0.2489711934156379	0.1715481171548117	1.294117647058824
13314.48364257812	-0.9775417148036307	0.2256264994349158	9.496455402773206	-1.038058225228618	-0.03114174675685855	1.131764054230545	0.2386831275720165	0.1548117154811715	1.311546840958606
13334.01489257812	-0.9362292797606829	0.3164659633256682	9.572117571025244	-1.77538779435455	-0.7995302905470545	0.3693631876605672	0.2530864197530864	0.1673640167364017	1.300653594771242
13353.54614257812	-0.7147525142441613	0.2419202927555943	9.631211115757965	-1.399190988332229	0.3311585987082421	0.3806700765531202	0.2448559670781893	0.1569037656903766	1.318082788671024
13373.07739257812	-0.7664610077936489	0.1215759883118759	9.614575805499275	-0.6392456301180872	2.592762929603921	0.7806446104281147	0.2489711934156379	0.1443514644351464	1.289760348583878
13392.60864257812	-0.6423347569032422	0.4129889561404448	9.711195797207688	-0.6618910062715135	2.218949239961109	0.02218949239961108	0.2427983539094651	0.1401673640167364	1.335511982570806
13412.13989257812	-0.915927209241497	0.3264709950422351	9.603123873619294	-1.030545928479407	1.461620935578454	0.01461620935578454	0.2407407407407408	0.1422594142259414	1.298474945533769
13431.67114257812	-0.8683674392052615	0.03194294816072973	9.53836801847053	-1.376565336888947	1.451240353326168	0.3918708940992994	0.2551440329218107	0.1569037656903766	1.298474945533769
13451.20239257812	-0.7949625160405607	0.3017281939237448	9.390975168374167	-0.6467875139325145	2.219402344731279	0.7769110045793883	0.2530864197530864	0.1569037656903766	1.324618736383442
13470.73364257812	-0.7038603468128757	0.3210360257831548	9.483760672568506	-1.338846055461738	2.94490924520182	0.7841660735840937	0.2592592592592593	0.1631799163179916	1.315904139433551
13490.26489257812	-0.90778637501201	0.1304534078899163	9.209566018765589	-2.068623878418169	2.176747253796709	0.3991259631040048	0.2283950617283951	0.1631799163179916	1.315904139433551
13509.79614257812	-0.8845147237803428	0.4374165108546159	9.649389314668566	-2.467475922948989	1.045378707386157	-0.744263194058214	0.2427983539094651	0.1464435146443515	1.296296296296297
13529.32739257812	-0.8468357056282023	0.1649142856646316	9.747252104701699	-2.452362568254918	0.6726977796687704	0.3840854683627254	0.257201646090535	0.1485355648535565	1.302832244008715
13548.85864257812	-0.7248333263463819	0.2439400926345497	9.813029479449073	-2.490101574392271	-0.07470304723176813	-0.7554640116043932	0.2345679012345679	0.1485355648535565	1.315904139433551
13568.38989257812	-0.765447571436174	0.2229196240593672	9.649956151953255	-2.475027669118488	1.045152155001072	-1.121623950148103	0.2366255144032922	0.1506276150627615	1.315904139433551
13587.92114257812	-1.038736902231814	0.1667138172226204	9.543402867293359	-1.376594923954163	2.570642450788838	-0.7290105566241871	0.2469135802469136	0.1527196652719665	1.318082788671024
13607.45239257812	-0.8869396961212599	0.1949192767629117	9.637240203240571	-1.030565653189551	2.207889000553567	-0.7326380911265399	0.2427983539094651	0.1464435146443515	1.305010893246187
13626.98364257812	-0.9656169133171713	0.4080056379798603	9.576400678422388	-1.038107537003979	1.834528415680926	-0.7363716969752663	0.2345679012345679	0.1464435146443515	1.305010893246187
13646.51489257812	-1.00935128948561	0.07497206154001852	9.518907615434671	-0.7147039176826494	0.3516932108277295	-0.7512000490237982	0.2592592592592593	0.1485355648535565	1.291938997821351
13666.04614257812	-0.9781348226220133	0.1663157175966532	9.62479706391624	-1.07583668078626	0.7139935562928301	-1.502294026701223	0.220164609053498	0.1589958158995816	1.294117647058824
13685.57739257812	-1.110736351843925	0.03747592671858877	9.606928048979109	-0.707171896223294	1.098187828187928	-1.121093593416234	0.2222222222222222	0.1610878661087866	1.315904139433551
13705.10864257812	-1.001048790433395	-0.1048790433395199	9.732220307403439	-0.3234134816764015	1.855969237340753	-0.3587987981926302	0.2263374485596708	0.1589958158995816	1.300653594771242
13724.63989257812	-0.8575581249956238	0.1027733590234903	9.572320662458795	0.7523738873344976	3.007645843485706	-0.7246405226972185	0.2181069958847737	0.1589958158995816	1.28322440087146
13744.17114257812	-0.7951373161301351	0.2842481849663012	9.662826692652672	2.234555184690644	5.664051580913854	0.05664051580913854	0.2366255144032922	0.1757322175732217	1.309368191721133
13763.70239257812	-1.078421574590922	0.2386506217159244	9.587006901198475	2.633367779801175	8.287956257274633	-0.2944789279932915	0.2551440329218107	0.1401673640167364	1.320261437908497
13783.23364257812	-1.097698083890928	0.3312017119173074	9.712653811827664	2.317535631359489	9.024749949537799	0.8449644806274536	0.2427983539094651	0.1548117154811715	1.311546840958606
13802.76489257812	-1.125887376948947	0.5425754364184833	9.581526463708002	0.7825611473023514	3.75482011800116	0.0375482011800116	0.2139917695473251	0.1485355648535565	1.298474945533769
13822.29614257812	-1.129620823948817	0.1692307364314639	9.613326944743703	0.01509362998392684	0.3735871372577268	0.381094361938615	0.2283950617283951	0.1673640167364017	1.320261437908497
13841.82739257812	-0.9975335909442076	0.2466409055792461	9.537710244723057	0.3536007416442552	-1.108794962825299	1.12098752206986	0.2181069958847737	0.1631799163179916	1.309368191721133
13861.35864257812	-1.210514870026383	0.160634209482913	9.601987167834489	-0.3686450598528215	-1.130462336870211	0.3660538671973356	0.2386831275720165	0.1527196652719665	1.294117647058824
13880.88989257812	-0.8960434464511192	0.294645253877983	9.490620313077875	-1.038087812293834	1.088260350705812	0.01088260350705812	0.2263374485596708	0.1589958158995816	1.309368191721133
13900.42114257812	-0.9989390644967975	0.1060935503202626	9.621577913133674	-1.752781867621412	1.066819529045985	-0.3666902952755779	0.2263374485596708	0.1548117154811715	1.328976034858388
13919.95239257812	-1.11954203265688	0.1670088555240987	9.411296436591051	-1.030555790834479	1.83475496806601	-0.3590109408853777	0.2283950617283951	0.1673640167364017	1.302832244008715
13939.48364257812	-1.131656790310045	-0.03436589969136264	9.451611601758797	-1.43692013211451	-0.7893762606798532	-0.3852522531728363	0.2139917695473251	0.1422594142259414	1.318082788671024
13959.01489257812	-1.248688986698127	0.3836265827125077	9.602654035228241	-1.77538779435455	-0.7995302905470545	0.3693631876605672	0.2345679012345679	0.1464435146443515	1.305010893246187
13978.54614257812	-0.8873438581780794	0.1545030710809611	9.635215351335905	-3.242485324081841	-2.709214858229918	-0.404450639148337	0.2283950617283951	0.1443514644351464	1.300653594771242
