Time Stamp	Accelerometer X	Accelerometer Y	Accelerometer Z	Gyroscope X	Gyroscope Y	Gyroscope Z	Magnetometer X	Magnetometer Y	Magnetometer Z
1952.178955078125	-1.707102726809659	-9.094111064804245	3.3363042275725	-47.85308174220832	4.161422473106884	-11.6564989828161	0.09465020576131689	-0.4205020920502092	0.7625272331154684
1971.710205078125	0.608849930495746	-9.82207765749612	-2.202187100741566	1.790422250208044	3.411921622730122	-2.230031727168925	0.09670781893004116	-0.4393305439330544	0.7472766884531591
1991.241455078125	0.1143182481765395	-9.780296394467262	-2.043427192797153	-0.9928069223420539	2.209021762478992	1.154165689322903	0.08847736625514405	-0.397489539748954	0.758169934640523
2010.772705078125	0.1932824204327927	-9.964687249650027	-2.14276618474282	-0.03012808583742102	-2.985978469440794	1.479574177569743	0.102880658436214	-0.401673640167364	0.7647058823529412
2030.303955078125	0.357403538060916	-9.714191648453864	-2.01748908239562	-0.6995511135682898	-1.513523846839885	1.87165721436179	0.08847736625514405	-0.4267782426778242	0.7516339869281047
2049.835205078125	0.496761646467708	-9.9197949491888	-2.097082737055369	-1.399210713042373	1.077426663683356	-0.3665842239292042	0.09670781893004116	-0.4267782426778242	0.7603485838779958
2069.366455078125	0.1660489706391523	-9.657729198711037	-1.804458293461484	-1.045649420818406	1.461167830808284	-0.7401053028239927	0.1069958847736626	-0.399581589958159	0.7516339869281047
2088.897705078125	0.1270352072943653	-9.518701492785695	-2.121129369030988	-1.43692013211451	-0.7893762606798532	-0.3852522531728363	0.1049382716049383	-0.403765690376569	0.7494553376906319
2108.428955078125	0.2179150873907996	-9.521622574051356	-2.231477735404418	-0.6995708382784341	-0.7672557818647709	1.124402913879466	0.1111111111111111	-0.4079497907949791	0.738562091503268
2127.960205078125	0.3574520375077343	-9.709341703772029	-2.542498625419585	-0.6996300124088667	1.47154841306057	-1.117359987567508	0.1152263374485597	-0.403765690376569	0.7450980392156863
2147.491455078125	0.3356737650760152	-9.866966926741922	-2.186961305656033	-0.3762066683773931	-0.7575548567677397	-0.3849340391337152	0.1131687242798354	-0.4309623430962343	0.7538126361655774
2167.022705078125	0.2155163855835759	-9.761492754773734	-1.980868968832346	-0.05274387492563101	-4.479194256546276	1.842000510264726	0.1008230452674897	-0.4163179916317991	0.7298474945533769
2186.553955078125	0.7605329608252489	-9.805289776060981	-2.240234916770554	-0.3158124237315415	-0.009474372711946247	1.886697709103069	0.1213991769547325	-0.4330543933054393	0.7516339869281047
2206.085205078125	0.4504234562482095	-9.503108920633599	-1.935297676115663	0.1056060981121273	4.480780123241871	0.7995247823644942	0.1049382716049383	-0.4267782426778242	0.7450980392156863
2225.616455078125	-0.1054226413059422	-9.532163120493211	-1.912005816781154	-1.000398117931842	3.701331340044134	-0.7177036677316342	0.09465020576131689	-0.4184100418410042	0.7429193899782136
2245.147705078125	-0.1288791966786043	-9.857616637557401	-2.181038310713343	-1.045609971398118	-0.03136829914194354	0.7544032981406561	0.08847736625514405	-0.4100418410041841	0.7538126361655774
2264.678955078125	0.2050192865628312	-9.801101646747188	-1.922348323815166	-0.7523640249794257	-3.380779875973263	1.098267672938381	0.1049382716049383	-0.4246861924686192	0.7450980392156863
2284.210205078125	0.3670882713474534	-9.755819329901131	-2.120483720145219	-1.068265209906616	-0.03204795629719848	-0.3776789701290098	0.09465020576131689	-0.4184100418410042	0.7625272331154684
2303.741455078125	0.3570882916565968	-9.745716288885784	-2.14028058809338	-0.6467973762875867	2.592536377218835	0.4032838543382261	0.08847736625514405	-0.4163179916317991	0.7450980392156863
2323.272705078125	-0.04707982759376229	-9.758487809881281	-2.205566905941719	-0.676945186835152	0.3528259727531544	1.135603731425645	0.08024691358024692	-0.4163179916317991	0.7450980392156863
2342.803955078125	0.3962748342806741	-9.867466066882091	-2.115673181263924	0.7524429238200024	0.3957076160728091	1.890749528990917	0.1152263374485597	-0.4142259414225941	0.7407407407407408
2362.335205078125	0.4080864703912242	-9.696403465928094	-2.15750698536017	1.128620005132179	2.272664570303219	1.154802117401146	0.102880658436214	-0.4330543933054393	0.7429193899782136
2381.866455078125	0.3872781868958719	-9.757029795261305	-2.201150425065824	0.7749995387777797	4.127727598103633	-0.7134397051510393	0.1152263374485597	-0.4225941422594142	0.7320261437908497
2401.397705078125	-0.1499956537422815	-9.949060323723099	-2.276730750501356	0.4063643412800304	2.624131228745864	0.02624131228745864	0.102880658436214	-0.4309623430962343	0.7647058823529412
2420.928955078125	0.01281597882174656	-9.829513228936456	-2.117610127921232	-0.4214086594885967	-4.863388528441374	1.460800076979737	0.09465020576131689	-0.4142259414225941	0.7472766884531591
2440.460205078125	0.3058031578616275	-9.82372461787766	-1.962875674062742	-0.406324891859742	-4.11666735869609	1.46826728867719	0.09876543209876544	-0.4184100418410042	0.7603485838779958
2459.991455078125	0.5920256744754919	-9.4843012393195	-1.791527128453544	-1.068255347551544	-0.4051819887847553	-0.004051819887847552	0.1049382716049383	-0.401673640167364	0.7516339869281047
2479.522705078125	0.2275503108253767	-9.568201240694663	-1.819568902360823	-1.007920277036125	2.581702690196379	0.02581702690196379	0.09876543209876544	-0.4225941422594142	0.7559912854030502
2499.053955078125	0.1156186395943563	-9.650257252685586	-2.168225363107023	-1.007890689970909	1.462300592733709	1.14669847762545	0.09670781893004116	-0.4163179916317991	0.7363834422657953
2518.585205078125	0.2968822908624789	-9.705710307691506	-2.300498510657769	-1.038077949938762	0.715126318218255	0.3845097537482203	0.09670781893004116	-0.4100418410041841	0.7450980392156863
2538.116455078125	0.2757880627119269	-9.794931102544696	-2.173857361368803	-1.805575054322403	-1.546704565062508	-0.3928255362166628	0.102880658436214	-0.4163179916317991	0.7603485838779958
2557.647705078125	0.1949152351423435	-9.801405778694946	-1.972969621431809	-1.083319390470254	-1.898171223505152	0.735735268897024	0.1111111111111111	-0.401673640167364	0.7625272331154684
2577.178955078125	0.3474065895854855	-9.703785485895903	-2.006967733651466	-1.045580384332901	-1.150770396604614	1.875284748864143	0.08847736625514405	-0.4142259414225941	0.7407407407407408
2596.710205078125	0.3664820282622241	-9.816443638424058	-2.123520998002217	-0.338477524595112	0.3629800026203556	0.3809882905922413	0.1069958847736626	-0.4121338912133891	0.7647058823529412
2616.241455078125	0.06201462599838513	-9.960153561777652	-1.951932986374354	-0.6996201500537946	1.098414380573013	-0.7437328373263454	0.1213991769547325	-0.399581589958159	0.7559912854030502
2635.772705078125	0.1246860153391019	-9.753620688312033	-2.38542407325211	-1.075787369010899	-1.151676606144954	0.3658417245045882	0.09053497942386832	-0.4205020920502092	0.7407407407407408
2655.303955078125	0.486152392476196	-9.970619338238993	-2.150235099552845	-1.075767644300755	-1.897944671120067	1.113096024986913	0.09465020576131689	-0.4205020920502092	0.7494553376906319
2674.835205078125	0.4161788051738928	-9.897270997762247	-2.026055297189909	-0.3460095460544673	-0.383514614739843	0.7508818349846771	0.117283950617284	-0.399581589958159	0.7516339869281047
2694.366455078125	0.1335977886919721	-9.87254436312603	-2.138755886734029	-0.692058541529223	0.7255069004705412	0.007255069004705413	0.117283950617284	-0.4267782426778242	0.7407407407407408
2713.897705078125	0.1938714866306071	-9.905780629868584	-2.311532134808941	-0.7071324468030056	-0.3943483017622991	0.3734150075484148	0.1111111111111111	-0.4184100418410042	0.7472766884531591
2733.428955078125	0.4288886914557242	-9.636383379680115	-2.174499979039146	-0.3459996836993952	-0.7566486472273998	1.124508985225839	0.102880658436214	-0.397489539748954	0.7342047930283225
2752.960205078125	0.3369872917606786	-9.735614258275582	-2.18038053696587	-0.3460292707646115	0.3627534502352706	0.003627534502352706	0.1090534979423868	-0.399581589958159	0.7363834422657953
2772.491455078125	-0.1172464022781969	-9.704438207617667	-1.991444879454171	-0.7071521715131499	0.3519197632128144	-0.3738392929339096	0.09670781893004116	-0.4100418410041841	0.7516339869281047
2792.022705078125	0.1137039218501739	-9.841729027103828	-2.127313048500326	-0.7071028597377893	-1.513750399224969	1.494296458271901	0.09465020576131689	-0.4142259414225941	0.7603485838779958
2811.553955078125	0.479294772777111	-9.646280298046483	-2.053278642932129	-0.3761672189571046	-2.250090986717967	1.109574561830934	0.1131687242798354	-0.401673640167364	0.7603485838779958
2831.085205078125	0.4166880493654854	-9.84634657860299	-1.98309994338599	0.05282277376620787	1.494121996645822	1.147016691664571	0.1213991769547325	-0.4184100418410042	0.7559912854030502
2850.616455078125	0.5278699999811055	-9.839262628152087	-2.062442007165369	-0.6317037463036599	2.966123514476562	0.7843782162768411	0.1131687242798354	-0.4184100418410042	0.7516339869281047
2870.147705078125	0.264375536632486	-9.926082700387768	-2.180529066521751	-0.6694033030207246	0.7261865576257962	1.139337337274371	0.1008230452674897	-0.4330543933054393	0.7559912854030502
2889.678955078125	0.2852666733494863	-9.857171048889757	-2.318288713993822	-0.6694230277308688	1.47245462260091	0.3920830367920469	0.1090534979423868	-0.4079497907949791	0.7429193899782136
2909.210205078125	0.06331804863162803	-9.829811298453361	-2.046412939991908	0.03772914378228104	1.120534859388095	0.7659223297259565	0.1090534979423868	-0.4184100418410042	0.7712418300653595
2928.741455078125	0.06482254188813864	-9.679361972802301	-2.1499865398879	-0.7297580982462877	-1.514430056380224	0.3622141900022355	0.1111111111111111	-0.4100418410041841	0.7298474945533769
2948.272705078125	0.1031825731060201	-9.883762891418197	-2.311338137021668	-0.7146940553275772	-0.02144082165982732	-0.3775728987826361	0.08847736625514405	-0.4393305439330544	0.7625272331154684
2967.803955078125	0.3056879716754339	-9.835243236497016	-2.104866898269713	-0.3535612922239668	-0.383741167124928	0.3735210788947885	0.09465020576131689	-0.4100418410041841	0.7494553376906319
2987.335205078125	0.2495357163112158	-9.389862712312771	-2.123563435018183	-0.7146841929725051	-0.3945748541473841	-0.003945748541473841	0.1111111111111111	-0.405857740585774	0.7538126361655774
3006.866455078125	0.1942908047645574	-9.86384881647356	-2.157916199442699	-0.7222162144318603	-1.141069471507583	0.3659477958509619	0.09670781893004116	-0.403765690376569	0.7472766884531591
3026.397705078125	0.4495049979740872	-9.594954748045829	-2.030808242978106	-1.083339115180399	-1.151903158530039	-0.01151903158530039	0.1049382716049383	-0.4079497907949791	0.7407407407407408
3045.928955078125	0.1556236103834931	-9.690164214175944	-2.038507530160518	-0.6694033030207246	0.7261865576257962	1.139337337274371	0.09670781893004116	-0.4184100418410042	0.7559912854030502
3065.460205078125	0.3370115414840878	-9.733189285934664	-1.937834803427347	-0.6618614192062973	1.099547142498438	1.143070943123098	0.09876543209876544	-0.3953974895397489	0.7494553376906319
3084.991455078125	0.3276147736630342	-9.662765057939009	-1.984912610210825	-0.2856646131839762	2.230236031753734	1.154377832015651	0.1049382716049383	-0.4205020920502092	0.7472766884531591
3104.522705078125	0.1157136176777089	-9.640759444350328	-2.228355583515487	-1.015432573785336	1.088940007861067	1.142964871776724	0.102880658436214	-0.405857740585774	0.758169934640523
3124.053955078125	0.2782130350528439	-9.552433868452992	-2.161708249940808	0.3988520445308194	1.131368546410551	1.143389157162219	0.09876543209876544	-0.4184100418410042	0.7559912854030502
3143.585205078125	0.3473742566209399	-9.70701878235046	-2.330362045036162	0.03771928142720893	1.493668891875652	0.3922951794847943	0.0925925925925926	-0.405857740585774	0.7429193899782136
3163.116455078125	0.1135038616320482	-9.861735048916392	-2.108113329991116	-0.3309257784256125	0.3632065550054406	0.75834904668213	0.09465020576131689	-0.4079497907949791	0.7538126361655774
3182.647705078125	0.1441949178217795	-9.822932460246294	-2.206876391005814	0.04529075230685262	0.7476273792856235	1.516910236057007	0.08847736625514405	-0.4267782426778242	0.7450980392156863
3202.178955078125	0.3468043881208244	-9.764005632362009	-1.969580722585377	-0.714674330617433	-0.767708886634941	0.3696814016996884	0.1090534979423868	-0.3953974895397489	0.7538126361655774
3221.710205078125	0.3543814162810481	-10.01640382644065	-1.941720821603667	-0.3233838946111852	0.7365671398780824	0.7620826525308564	0.09465020576131689	-0.4246861924686192	0.7342047930283225
3241.241455078125	0.2251091720021868	-9.812315123013645	-1.993415169481166	-0.3384577998849678	-0.383288062354758	1.128242591074566	0.1111111111111111	-0.4246861924686192	0.7472766884531591
3260.772705078125	0.3175875130333422	-9.655390110807195	-2.277573428389824	-0.6995708382784341	-0.7672557818647709	1.124402913879466	0.08847736625514405	-0.4225941422594142	0.7690631808278868
3280.303955078125	0.4065749042987193	-9.84756007517859	-2.124675891079579	-0.3460194084095394	-0.01038058225228618	0.3772546847435149	0.09670781893004116	-0.405857740585774	0.7472766884531591
3299.835205078125	0.5311073380562298	-9.515528820639663	-2.005818903004956	-1.030545928479407	1.461620935578454	0.01461620935578454	0.1049382716049383	-0.4142259414225941	0.7559912854030502
3319.366455078125	0.335378726774537	-9.896470756889745	-2.107631366738358	-0.7071324468030056	-0.3943483017622991	0.3734150075484148	0.1111111111111111	-0.4079497907949791	0.7538126361655774
3338.897705078125	0.2039725068356687	-9.905779619463441	-2.291229053884614	-0.3233740322561131	0.3634331073905256	1.135709802772018	0.09465020576131689	-0.4225941422594142	0.7494553376906319
3358.428955078125	0.00334242020989732	-9.766768080020372	-1.922648414142354	0.02265523850849842	0.0006796571552549525	1.132082268269666	0.102880658436214	-0.4205020920502092	0.7690631808278868
3377.960205078125	0.3564961942433562	-9.804926030209844	-2.001832854719574	-0.338477524595112	0.3629800026203556	0.3809882905922413	0.09876543209876544	-0.4205020920502092	0.7429193899782136
3397.491455078125	0.1135119448731846	-9.860926724802754	-2.027264752144941	-0.3082902646272583	1.110154277135809	1.143177014469471	0.08847736625514405	-0.4246861924686192	0.7472766884531591
3417.022705078125	0.3151009059787602	-9.904050816265396	-1.896091935793886	-1.083309528115182	-2.271305255992709	1.109362419138186	0.09053497942386832	-0.4163179916317991	0.7407407407407408
3436.553955078125	0.5302959827271646	-9.596664353546178	-2.040186823506603	0.01511335469407105	-0.3726809277173868	1.128348662420939	0.1008230452674897	-0.4163179916317991	0.7450980392156863
3456.085205078125	0.3554615393778983	-9.908391516755637	-2.24944071801976	-0.6618910062715135	2.218949239961109	0.02218949239961108	0.09670781893004116	-0.4142259414225941	0.7363834422657953
3475.616455078125	0.2459073514461186	-9.752699198822484	-2.050832452083229	-1.03806808758369	0.3419922857306982	0.7581369039893825	0.1090534979423868	-0.4205020920502092	0.7407407407407408
3495.147705078125	0.568965197918513	-9.770146874815381	-2.139383348327241	-1.053171579922689	0.3415391809605283	0.003415391809605283	0.1111111111111111	-0.4142259414225941	0.7603485838779958
3514.678955078125	0.1936037292679642	-9.932556366132877	-1.959338245660429	0.06036465758063524	1.867482581518464	1.150750297513298	0.1049382716049383	-0.4205020920502092	0.7559912854030502
3534.210205078125	0.1266421596941084	-9.558006252811392	-2.011987426397164	0.01510349233899894	0.0004531047701699683	0.7547215121797772	0.1090534979423868	-0.4184100418410042	0.7472766884531591
3553.741455078125	0.2575916765087706	-9.5943677026583	-2.355930347155706	-0.6844870706495794	-0.02053461211948738	1.131870125576918	0.1049382716049383	-0.4246861924686192	0.7516339869281047
3573.272705078125	0.2962962558800907	-9.764313805930334	-2.101414343899332	-1.060713463737117	-0.0318214039121135	-0.000318214039121135	0.102880658436214	-0.401673640167364	0.758169934640523
3592.803955078125	0.1923720453998068	-10.05572475294862	-2.15742817375909	0.03772914378228104	1.120534859388095	0.7659223297259565	0.1111111111111111	-0.4205020920502092	0.7559912854030502
3612.335205078125	0.2055174162978612	-9.751288673244183	-1.990559764549736	-0.6995807006335061	-0.3941217493772142	0.7507757636383033	0.1008230452674897	-0.401673640167364	0.7450980392156863
3631.866455078125	0.4074792169008529	-9.757128814965224	-2.17065033544794	-0.714674330617433	-0.767708886634941	0.3696814016996884	0.1008230452674897	-0.4100418410041841	0.7625272331154684
3651.397705078125	0.2861002575916765	-9.773812624670736	-2.061587204415196	-1.053171579922689	0.3415391809605283	0.003415391809605283	0.1234567901234568	-0.4121338912133891	0.7450980392156863
3670.928955078125	0.1441908762012113	-9.823336622303113	-2.247300679928901	-0.6845067953597235	0.7257334528556262	0.384615825094594	0.1008230452674897	-0.403765690376569	0.7538126361655774
3690.460205078125	0.3058829798678493	-9.815742417255475	-2.174596977932783	-0.3309257784256125	0.3632065550054406	0.75834904668213	0.1090534979423868	-0.4100418410041841	0.758169934640523
3709.991455078125	0.4262747733532441	-9.897775189928129	-2.05628257741944	-0.6920486791741509	0.3523728679829845	0.3808822192458676	0.09670781893004116	-0.4225941422594142	0.7603485838779958
3729.522705078125	0.1450285020639698	-9.739574036027271	-1.950174881427189	0.03019712232292578	0.3740402420278968	1.135815874118392	0.1193415637860082	-0.4100418410041841	0.7407407407407408
3749.053955078125	0.2374219690631931	-9.591136427014028	-2.073142197619666	-0.3686253351426773	-1.876730401845325	1.11330816767966	0.1152263374485597	-0.4163179916317991	0.7429193899782136
3768.585205078125	0.3471944045056553	-9.725003993878927	-2.109040881911517	-0.714674330617433	-0.767708886634941	0.3696814016996884	0.09053497942386832	-0.4163179916317991	0.7342047930283225
3788.116455078125	0.3667659521071399	-9.788051253932487	-2.314017731458382	-0.3234036193213294	1.482835204853196	0.01482835204853196	0.1131687242798354	-0.4142259414225941	0.7472766884531591
3807.647705078125	0.3373136526215603	-9.702978172187407	-1.94642223672962	-1.068245485196472	-0.7783160212723121	0.3695753303533146	0.07818930041152264	-0.401673640167364	0.7559912854030502
3827.178955078125	0.357009480055517	-9.753597448993766	-1.918453211992568	-0.3309356407806847	0.7363405874929974	0.3847218964409677	0.09465020576131689	-0.4267782426778242	0.7516339869281047
3846.710205078125	0.000198039407841562	-10.08120616022595	-2.059613883172775	-0.2856646131839762	2.230236031753734	1.154377832015651	0.1090534979423868	-0.4205020920502092	0.7472766884531591
3866.241455078125	0.08280876382174876	-9.900941799643311	-2.049774557899504	-0.3837189651266041	-2.250317539103052	0.732213805741045	0.1069958847736626	-0.4163179916317991	0.7342047930283225
3885.772705078125	0.4273619692860886	-9.789055596643683	-2.293259968220132	-0.737290119705643	-2.260924673740423	0.7321077343946713	0.09670781893004116	-0.4309623430962343	0.7603485838779958
3905.303955078125	0.205596227898941	-9.743407513136201	-2.212387140650548	-0.3007582431679031	1.856648894496008	0.7732834700770356	0.09876543209876544	-0.3953974895397489	0.7450980392156863
3924.835205078125	0.002745270770946498	-9.826483023915452	-1.834731041922407	-0.6845166577147956	1.098867485343183	0.01098867485343183	0.09053497942386832	-0.405857740585774	0.7516339869281047
3944.366455078125	0.05200151104068183	-9.951364047446971	-2.103108793322548	-1.075787369010899	-1.151676606144954	0.3658417245045882	0.1090534979423868	-0.4142259414225941	0.7363834422657953
3963.897705078125	0.2413635595223254	-9.196977381100803	-2.043293819318403	-0.6920190921089346	-0.767029229479686	1.501763669969354	0.09053497942386832	-0.4184100418410042	0.7407407407407408
3983.428955078125	0.2845785874477511	-9.92597963906328	-2.129816832442323	-1.376575199244019	1.824374385813724	0.01824374385813724	0.0925925925925926	-0.4079497907949791	0.7647058823529412
4002.960205078125	0.4890734737418589	-9.678511211672696	-2.226509573320964	-0.6769649115452961	1.099094037728268	0.3883494309433204	0.102880658436214	-0.4079497907949791	0.7516339869281047
4022.491455078125	0.2261913159093211	-9.704100732300223	-2.280922921435716	-0.3384577998849678	-0.383288062354758	1.128242591074566	0.09670781893004116	-0.403765690376569	0.7407407407407408
4042.022705078125	0.1663298632686419	-9.629639935762082	-2.025273243609963	-0.7071127220928615	-1.140616366737413	1.120669308030739	0.09670781893004116	-0.4184100418410042	0.7625272331154684
4061.553955078125	0.3578228561948662	-9.67225983505884	-1.863873147029377	0.391310160716392	0.7580079615379097	1.139655551313492	0.09670781893004116	-0.4079497907949791	0.7276688453159043
4081.085205078125	0.4675781147499135	-9.807845090665221	-2.071575059244348	0.06787695432984628	3.360245263853776	0.03360245263853776	0.102880658436214	-0.3933054393305439	0.7494553376906319
4100.616455078125	0.2144069607376063	-9.872435239370688	-1.966225167108633	0.3988323198206752	1.877636611385665	0.3961348566798944	0.1008230452674897	-0.4121338912133891	0.7559912854030502
4120.147705078125	0.1452154270152488	-9.720881540899368	-2.100753538936432	0.02265523850849842	0.0006796571552549525	1.132082268269666	0.08847736625514405	-0.4100418410041841	0.7450980392156863
4139.678955078125	0.3673934137003522	-9.725305094611258	-2.098752936755176	-0.6920289544640067	-0.3938951969921292	1.128136519728192	0.1008230452674897	-0.4205020920502092	0.7429193899782136
4159.210205078125	0.4284764461577683	-9.677607909475704	-2.257373408789986	-0.6920486791741509	0.3523728679829845	0.3808822192458676	0.1131687242798354	-0.4184100418410042	0.758169934640523
4178.741455078125	0.2756860117925799	-9.80513619447939	-2.184469646575741	-0.6694230277308688	1.47245462260091	0.3920830367920469	0.09465020576131689	-0.4205020920502092	0.7407407407407408
4198.272705078125	0.06521761029867972	-9.639855131748194	-2.238916338060181	-1.030516341414191	0.3422188381157832	1.135497660079271	0.1049382716049383	-0.4079497907949791	0.7494553376906319
4217.803955078125	0.3259829693586255	-9.825945488379883	-2.144603101291064	-0.3460095460544673	-0.383514614739843	0.7508818349846771	0.09876543209876544	-0.4100418410041841	0.7429193899782136
4237.335205078125	0.286898477653895	-9.693990618448883	-2.158598222913582	0.007551746169499472	0.0002265523850849842	0.3773607560898886	0.1049382716049383	-0.405857740585774	0.766884531590414
4256.866455078125	0.406776985327129	-9.827351972337615	-2.123663465127246	-0.3233838946111852	0.7365671398780824	0.7620826525308564	0.1008230452674897	-0.4225941422594142	0.7559912854030502
4276.397705078125	0.5894632870352563	-9.740539983343067	-2.168001053165488	-1.060703601382045	-0.4049554363996703	0.3733089362020411	0.1049382716049383	-0.4330543933054393	0.7647058823529412
4295.928955078125	0.4959411974923644	-10.00183984672316	-2.222405307633962	-0.6694131653757966	1.099320590113353	0.765710187033209	0.09465020576131689	-0.4079497907949791	0.7450980392156863
4315.460205078125	0.2152072016101089	-9.792411152120426	-2.043024041145476	-0.3309455031357568	1.109474619980554	0.01109474619980554	0.09876543209876544	-0.3953974895397489	0.7559912854030502
4334.991455078125	0.1261288738819476	-9.609334834027468	-2.09536706912417	-0.6920486791741509	0.3523728679829845	0.3808822192458676	0.09876543209876544	-0.4142259414225941	0.7494553376906319
4354.522705078125	0.3858787757741344	-9.89697090743506	-2.056646323270578	-0.3158420107967578	1.109927724750724	0.7658162583795828	0.08436213991769548	-0.4205020920502092	0.7472766884531591
4374.053955078125	0.3065831906312891	-9.745721340911494	-2.24179599271502	-0.3082804022721863	0.7370202446482523	1.516804164710634	0.0925925925925926	-0.4079497907949791	0.7429193899782136
4393.585205078125	0.3555878400206544	-9.895761452480027	-1.9962826992743	-0.3158321484416857	0.7367936922631674	1.139443408620745	0.102880658436214	-0.4142259414225941	0.7516339869281047
4413.116455078125	0.468209617963694	-9.744694769287173	-1.815885975618055	-0.6920289544640067	-0.3938951969921292	1.128136519728192	0.09465020576131689	-0.4246861924686192	0.7320261437908497
4432.647705078125	0.2035077204703263	-9.952258255997684	-1.889517229534575	-0.6995905629885782	-0.02098771688965735	0.3771486133971412	0.1090534979423868	-0.4225941422594142	0.7429193899782136
4452.178955078125	0.1048234710567073	-9.719673096349478	-2.060692995864483	-1.02300404466498	1.834981520451096	0.01834981520451096	0.09465020576131689	-0.4184100418410042	0.7647058823529412
4471.710205078125	0.1046244212437237	-9.739578077647838	-2.031387205124501	-0.3459996836993952	-0.7566486472273998	1.124508985225839	0.102880658436214	-0.4246861924686192	0.7450980392156863
4491.241455078125	0.2959981863631863	-9.794120757620774	-2.052402621673973	-1.083319390470254	-1.898171223505152	0.735735268897024	0.102880658436214	-0.4121338912133891	0.766884531590414
4510.772705078125	0.2564175857337099	-9.711776780164367	-1.977974158100376	-0.3309159160705404	-0.009927477482116214	1.131976196923292	0.1111111111111111	-0.4142259414225941	0.7450980392156863
4530.303955078125	0.5075628774362094	-9.849772862439677	-2.143978670913278	-0.6769649115452961	1.099094037728268	0.3883494309433204	0.1069958847736626	-0.4121338912133891	0.766884531590414
4549.835205078125	0.2061095137111018	-9.692078931920125	-2.129007497923542	-0.6241618624892324	3.339484099349204	0.7881118221255676	0.09465020576131689	-0.405857740585774	0.7407407407407408
4569.366455078125	0.02381929081865765	-9.739283039346359	-2.163493635826808	-0.3309356407806847	0.7363405874929974	0.3847218964409677	0.102880658436214	-0.4163179916317991	0.7363834422657953
4588.897705078125	0.4362737426389587	-9.90797927145768	-2.04659178170205	-1.075777506655827	-1.524810638632511	0.7394688747457504	0.102880658436214	-0.4246861924686192	0.7538126361655774
4608.428955078125	0.1953951775848167	-9.753411534447629	-2.223090362320271	-0.3535514298688947	-0.7568751996124847	0.7471482291359507	0.1131687242798354	-0.4163179916317991	0.758169934640523
4627.960205078125	0.1635118433274678	-9.911441929879484	-1.928280412404134	-0.3384972493052563	1.109248067595469	-0.3662660098900831	0.102880658436214	-0.4142259414225941	0.7516339869281047
4647.491455078125	-0.04733546009470063	-9.784051059975116	-1.732100150023945	0.4063939283452467	1.504729131283193	1.147122763010945	0.1111111111111111	-0.399581589958159	0.7450980392156863
4667.022705078125	0.06291994900566081	-9.869621261050083	-1.987801358511943	-0.3836992404164599	-2.996585604078166	1.479468106223369	0.1049382716049383	-0.4225941422594142	0.7429193899782136
4686.553955078125	0.5408951326672561	-9.546850369638031	-2.088095183316845	2.958706521632559e-05	-1.11940209746267	1.120881450723487	0.09876543209876544	-0.4121338912133891	0.7450980392156863
4706.085205078125	0.3258819288444206	-9.836049539800371	-2.145109314267231	0.04528088995178051	1.12076141177318	1.143283085815845	0.1111111111111111	-0.4267782426778242	0.7363834422657953
4725.616455078125	0.1558297330324711	-9.66955194927815	-1.997070815285098	-0.6543491224570862	2.59230982483375	0.0259230982483375	0.09053497942386832	-0.4267782426778242	0.7429193899782136
4745.147705078125	0.3067792092288466	-9.726119481155749	-2.301420000147318	-0.6316938839485878	2.592989481989005	1.158005366518003	0.1069958847736626	-0.4184100418410042	0.7450980392156863
4764.678955078125	0.05362422169881215	-9.789092981633939	-2.034372952319254	-0.6694230277308688	1.47245462260091	0.3920830367920469	0.09465020576131689	-0.4205020920502092	0.7494553376906319
4784.210205078125	0.05252389049912105	-9.89912610160305	-1.928774500518596	-0.6844969330046514	0.3525994203680694	0.7582429753357562	0.08641975308641976	-0.4205020920502092	0.7625272331154684
4803.741455078125	0.3062002470824527	-9.784015695795144	-2.031593327773478	-0.3309159160705404	-0.009927477482116214	1.131976196923292	0.1049382716049383	-0.4267782426778242	0.758169934640523
4823.272705078125	0.2662862127561002	-9.735015088026346	-2.261865670051534	-0.3233838946111852	0.7365671398780824	0.7620826525308564	0.08847736625514405	-0.4246861924686192	0.7429193899782136
4842.803955078125	0.1456802133805912	-9.674402904365126	-2.502465363286471	0.3536007416442552	-1.108794962825299	1.12098752206986	0.102880658436214	-0.405857740585774	0.7472766884531591
4862.335205078125	0.6095460996386176	-9.752460743208959	-2.30981040444689	-0.7372703949954987	-3.007192738715537	1.479362034876996	0.09670781893004116	-0.4163179916317991	0.7647058823529412
4881.866455078125	0.4872597965118814	-9.85987893467045	-2.185091045738101	-1.030536066124335	1.088486903090897	0.3882433595969467	0.0925925925925926	-0.4414225941422594	0.7516339869281047
4901.397705078125	0.02082546038276715	-10.03866608293541	-1.804755352573246	-1.376585061599091	2.197508418301281	-0.355383406383025	0.09876543209876544	-0.399581589958159	0.7625272331154684
4920.928955078125	0.002726073073247572	-9.828402793685346	-2.02674641430707	-0.6694230277308688	1.47245462260091	0.3920830367920469	0.09053497942386832	-0.405857740585774	0.7516339869281047
4940.460205078125	0.2050930461382008	-9.793725689210232	-2.194706061069837	-0.6467973762875867	2.592536377218835	0.4032838543382261	0.09670781893004116	-0.4184100418410042	0.758169934640523
4959.991455078125	-0.1573574656072488	-9.67514050011882	-2.1721992865307	-1.444442291218793	-1.909004910527609	0.3582684414607617	0.1111111111111111	-0.4288702928870293	0.7647058823529412
4979.522705078125	0.2543806089673396	-9.915474456801398	-2.149795573316053	-0.7523640249794257	-3.380779875973263	1.098267672938381	0.0925925925925926	-0.4079497907949791	0.7450980392156863
4999.053955078125	0.3893192052828104	-9.552927956567455	-1.98890472092706	2.958706521632559e-05	-1.11940209746267	1.120881450723487	0.1090534979423868	-0.4079497907949791	0.7472766884531591
5018.585205078125	0.4203335911179973	-9.481792403351793	-1.884027698397824	0.0829705843137731	3.733832401111503	0.4146968145771528	0.1008230452674897	-0.4288702928870293	0.7559912854030502
5038.116455078125	0.1553255408665888	-9.719971165866383	-1.989495807935158	-0.2856843378941205	2.976504096728848	0.4071235315333263	0.09053497942386832	-0.403765690376569	0.7429193899782136
5057.647705078125	-0.06836603272130366	-9.866906302433398	-1.978877460297368	-1.429378248300082	-0.4160156758072115	-0.3815186473241099	0.1131687242798354	-0.403765690376569	0.758169934640523
5077.178955078125	0.1648142555555688	-9.781200707069397	-2.03286643825246	-0.3309159160705404	-0.009927477482116214	1.131976196923292	0.09876543209876544	-0.4163179916317991	0.7538126361655774
5096.710205078125	0.5115165927570462	-9.454401330355994	-1.992857425842755	-0.3762066683773931	-0.7575548567677397	-0.3849340391337152	0.117283950617284	-0.4079497907949791	0.7494553376906319
5116.241455078125	0.387073074652036	-9.777541019644897	-2.232481067710472	0.03772914378228104	1.120534859388095	0.7659223297259565	0.1049382716049383	-0.4205020920502092	0.758169934640523
5135.772705078125	0.4672749932072988	-9.838157244926684	-2.073093698172847	-1.060693739026972	-0.7780894688872271	0.7469360864432033	0.08641975308641976	-0.403765690376569	0.7516339869281047
5155.303955078125	0.1141232399841241	-9.799797213708803	-1.973697113134084	0.3762165307324652	0.3844208242801829	0.7585611893748774	0.09053497942386832	-0.4246861924686192	0.7603485838779958
5174.835205078125	0.3359819386443401	-9.836149569909434	-2.134912305573675	-0.3460194084095394	-0.01038058225228618	0.3772546847435149	0.1049382716049383	-0.4121338912133891	0.7363834422657953
5194.366455078125	0.156014637173466	-9.651061535178657	-2.167861617255885	-0.6845166577147956	1.098867485343183	0.01098867485343183	0.09876543209876544	-0.405857740585774	0.7538126361655774
5213.897705078125	0.01445889758271786	-9.665221352839328	-1.846752842302503	-0.3384479375298957	-0.7564220948423148	1.501869741315728	0.09465020576131689	-0.397489539748954	0.7450980392156863
5233.428955078125	0.3282129335071271	-9.60294907352972	-2.062723910200001	-0.7146546059072888	-1.513976951610055	1.116935702182013	0.09670781893004116	-0.399581589958159	0.7559912854030502
5252.960205078125	0.4279863996638747	-9.726612558865067	-2.108313390209241	0.03018725996785367	0.7471742745154536	0.76218872387723	0.1049382716049383	-0.4121338912133891	0.7407407407407408
5272.491455078125	0.3775974952299027	-9.714997951757219	-2.057731498393138	-1.376594923954163	2.570642450788838	-0.7290105566241871	0.09670781893004116	-0.401673640167364	0.7276688453159043
5292.022705078125	0.03352423220803605	-9.77888991050953	-2.064366828960972	-1.053161717567617	-0.03159485152702852	0.3770425420507675	0.0925925925925926	-0.403765690376569	0.7363834422657953
5311.553955078125	0.5193916904341743	-9.676992572744197	-2.014009247086403	-0.7523738873344976	-3.007645843485706	0.7246405226972185	0.1152263374485597	-0.4079497907949791	0.758169934640523
5331.085205078125	0.4391746158017807	-9.617891955175478	-2.324987700085605	-1.075787369010899	-1.151676606144954	0.3658417245045882	0.1069958847736626	-0.4225941422594142	0.7472766884531591
5350.616455078125	0.3473186843381272	-9.712576010631729	-1.876095007627599	-1.038097674648906	1.461394383193369	-0.3627445467341041	0.08436213991769548	-0.4142259414225941	0.7516339869281047
5370.147705078125	0.0149257047583444	-9.618540635276673	-2.228252522190998	-1.068265209906616	-0.03204795629719848	-0.3776789701290098	0.1049382716049383	-0.4205020920502092	0.7429193899782136
5389.678955078125	0.3067024184380509	-9.73379856023532	-2.059380479584962	0.007571470879643689	-0.7460415125900286	1.124615056572213	0.1111111111111111	-0.4163179916317991	0.7472766884531591
5409.210205078125	0.3886018176319558	-9.624666721652916	-2.093508934067942	-0.3007582431679031	1.856648894496008	0.7732834700770356	0.1111111111111111	-0.4246861924686192	0.7472766884531591
5428.741455078125	0.517854864213118	-9.830675194849814	-2.233829958575107	-0.3158420107967578	1.109927724750724	0.7658162583795828	0.102880658436214	-0.405857740585774	0.7450980392156863
5448.272705078125	0.166290457468102	-9.633580515816073	-2.419410060610062	-0.6769649115452961	1.099094037728268	0.3883494309433204	0.1049382716049383	-0.4246861924686192	0.7472766884531591
5467.803955078125	0.1553002807380375	-9.722497178721504	-2.242147613704453	-0.3460095460544673	-0.383514614739843	0.7508818349846771	0.09670781893004116	-0.4225941422594142	0.7494553376906319
5487.335205078125	0.2775279803665348	-9.620939337083898	-1.942918151696994	-0.7297383735361436	-2.260698121355338	1.10946849048456	0.1069958847736626	-0.4184100418410042	0.7734204793028323
5506.866455078125	0.5298170506898334	-9.64455755727929	-1.779960010387369	-1.782929678168977	-1.172890875419696	0.3656295818118408	0.09670781893004116	-0.403765690376569	0.7625272331154684
5526.397705078125	0.456876913890475	-9.86786416650806	-2.034278984641044	-1.038107537003979	1.834528415680926	-0.7363716969752663	0.1049382716049383	-0.4121338912133891	0.7494553376906319
5545.928955078125	0.1844807812404059	-9.834750158787697	-2.297973508207789	0.05280304905606366	2.240390061620936	0.3997623911822471	0.09876543209876544	-0.4184100418410042	0.7516339869281047
5565.460205078125	0.2652899532860402	-9.834641035032355	-2.125442788582394	-0.7071423091580777	-0.02121426927474233	-0.0002121426927474233	0.1049382716049383	-0.4225941422594142	0.7342047930283225
5584.991455078125	0.1445344139495079	-9.788982847473456	-1.841539151769531	-0.3535218428036783	-1.876277297075155	1.868029679859437	0.1131687242798354	-0.4079497907949791	0.7407407407407408
5604.522705078125	0.3477188047743786	-9.672563967006598	-1.914494444646021	-1.090871136639754	-1.898397775890237	0.3583745128071354	0.09053497942386832	-0.4100418410041841	0.7472766884531591
5624.053955078125	0.4381995748397036	-9.715396051383186	-1.976337301770257	-0.2932163593534757	2.23000947936865	0.7770170759257621	0.1131687242798354	-0.4205020920502092	0.7429193899782136
5643.585205078125	0.2675290110808202	-9.610735255554347	-1.952608947414384	-0.6316938839485878	2.592989481989005	1.158005366518003	0.09053497942386832	-0.4100418410041841	0.7429193899782136
5663.116455078125	0.0960268838900307	-9.589230802916124	-2.165369958175593	-0.3083001269823305	1.483288309623366	0.7695498642283092	0.1090534979423868	-0.4225941422594142	0.7538126361655774
5682.647705078125	0.1427944962948999	-9.962974612934254	-2.07247836144134	0.3837584145468925	0.7577814091528248	0.7622947952236038	0.1049382716049383	-0.4121338912133891	0.7342047930283225
5702.178955078125	0.1664329245931309	-9.619333803313182	-2.004554886172254	-0.3686450598528215	-1.130462336870211	0.3660538671973356	0.09876543209876544	-0.4142259414225941	0.7407407407407408
5721.710205078125	0.2252142541369599	-9.801806909536339	-1.952484667581912	0.02265523850849842	0.0006796571552549525	1.132082268269666	0.1008230452674897	-0.4163179916317991	0.7450980392156863
5741.241455078125	0.6208808245221207	-9.629089264959664	-2.071205250962358	-1.083339115180399	-1.151903158530039	-0.01151903158530039	0.102880658436214	-0.4142259414225941	0.7429193899782136
5760.772705078125	0.2858951453478406	-9.794323849054326	-2.092917847059844	-0.6769747739003683	1.472228070215825	0.01472228070215825	0.1111111111111111	-0.4309623430962343	0.758169934640523
5780.303955078125	0.3040501049401729	-9.99902991002312	-2.325193822734583	-0.6618811439164415	1.845815207473552	0.3958166426407733	0.1152263374485597	-0.403765690376569	0.7538126361655774
5799.835205078125	0.2741643416486545	-9.957303208871933	-2.252699274602868	-1.053161717567617	-0.03159485152702852	0.3770425420507675	0.1152263374485597	-0.4372384937238493	0.738562091503268
5819.366455078125	0.09423341476289414	-9.768577715629782	-1.921829985977294	-1.083309528115182	-2.271305255992709	1.109362419138186	0.09465020576131689	-0.3953974895397489	0.738562091503268
5838.897705078125	0.4379813273290211	-9.737220802451438	-2.139046883414939	-1.128590418066963	-3.392066667765889	-0.0339206666776589	0.09670781893004116	-0.401673640167364	0.7363834422657953
5858.428955078125	0.6194632261078262	-9.770849106389104	-2.108610449321004	-0.3083099893374026	1.856422342110923	0.395922713987147	0.102880658436214	-0.4205020920502092	0.7407407407407408
5877.960205078125	0.245687083125152	-9.774726030919147	-2.233754178189454	-0.6467973762875867	2.592536377218835	0.4032838543382261	0.1069958847736626	-0.403765690376569	0.7407407407407408
5897.491455078125	0.1136998802296057	-9.842133189160647	-2.167737337423413	-0.2932064969984036	1.856875446881093	1.150644226166924	0.102880658436214	-0.4163179916317991	0.7516339869281047
5917.022705078125	0.2873117333569929	-9.652665048139088	-2.065618720931971	-0.6845067953597235	0.7257334528556262	0.384615825094594	0.08024691358024692	-0.405857740585774	0.738562091503268
5936.553955078125	0.3664769762365139	-9.816948840995082	-2.174051359156076	0.03018725996785367	0.7471742745154536	0.76218872387723	0.1193415637860082	-0.4079497907949791	0.738562091503268
5956.085205078125	0.2958193446530436	-9.812004928635037	-1.820975386318555	-0.3686253351426773	-1.876730401845325	1.11330816767966	0.1069958847736626	-0.405857740585774	0.7625272331154684
5975.616455078125	0.2850878316393436	-9.875055219904022	-2.086861478638404	-0.3460194084095394	-0.01038058225228618	0.3772546847435149	0.1069958847736626	-0.4100418410041841	0.758169934640523
5995.147705078125	0.0236111473593956	-9.760097385272564	-2.225142495163772	-1.02300404466498	1.834981520451096	0.01834981520451096	0.102880658436214	-0.4288702928870293	0.7450980392156863
6014.678955078125	0.2657981870724906	-9.783817656387303	-2.092593507009247	0.03773900613735315	0.7474008269005386	1.139549479967119	0.1069958847736626	-0.403765690376569	0.7472766884531591
6034.210205078125	0.4357695504730764	-9.958398488045914	-2.039016774352111	-0.3459996836993952	-0.7566486472273998	1.124508985225839	0.1152263374485597	-0.4225941422594142	0.7450980392156863
6053.741455078125	0.4374922912402695	-9.7861244113266	-1.979880792603422	9.862355072108239e-06	-0.3731340324875568	0.3736271502411622	0.102880658436214	-0.4079497907949791	0.7516339869281047
6073.272705078125	0.175614476118928	-9.71127966083448	-2.089868444341141	-1.060733188447261	0.714446661063	-0.7475725145214456	0.09670781893004116	-0.4205020920502092	0.7516339869281047
6092.803955078125	-0.006577737474737465	-9.748682838382841	-2.154166585960556	-0.2932262217085478	2.603143511856206	0.4033899256845999	0.102880658436214	-0.405857740585774	0.7559912854030502
6112.335205078125	0.03393445669570786	-9.737867461742349	-2.001705543671676	-0.737290119705643	-2.260924673740423	0.7321077343946713	0.08847736625514405	-0.4121338912133891	0.7559912854030502
6131.866455078125	0.2143726069627766	-9.875870616853653	-2.309831622954873	-0.737299982060715	-1.887790641252866	0.3584805841535091	0.1069958847736626	-0.405857740585774	0.738562091503268
6151.397705078125	0.3889251472774114	-9.592333757107356	-1.889868850524008	-1.459545783557792	-1.909458015297779	-0.3964530707190155	0.08847736625514405	-0.4121338912133891	0.7450980392156863
6170.928955078125	0.3984077995355391	-9.654169541395598	-1.99387591422594	-0.3384577998849678	-0.383288062354758	1.128242591074566	0.08847736625514405	-0.4100418410041841	0.7559912854030502
6190.460205078125	0.4170831177760264	-9.806839737548882	-2.07202974155827	0.04528088995178051	1.12076141177318	1.143283085815845	0.102880658436214	-0.405857740585774	0.738562091503268
6209.991455078125	0.3960808364934007	-9.886865845609428	-2.035837029370083	-0.6317234710138041	3.712391579451676	0.03712391579451676	0.09670781893004116	-0.4142259414225941	0.7450980392156863
6229.522705078125	0.01249568039171711	-9.861543071939403	-2.290931994772851	-0.669442752441013	2.218722687576024	-0.3551712636902775	0.1193415637860082	-0.397489539748954	0.7298474945533769
6249.053955078125	0.327091383799453	-9.715104044297133	-2.169352975245549	2.958706521632645e-05	-1.11940209746267	1.120881450723487	0.1152263374485597	-0.4205020920502092	0.7625272331154684
6268.585205078125	0.2939601991916739	-9.99791947477201	-2.234330109120422	3.944942028843296e-05	-1.492536129950227	1.494508600964649	0.1131687242798354	-0.4163179916317991	0.7429193899782136
6288.116455078125	0.3870013358869506	-9.784714896153442	-1.939911185994257	-0.6995708382784341	-0.7672557818647709	1.124402913879466	0.1049382716049383	-0.4205020920502092	0.7603485838779958
6307.647705078125	0.3270236866549357	-9.72187375874886	-1.836358804606247	-0.7146940553275772	-0.02144082165982732	-0.3775728987826361	0.1131687242798354	-0.4288702928870293	0.7407407407407408
6327.178955078125	0.1057409189256875	-9.627928309451452	-1.975288501232811	-0.6618614192062973	1.099547142498438	1.143070943123098	0.1090534979423868	-0.4163179916317991	0.7363834422657953
6346.710205078125	0.4265667804392961	-9.86857448132292	-2.16593073302943	-0.6844870706495794	-0.02053461211948738	1.131870125576918	0.09876543209876544	-0.4288702928870293	0.7429193899782136
6366.241455078125	0.1347284320459247	-9.759480027730772	-1.941172171611534	-0.6694230277308688	1.47245462260091	0.3920830367920469	0.08641975308641976	-0.4267782426778242	0.7429193899782136
6385.772705078125	0.05687570544592509	-9.463944606922645	-1.836264836928037	-0.3988027327554589	-2.997038708848335	0.7247465940435922	0.1008230452674897	-0.4246861924686192	0.738562091503268
6405.303955078125	0.3451725838164157	-9.927186062802887	-2.129271213665617	-0.3384380751748236	-1.129556127329872	1.87549689155689	0.1049382716049383	-0.4100418410041841	0.7342047930283225
6424.835205078125	0.498191369743707	-9.776822621588899	-1.938404671927463	-0.6694131653757966	1.099320590113353	0.765710187033209	0.1008230452674897	-0.4100418410041841	0.7298474945533769
6444.366455078125	0.1738897145414507	-9.883755818582204	-2.169216570551373	-1.376594923954163	2.570642450788838	-0.7290105566241871	0.09465020576131689	-0.399581589958159	0.758169934640523
6463.897705078125	-0.2093630182684988	-9.825190715738774	-2.12971680233326	-1.060733188447261	0.714446661063	-0.7475725145214456	0.1090534979423868	-0.4079497907949791	0.7559912854030502
6483.428955078125	0.3483432351521647	-9.610120929227982	-1.72954786663513	-0.3912509865859594	-2.996812156463251	1.102107350133481	0.1213991769547325	-0.4205020920502092	0.7407407407407408
6502.960205078125	0.3970882104200233	-9.786128452947167	-2.061093116300734	-0.3460095460544673	-0.383514614739843	0.7508818349846771	0.1193415637860082	-0.4121338912133891	0.7363834422657953
6522.491455078125	0.2747867512161565	-9.895062252121729	-2.087964841053521	-0.3234036193213294	1.482835204853196	0.01482835204853196	0.1090534979423868	-0.4267782426778242	0.7603485838779958
6542.022705078125	0.08502458229826171	-9.679359951992016	-2.109380378039245	-1.053171579922689	0.3415391809605283	0.003415391809605283	0.1008230452674897	-0.4163179916317991	0.7450980392156863
6561.553955078125	0.1835997079565394	-9.922857487174349	-2.019559402531677	-0.7146348811971446	-2.260245016585168	1.864190002664337	0.09876543209876544	-0.4163179916317991	0.7494553376906319
6581.085205078125	0.5601827564238251	-9.638290014183161	-2.102575299407546	-0.7222063520767882	-1.51420350399514	0.7395749460921242	0.1069958847736626	-0.4100418410041841	0.7450980392156863
6600.616455078125	0.6611788128024516	-9.639694477330609	-2.041029501395072	-0.6995905629885782	-0.02098771688965735	0.3771486133971412	0.1069958847736626	-0.4184100418410042	0.7494553376906319
6620.147705078125	0.4579065167302227	-9.764903882533289	-1.837201482494716	-1.391649104517801	0.7045191835808838	0.3844036824018466	0.09670781893004116	-0.4246861924686192	0.7276688453159043
6639.678955078125	0.2855687844869589	-9.826959935142501	-2.326876147296094	0.3837781392570367	0.0115133441777111	1.509549095705928	0.1213991769547325	-0.4225941422594142	0.7298474945533769
6659.210205078125	0.4178924522948075	-9.725906285670776	-2.057873965518167	0.3686845092731099	-0.3620737930800156	1.128454733767313	0.1008230452674897	-0.4142259414225941	0.7516339869281047
6678.741455078125	0.4682823671339215	-9.737419852264422	-2.098349785103498	0.03018725996785367	0.7471742745154536	0.76218872387723	0.1069958847736626	-0.399581589958159	0.7494553376906319
6698.272705078125	0.3877763166309019	-9.707216821758301	-2.269361865800394	-0.7222162144318603	-1.141069471507583	0.3659477958509619	0.117283950617284	-0.4142259414225941	0.7429193899782136
6717.803955078125	0.6398774515977795	-9.749628577595796	-1.965931139212297	-0.3233740322561131	0.3634331073905256	1.135709802772018	0.1049382716049383	-0.4079497907949791	0.7320261437908497
6737.335205078125	0.1870431686806416	-9.578511414764129	-1.921499583495845	-0.3158420107967578	1.109927724750724	0.7658162583795828	0.1131687242798354	-0.4184100418410042	0.7690631808278868
6756.866455078125	0.4580611087169562	-9.749444683859943	-2.311174451388656	-1.038087812293834	1.088260350705812	0.01088260350705812	0.1131687242798354	-0.4100418410041841	0.7538126361655774
6776.397705078125	0.4185987254890995	-9.655278966241568	-2.064436546915773	-2.098801276030951	1.056438946793698	0.01056438946793698	0.09465020576131689	-0.4288702928870293	0.7363834422657953
6795.928955078125	0.3593081517536779	-9.523730279177672	-2.159462119310034	0.3611327631036104	-0.3623003454651006	0.7510939776774245	0.09465020576131689	-0.4288702928870293	0.7276688453159043
6815.460205078125	0.426956796824127	-9.829572842839838	-2.305390892355569	0.0452710275967084	1.493895444260737	0.7696559355746829	0.1131687242798354	-0.4163179916317991	0.7494553376906319
6834.991455078125	0.2672986387084331	-9.63377249279306	-2.236591395828326	-0.3158617355069021	1.856195789725838	0.01856195789725838	0.1131687242798354	-0.401673640167364	0.7559912854030502
6854.522705078125	0.1835128131143232	-9.931546971395969	-1.878580604277039	-0.7071324468030056	-0.3943483017622991	0.3734150075484148	0.09670781893004116	-0.4142259414225941	0.758169934640523
6874.053955078125	0.2963821403171648	-9.75572536222292	-2.252499214384742	-1.03806808758369	0.3419922857306982	0.7581369039893825	0.09670781893004116	-0.4100418410041841	0.7363834422657953
6893.585205078125	0.3472277478753428	-9.721669656910166	-1.775540498296048	-1.038087812293834	1.088260350705812	0.01088260350705812	0.1069958847736626	-0.405857740585774	0.738562091503268
6913.116455078125	0.3265002967913544	-9.774212745106988	-2.020799169640971	-1.384117083058446	1.451013800941082	0.01451013800941083	0.09876543209876544	-0.4267782426778242	0.7516339869281047
6932.647705078125	0.1234947476766264	-9.872747454559581	-2.1792711121199	-0.3309159160705404	-0.009927477482116214	1.131976196923292	0.1090534979423868	-0.4184100418410042	0.738562091503268
6952.178955078125	0.3660364395945807	-9.861002505188408	-2.539894811368526	-0.7448122788099262	-3.380553323588178	1.475628429028269	0.1069958847736626	-0.4079497907949791	0.738562091503268
6971.710205078125	0.5083631183087119	-9.769748775189415	-2.220777544950121	0.007571470879643689	-0.7460415125900286	1.124615056572213	0.09053497942386832	-0.403765690376569	0.7320261437908497
6991.241455078125	0.3066124923804086	-9.742791165999554	-1.948719898022639	-0.692058541529223	0.7255069004705412	0.007255069004705413	0.1069958847736626	-0.4205020920502092	0.7363834422657953
7010.772705078125	0.2363256794840702	-9.700765384926319	-1.92711945689592	-0.6844969330046514	0.3525994203680694	0.7582429753357562	0.0925925925925926	-0.4330543933054393	0.7734204793028323
7030.303955078125	0.3173813903843643	-9.676002375704989	-2.319010143265245	0.03774886849242525	0.3742667944129817	1.513176630208281	0.102880658436214	-0.4267782426778242	0.7342047930283225
7049.835205078125	0.3259011265421195	-9.834129770030479	-1.953093941882567	-0.3007582431679031	1.856648894496008	0.7732834700770356	0.1152263374485597	-0.4205020920502092	0.7407407407407408
7069.366455078125	0.1358530129690249	-9.647021935420746	-1.80422488987367	-0.669442752441013	2.218722687576024	-0.3551712636902775	0.102880658436214	-0.4100418410041841	0.7516339869281047
7088.897705078125	0.3067781988237046	-9.726220521669953	-2.311526072378089	-0.3460095460544673	-0.383514614739843	0.7508818349846771	0.1008230452674897	-0.4121338912133891	0.758169934640523
7108.428955078125	0.2952717050660532	-9.866768887334079	-2.247961484891801	-1.045600109043046	-0.4045023316295003	1.128030448381818	0.102880658436214	-0.4163179916317991	0.7472766884531591
7127.960205078125	0.791138132577906	-9.775075631098295	-2.187913107299843	-0.3233838946111852	0.7365671398780824	0.7620826525308564	0.1152263374485597	-0.4267782426778242	0.7407407407407408
7147.491455078125	0.3060032180797531	-9.803718596065096	-1.982075392571952	-0.6845265200698678	1.47200151783074	-0.3626384753877304	0.09876543209876544	-0.4100418410041841	0.7363834422657953
7167.022705078125	0.00492471466234569	-9.608538634775533	-2.258155462369931	-0.3309553654908289	1.482608652468111	-0.3625324040413567	0.08230452674897121	-0.4184100418410042	0.7559912854030502
7186.553955078125	0.0830229697118631	-9.879521210631877	-1.92748926517791	-1.0606838766719	-1.151223501374784	1.120563236684365	0.1131687242798354	-0.4184100418410042	0.7538126361655774
7206.085205078125	0.1259247720432538	-9.629745017896855	-2.116591639538047	-1.482161572646002	-3.402673802403261	-0.03402673802403261	0.09670781893004116	-0.3933054393305439	0.7363834422657953
7225.616455078125	0.2253961270625287	-9.783619616979461	-2.153593686245014	-1.497245340274856	-4.149394972148544	-0.04149394972148544	0.1111111111111111	-0.4267782426778242	0.7254901960784315
7245.147705078125	0.3475237965819631	-9.692064786248139	-1.844764364982951	-1.083319390470254	-1.898171223505152	0.735735268897024	0.09465020576131689	-0.4267782426778242	0.7429193899782136
7264.678955078125	0.5471556029273903	-9.930904353725627	-2.097134267717613	0.3988520445308194	1.131368546410551	1.143389157162219	0.1131687242798354	-0.4246861924686192	0.7233115468409587
7284.210205078125	0.3986866713547444	-9.62628235947505	-2.234903008835963	-0.3158124237315415	-0.009474372711946247	1.886697709103069	0.09465020576131689	-0.4121338912133891	0.738562091503268
7303.741455078125	0.4304083407893656	-9.484418446315978	-2.126482495473562	-0.6995807006335061	-0.3941217493772142	0.7507757636383033	0.102880658436214	-0.4414225941422594	0.758169934640523
7323.272705078125	0.2327831990560472	-10.05501342772862	-2.005473344446376	-1.038077949938762	0.715126318218255	0.3845097537482203	0.1193415637860082	-0.4330543933054393	0.7429193899782136
7342.803955078125	0.3564992254587823	-9.804622908667229	-1.971514638027259	-0.3459898213443231	-1.129782679714956	1.498136135467002	0.09876543209876544	-0.4163179916317991	0.7407407407407408
7362.335205078125	0.06250366208713672	-9.911249952902493	-2.11109907718587	-0.3535612922239668	-0.383741167124928	0.3735210788947885	0.1069958847736626	-0.4100418410041841	0.7363834422657953
7381.866455078125	0.2863760981954558	-9.746228564292803	-2.332932515717534	0.02264537615342631	0.3738136896428118	0.7584551180285036	0.1111111111111111	-0.403765690376569	0.7342047930283225
7401.397705078125	0.2919717218721219	-9.186666196626197	-1.921060057259053	0.03776859320256947	-0.3720012705621319	2.260430930690605	0.1111111111111111	-0.4142259414225941	0.7472766884531591
7420.928955078125	0.5498796551903538	-9.658499127429279	-2.123890806284207	-0.3686450598528215	-1.130462336870211	0.3660538671973356	0.1008230452674897	-0.4205020920502092	0.7233115468409587
7440.460205078125	0.5731907122225608	-9.347595444410588	-2.300031703482142	-0.2705611208449773	2.230689136523905	1.909099344195428	0.09876543209876544	-0.4142259414225941	0.7429193899782136
7459.991455078125	0.3573904027940694	-9.715505175138528	-2.148868021395653	-0.6166199786748051	3.712844684221846	0.791845427974294	0.08436213991769548	-0.4079497907949791	0.7298474945533769
7479.522705078125	0.1634118132184051	-9.921444940785765	-1.918680553149529	-0.3083099893374026	1.856422342110923	0.395922713987147	0.1069958847736626	-0.4184100418410042	0.7407407407407408
7499.053955078125	0.2054214278093666	-9.760887522093645	-1.940535616372043	-1.782939540524049	-0.7997568429321394	-0.007997568429321394	0.117283950617284	-0.4288702928870293	0.738562091503268
7518.585205078125	0.09339679930527776	-9.852239261391418	-2.208849712248235	-0.3460194084095394	-0.01038058225228618	0.3772546847435149	0.102880658436214	-0.4267782426778242	0.7342047930283225
7538.116455078125	0.2472309821822025	-9.620336125214095	-1.943190961085348	-0.3761869436672488	-1.503822921742853	0.3623202613486092	0.1049382716049383	-0.4100418410041841	0.7363834422657953
7557.647705078125	0.6091682081154914	-9.790249895521585	-2.04907737835149	-0.7448221411649982	-3.007419291100621	1.102001278787107	0.09465020576131689	-0.4351464435146443	0.7429193899782136
7577.178955078125	0.8530527284672283	-9.64422210277213	-2.110044214217571	2.958706521632559e-05	-1.11940209746267	1.120881450723487	0.09053497942386832	-0.4351464435146443	0.738562091503268
7596.710205078125	0.6710767415739612	-9.660002610280646	-2.031844918653849	-0.2479749188219837	4.843307021092057	0.4257915607769583	0.09465020576131689	-0.4288702928870293	0.738562091503268
7616.241455078125	0.1138130456055152	-9.8308166515697	-2.045958257677986	-0.6317333333688763	4.085525611939232	-0.3365032344466454	0.1069958847736626	-0.403765690376569	0.7494553376906319
7635.772705078125	-0.04766788338643467	-9.817293389148521	-2.026694883644826	-1.007920277036125	2.581702690196379	0.02581702690196379	0.09465020576131689	-0.4225941422594142	0.7603485838779958
7655.303955078125	0.2754738267127497	-9.826354702462414	-2.286542794835791	0.03020698467799789	0.0009062095403399367	1.509443024359554	0.1008230452674897	-0.4205020920502092	0.7450980392156863
7674.835205078125	0.303783357982672	-10.02570460577321	-1.962893861355299	-0.3384676622400399	-0.0101540298672012	0.7546154408334035	0.1008230452674897	-0.4079497907949791	0.7538126361655774
7694.366455078125	0.1050356561365375	-9.698454588366454	-1.958619847604432	-0.01508376762885473	-0.7467211697452836	-0.007467211697452836	0.117283950617284	-0.4205020920502092	0.7450980392156863
7713.897705078125	0.3063942448697261	-9.764615917067806	-2.111429479667319	0.007571470879643689	-0.7460415125900286	1.124615056572213	0.1213991769547325	-0.4100418410041841	0.7211328976034859
7733.428955078125	0.6207858464387681	-9.638587073294923	-2.011075030553894	-1.060703601382045	-0.4049554363996703	0.3733089362020411	0.09053497942386832	-0.4163179916317991	0.738562091503268
7752.960205078125	0.4476741438566948	-9.778040159785068	-2.161192943318363	-0.2932262217085478	2.603143511856206	0.4033899256845999	0.1008230452674897	-0.4267782426778242	0.7559912854030502
7772.491455078125	0.05472253208821917	-9.679261942693238	-2.160183548581457	-0.3158420107967578	1.109927724750724	0.7658162583795828	0.1152263374485597	-0.405857740585774	0.7494553376906319
7792.022705078125	0.1426813309189905	-9.9742911505252	-2.194257441186767	-0.3158124237315415	-0.009474372711946247	1.886697709103069	0.09670781893004116	-0.4246861924686192	0.7363834422657953
7811.553955078125	0.3954816662441658	-9.946782870532921	-1.968131801611679	-0.3384282128197515	-1.502690159817428	2.249124041798052	0.1069958847736626	-0.4205020920502092	0.7472766884531591
7831.085205078125	0.2755657735806761	-9.817160015669769	-2.376991231936571	0.03022670938814211	-0.7453618554347736	2.256697324841879	0.1090534979423868	-0.4205020920502092	0.738562091503268
7850.616455078125	0.2542532979194415	-9.928205561591213	-2.413059664292286	0.722275388562293	-1.097734723417758	1.875815105596011	0.08847736625514405	-0.4205020920502092	0.7516339869281047
7870.147705078125	0.472498787791691	-9.315777786487471	-2.349952790335346	-0.7297876853115041	-0.3950279589175541	-0.7586672607212511	0.1213991769547325	-0.4225941422594142	0.7342047930283225
7889.678955078125	-0.1286478139010751	-9.834478359804486	-1.886949790068629	-0.6844969330046514	0.3525994203680694	0.7582429753357562	0.1069958847736626	-0.405857740585774	0.7320261437908497
7909.210205078125	0.3662890408800928	-9.835742376637189	-2.033578773877604	-0.7221964897217161	-1.887337536482696	1.113202096333286	0.1111111111111111	-0.4225941422594142	0.7538126361655774
7928.741455078125	0.4898262255726853	-9.603236028590061	-1.768192832103069	0.03773900613735315	0.7474008269005386	1.139549479967119	0.1049382716049383	-0.4205020920502092	0.7342047930283225
7948.272705078125	0.2677270504886618	-9.590931314770192	-1.992020810385138	-1.023023769375124	2.581249585426209	-0.7289044852778135	0.1049382716049383	-0.4288702928870293	0.7494553376906319
7967.803955078125	0.143293636435072	-9.913060598917045	-2.130583729945138	-0.669432890085941	1.845588655088467	0.01845588655088467	0.1049382716049383	-0.4205020920502092	0.7342047930283225
7987.335205078125	0.3262992261680868	-9.794319807433757	-2.011705523362532	-0.3535317051587504	-1.503143264587598	1.494402529618275	0.08641975308641976	-0.4079497907949791	0.7494553376906319
8006.866455078125	0.3659990546043249	-9.864741004213988	-1.90371847380607	-0.7297285111810714	-2.633832153842895	1.483095640725722	0.09670781893004116	-0.4225941422594142	0.7363834422657953
8026.397705078125	0.4487876103232326	-9.666693513131293	-2.135412456118989	-0.3309356407806847	0.7363405874929974	0.3847218964409677	0.1152263374485597	-0.4246861924686192	0.7363834422657953
8045.928955078125	0.2037896235049579	-9.924067952534523	-2.100226107452283	-1.007949864101341	3.701104787659049	-1.095064423821523	0.1193415637860082	-0.4184100418410042	0.7516339869281047
8065.460205078125	0.06412031031441474	-9.749585130174689	-2.102999669567207	-0.654339260102014	2.219175792346193	0.3995502484894997	0.1049382716049383	-0.4100418410041841	0.7450980392156863
8084.991455078125	0.2253900646316764	-9.784225860064689	-2.214230119629645	-0.7146546059072888	-1.513976951610055	1.116935702182013	0.1213991769547325	-0.4288702928870293	0.7342047930283225
8104.522705078125	0.3159587399443596	-9.818267419705455	-2.406945702777749	-0.7071423091580777	-0.02121426927474233	-0.0002121426927474233	0.09465020576131689	-0.4205020920502092	0.7342047930283225
8124.053955078125	0.1061218416642399	-9.58983603559621	-2.205703310635896	-0.3158420107967578	1.109927724750724	0.7658162583795828	0.102880658436214	-0.4225941422594142	0.7298474945533769
8143.585205078125	0.2568207373853874	-9.671461614996621	-1.986055378426482	-0.3384676622400399	-0.0101540298672012	0.7546154408334035	0.1111111111111111	-0.4246861924686192	0.7407407407407408
8163.116455078125	0.628636694392487	-9.86360328802404	-2.274772585336065	0.03020698467799789	0.0009062095403399367	1.509443024359554	0.1131687242798354	-0.4267782426778242	0.7516339869281047
8182.647705078125	0.2454961165533048	-9.793822688103869	-2.123599809603297	-0.3083099893374026	1.856422342110923	0.395922713987147	0.1111111111111111	-0.4184100418410042	0.7320261437908497
8202.178955078125	-0.09510842561590836	-9.51084256159084	-1.779523515366004	-0.7071423091580777	-0.02121426927474233	-0.0002121426927474233	0.1213991769547325	-0.4142259414225941	0.7363834422657953
8221.710205078125	0.4149582357622979	-10.01932793892174	-2.11297843075008	0.007591195589787905	-1.492309577565142	1.871869357054537	0.1111111111111111	-0.401673640167364	0.7429193899782136
8241.241455078125	0.3463769867457378	-9.806745769870673	-2.204045235797794	-1.098422882809253	-1.898624328275322	-0.01898624328275322	0.1049382716049383	-0.4246861924686192	0.7211328976034859
8260.772705078125	0.3067913340905511	-9.724906994985291	-2.180147133378056	-0.6845265200698678	1.47200151783074	-0.3626384753877304	0.09670781893004116	-0.4142259414225941	0.7276688453159043
8280.303955078125	0.06319477920429808	-9.842138241186356	-2.269252742045053	-0.6920684038842951	1.098640932958098	-0.3663720812364568	0.1275720164609054	-0.4205020920502092	0.738562091503268
8299.835205078125	0.08339884042470525	-9.841934139347662	-2.208434435734854	-0.3309060537154684	-0.383061509969673	1.505603347164454	0.1049382716049383	-0.4100418410041841	0.7516339869281047
8319.366455078125	0.5284620973943461	-9.780052886828029	-2.200889740539175	0.3611623501688268	-1.481702442927771	1.871975428400911	0.09053497942386832	-0.405857740585774	0.7538126361655774
8338.897705078125	0.4482005649357022	-9.725398051884326	-1.946434361591324	-0.3384873869501842	0.7361140351079124	0.007361140351079124	0.1090534979423868	-0.4225941422594142	0.7429193899782136
8358.428955078125	0.09473760692877647	-9.718158499041547	-1.929404993327234	-0.3611031760383941	-0.7571017519975698	0.3697874730460621	0.1152263374485597	-0.4100418410041841	0.738562091503268
8377.960205078125	0.1667148276277625	-9.591143499850023	-2.215263764089961	0.03774886849242525	0.3742667944129817	1.513176630208281	0.102880658436214	-0.4079497907949791	0.738562091503268
8397.491455078125	0.2957041584668501	-9.823523547254393	-1.962966610525526	0.01511335469407105	-0.3726809277173868	1.128348662420939	0.1069958847736626	-0.4246861924686192	0.7320261437908497
8417.022705078125	0.317086352082886	-9.705506205852812	-2.239680204347569	-0.6769649115452961	1.099094037728268	0.3883494309433204	0.1090534979423868	-0.4184100418410042	0.7429193899782136
8436.553955078125	0.3466053383078408	-9.783910613660371	-1.940274931845395	-1.421826502130583	-0.4157891234221265	-0.004157891234221264	0.1213991769547325	-0.4205020920502092	0.7450980392156863
8456.085205078125	0.2260347031123035	-9.719762012001977	-1.82716209700332	-0.3158222860866136	0.3636596597756105	1.513070558861907	0.09876543209876544	-0.4205020920502092	0.7254901960784315
8475.616455078125	0.3779036479879435	-9.684382675953142	-2.025894642772323	-0.3082804022721863	0.7370202446482523	1.516804164710634	0.1255144032921811	-0.4246861924686192	0.7429193899782136
8495.147705078125	0.3384089317955412	-9.593450254789319	-2.102551049684137	-0.6467875139325145	2.219402344731279	0.7769110045793883	0.1049382716049383	-0.4205020920502092	0.7320261437908497
8514.678955078125	0.2348050197452868	-9.852831358804659	-1.985243012692275	-1.038097674648906	1.461394383193369	-0.3627445467341041	0.1152263374485597	-0.4184100418410042	0.7450980392156863
8534.210205078125	0.428490591829757	-9.676193342276836	-2.115888397559181	-0.6995708382784341	-0.7672557818647709	1.124402913879466	0.1152263374485597	-0.4121338912133891	0.758169934640523
8553.741455078125	0.6002635075986156	-9.670618937108152	-2.225003059254169	0.03019712232292578	0.3740402420278968	1.135815874118392	0.1111111111111111	-0.4163179916317991	0.7429193899782136
8573.272705078125	0.04230667370272391	-9.910746771141753	-2.101174877880667	-1.007920277036125	2.581702690196379	0.02581702690196379	0.1090534979423868	-0.4246861924686192	0.7320261437908497
8592.803955078125	0.11391408611972	-9.820712600149212	-2.045452044701819	-0.7071225844479335	-0.7674823342498559	0.7470421577895769	0.1152263374485597	-0.4184100418410042	0.7429193899782136
8612.335205078125	0.3874944135962703	-9.735407125221462	-2.058652987882686	-0.4063446165698862	-3.370399293720977	0.7210129881948657	0.1111111111111111	-0.4246861924686192	0.7494553376906319
8631.866455078125	0.3691990076891933	-9.544745695727144	-2.221020042184213	-0.2856547508289042	1.857101999266178	1.528004982256813	0.08641975308641976	-0.4267782426778242	0.7298474945533769
8651.397705078125	0.4876124279064564	-9.824615795212948	-1.688374867501785	-1.369033315429591	2.197734970686366	0.02197734970686366	0.1131687242798354	-0.4100418410041841	0.7342047930283225
8670.928955078125	0.07180242060941153	-9.991475110776022	-2.034209266686243	-1.015442436140408	1.462074040348624	0.7693377215355618	0.1069958847736626	-0.4225941422594142	0.738562091503268
8690.460205078125	0.1655346744218495	-9.709158820441319	-1.897944008419262	0.05284249847635209	0.7478539316707085	1.894270992146896	0.09670781893004116	-0.403765690376569	0.7407407407407408
8709.991455078125	0.2898296629709785	-9.400872086740536	-2.133811974373984	-1.060703601382045	-0.4049554363996703	0.3733089362020411	0.1111111111111111	-0.4267782426778242	0.7538126361655774
8729.522705078125	0.1970027321658163	-9.592656076347669	-2.305945604778554	-1.038087812293834	1.088260350705812	0.01088260350705812	0.1131687242798354	-0.4121338912133891	0.738562091503268
8749.053955078125	0.1638776099888895	-9.874865263737316	-2.310286305268795	-0.3309257784256125	0.3632065550054406	0.75834904668213	0.09876543209876544	-0.4205020920502092	0.7516339869281047
8768.585205078125	0.1264441202862668	-9.577810193595548	-1.97257556342641	-0.361093313683322	-1.130235784485127	0.7434146232872243	0.09053497942386832	-0.405857740585774	0.7320261437908497
8788.116455078125	0.1243050926005495	-9.791712962167272	-2.155009263849025	0.02266510086357052	-0.3724543753323019	1.505709418510828	0.09465020576131689	-0.403765690376569	0.7538126361655774
8807.647705078125	0.306581169821005	-9.745923421939905	-2.262008137176563	-0.3460095460544673	-0.383514614739843	0.7508818349846771	0.1131687242798354	-0.4246861924686192	0.7298474945533769
8827.178955078125	0.2670955472748813	-9.654081636148241	-2.247709894011431	-0.676945186835152	0.3528259727531544	1.135603731425645	0.1069958847736626	-0.4163179916317991	0.7538126361655774
8846.710205078125	0.2876067716584713	-9.623161217991264	-2.144948659849645	-0.3083001269823305	1.483288309623366	0.7695498642283092	0.1131687242798354	-0.4372384937238493	0.7516339869281047
8866.241455078125	0.1855093736750115	-9.731890915327131	-2.111002078292233	0.04528088995178051	1.12076141177318	1.143283085815845	0.09670781893004116	-0.4225941422594142	0.7276688453159043
8885.772705078125	0.4582894602790591	-9.726609527649643	-2.047404147436258	-0.6920388168190788	-0.02076116450457237	0.7545093694870298	0.1152263374485597	-0.4163179916317991	0.7429193899782136
8905.303955078125	0.4288998059122868	-9.63527193402386	-2.063333184500656	-0.6845067953597235	0.7257334528556262	0.384615825094594	0.1193415637860082	-0.4184100418410042	0.7407407407407408
8924.835205078125	0.2853980260179527	-9.844035782043123	-2.014600334094502	0.03019712232292578	0.3740402420278968	1.135815874118392	0.1008230452674897	-0.4079497907949791	0.7320261437908497
8944.366455078125	0.06529844271004362	-9.631771890611803	-2.440531569699449	0.05282277376620787	1.494121996645822	1.147016691664571	0.09465020576131689	-0.4205020920502092	0.7254901960784315
8963.897705078125	0.2066985799089162	-9.633172312138683	-2.297773447989663	-0.6996004253436504	0.3521463155978994	0.003521463155978994	0.1069958847736626	-0.4184100418410042	0.7516339869281047
8983.428955078125	0.06330390295963935	-9.831225865652231	-2.187897951222712	-1.060693739026972	-0.7780894688872271	0.7469360864432033	0.09670781893004116	-0.4267782426778242	0.7342047930283225
9002.960205078125	0.7813432651308854	-9.744461365699362	-2.176379332603356	-0.3610834513282499	-1.503369816972683	1.117041773528386	0.1152263374485597	-0.4205020920502092	0.7363834422657953
9022.491455078125	0.477782196279464	-9.797537947811183	-2.03055362088231	-0.6392456301180872	2.592762929603921	0.7806446104281147	0.09876543209876544	-0.4205020920502092	0.7276688453159043
9042.022705078125	0.2442826199777042	-9.915172345663926	-2.139780437548066	-0.6618910062715135	2.218949239961109	0.02218949239961108	0.1131687242798354	-0.4225941422594142	0.7472766884531591
9061.553955078125	0.08139520702802254	-10.04229747901593	-2.046755467335062	-0.6618515568512251	0.7264131100108812	1.51669809336426	0.1193415637860082	-0.4288702928870293	0.7559912854030502
9081.085205078125	0.2850868212342016	-9.875156260418226	-2.096967550869175	-0.7297482358912155	-1.887564088867781	0.7358413402433978	0.09670781893004116	-0.4079497907949791	0.758169934640523
9100.616455078125	0.3591050603201261	-9.544039422532853	-2.170580617493139	0.01510349233899894	0.0004531047701699683	0.7547215121797772	0.1213991769547325	-0.4225941422594142	0.7407407407407408
9120.147705078125	0.2648868016343627	-9.874956200200099	-2.117361568256288	-1.04561983375319	0.3417657333456133	0.3807761478994939	0.1069958847736626	-0.399581589958159	0.7407407407407408
9139.678955078125	0.2862033189161655	-9.763506492221836	-2.040868846977486	-0.7071225844479335	-0.7674823342498559	0.7470421577895769	0.09465020576131689	-0.4225941422594142	0.7429193899782136
9159.210205078125	0.5195695217391748	-9.659209442244139	-2.255542554672593	-0.323364169901041	-0.009700925097031229	1.509336953013181	0.102880658436214	-0.4100418410041841	0.7450980392156863
9178.741455078125	0.4270689517948944	-9.818357345763097	-2.193717884840913	0.4441230721275278	2.625263990671289	1.913045092736902	0.08847736625514405	-0.4142259414225941	0.7320261437908497
9198.272705078125	0.1354175283528019	-9.690570397043048	-2.119537980932261	-1.038058225228618	-0.03114174675685855	1.131764054230545	0.1131687242798354	-0.4225941422594142	0.738562091503268
9217.803955078125	0.2247777591155949	-9.845456411672844	-2.277903830871274	-0.3158124237315415	-0.009474372711946247	1.886697709103069	0.09670781893004116	-0.4163179916317991	0.7429193899782136
9237.335205078125	0.4082794577733555	-9.677104727714964	-2.247449209484782	-0.007502434394138929	-1.865896714822869	1.490774995115922	0.1049382716049383	-0.4100418410041841	0.7342047930283225
9256.866455078125	0.3271833306673794	-9.70590935750449	-2.259801412346329	-0.3083198516924747	2.229556374598479	0.0222955637459848	0.09876543209876544	-0.4267782426778242	0.7538126361655774
9276.397705078125	-0.0442436203600314	-9.474867086508192	-2.120650436993657	-0.3460292707646115	0.3627534502352706	0.003627534502352706	0.09670781893004116	-0.4267782426778242	0.7603485838779958
9295.928955078125	0.2549848312422848	-9.855052229306882	-2.166970439920598	-0.4289801303682404	-4.117347015851346	0.3361850204075243	0.1111111111111111	-0.4079497907949791	0.7342047930283225
9315.460205078125	0.7023993009774731	-9.5580497002325	-1.874918896042254	-0.737290119705643	-2.260924673740423	0.7321077343946713	0.117283950617284	-0.4142259414225941	0.738562091503268
9334.991455078125	0.3943863870701849	-10.05631078793101	-1.812002988657162	-1.060713463737117	-0.0318214039121135	-0.000318214039121135	0.1069958847736626	-0.405857740585774	0.7320261437908497
9354.522705078125	0.2479190680839378	-9.551527535040574	-2.131662842636846	-1.038097674648906	1.461394383193369	-0.3627445467341041	0.1316872427983539	-0.401673640167364	0.7254901960784315
9374.053955078125	0.3401508702604333	-9.419256408300113	-1.851399695550785	-1.030506479059119	-0.03091519437177356	1.509124810320433	0.1131687242798354	-0.4225941422594142	0.738562091503268
9393.585205078125	0.1445041017952465	-9.792014062899602	-2.144721318692684	-0.3384873869501842	0.7361140351079124	0.007361140351079124	0.1131687242798354	-0.4184100418410042	0.758169934640523
9413.116455078125	0.06247334993287526	-9.914281168328639	-2.414281244109023	0.03018725996785367	0.7471742745154536	0.76218872387723	0.0925925925925926	-0.403765690376569	0.7298474945533769
9432.647705078125	0.4489583687922388	-9.64961766623067	-2.447688269320581	0.3536106039993273	-1.481928995312856	1.494614672311023	0.1069958847736626	-0.405857740585774	0.7472766884531591
9452.178955078125	0.33548380890931	-9.885962543412438	-2.066700864839105	-0.6995807006335061	-0.3941217493772142	0.7507757636383033	0.09876543209876544	-0.4205020920502092	0.7407407407407408
9471.710205078125	0.4388927127671491	-9.646082258638641	-2.114278822167897	-0.3460095460544673	-0.383514614739843	0.7508818349846771	0.1069958847736626	-0.401673640167364	0.7429193899782136
9491.241455078125	0.06220862378565849	-9.940753783050317	-2.031769138268195	-0.6769846362554405	1.845362102703382	-0.358904869539004	0.09670781893004116	-0.4100418410041841	0.7559912854030502
9510.772705078125	0.05303717631128182	-9.847797520386971	-1.84539485779159	-0.676955049190224	0.7259600052407112	0.7619765811844826	0.09465020576131689	-0.399581589958159	0.7342047930283225
9530.303955078125	0.2072452090907646	-9.578509393953844	-1.880893421647189	-1.42936838594501	-0.7891497082947683	-0.007891497082947682	0.09876543209876544	-0.401673640167364	0.7538126361655774
9549.835205078125	0.1953103035528846	-9.761898937640838	-2.061899419604089	-0.2856744755390484	2.603370064241291	0.7807506817744885	0.1193415637860082	-0.3953974895397489	0.7429193899782136
9569.366455078125	0.1550294921599684	-9.749576036528412	-1.920271941248255	-0.376196806022321	-1.130688889255296	-0.01130688889255296	0.1090534979423868	-0.405857740585774	0.7407407407407408
9588.897705078125	0.2640815087361498	-9.955485490021388	-2.091093055373304	-0.6995905629885782	-0.02098771688965735	0.3771486133971412	0.1049382716049383	-0.4246861924686192	0.7625272331154684
9608.428955078125	0.4066820072437764	-9.836849780672873	-2.063533244718782	-0.3309159160705404	-0.009927477482116214	1.131976196923292	0.1152263374485597	-0.4267782426778242	0.7363834422657953
9627.960205078125	0.4361727021247538	-9.918083322878168	-2.047097994678217	-0.3233838946111852	0.7365671398780824	0.7620826525308564	0.1049382716049383	-0.4163179916317991	0.7516339869281047
9647.491455078125	0.2043200862045335	-9.871021682576961	-1.845043236802157	-0.3007681055229752	2.229782926983564	0.3996563198358734	0.102880658436214	-0.403765690376569	0.7494553376906319
9667.022705078125	0.3868123901253874	-9.803609472309754	-1.809544672946557	-0.6618811439164415	1.845815207473552	0.3958166426407733	0.1193415637860082	-0.405857740585774	0.7472766884531591
9686.553955078125	0.133388634827568	-9.893459749566439	-2.210510818301764	-0.2781227293695489	2.603596616626376	1.158111437864377	0.0925925925925926	-0.397489539748954	0.7276688453159043
9706.085205078125	0.07412029000527141	-9.759688171190035	-2.083202801619045	-0.714674330617433	-0.767708886634941	0.3696814016996884	0.1008230452674897	-0.4142259414225941	0.7320261437908497
9725.616455078125	0.3867901612122623	-9.805832363622262	-2.031878262023536	-0.3535612922239668	-0.383741167124928	0.3735210788947885	0.102880658436214	-0.4309623430962343	0.7472766884531591
9745.147705078125	0.2166308624552556	-9.650045067605756	-1.9449824094022	0.007561608524571581	-0.3729074801024718	0.7509879063310508	0.1090534979423868	-0.4205020920502092	0.7298474945533769
9764.678955078125	0.1430875137860941	-9.93367286381484	-2.172020444820558	-0.7071324468030056	-0.3943483017622991	0.3734150075484148	0.102880658436214	-0.4414225941422594	0.7538126361655774
9784.210205078125	0.3889968860424969	-9.585159880598811	-2.182438732240223	0.06790654139506259	2.240843166391106	1.154483903362024	0.1255144032921811	-0.4372384937238493	0.7429193899782136
9803.741455078125	0.2863043594303704	-9.753402440801349	-2.040362634001319	-0.6694230277308688	1.47245462260091	0.3920830367920469	0.1008230452674897	-0.4142259414225941	0.7320261437908497
9823.272705078125	0.1450093043662709	-9.741493805797163	-2.142190253811852	-0.3309356407806847	0.7363405874929974	0.3847218964409677	0.1069958847736626	-0.4351464435146443	0.7211328976034859
9842.803955078125	0.05404050861733625	-9.747464289781528	-1.911075233645328	-0.7448320035200703	-2.634285258613065	0.7283741285459449	0.1090534979423868	-0.4142259414225941	0.7429193899782136
9862.335205078125	0.1445172370620931	-9.790700536214938	-2.013342379692651	-0.7372703949954987	-3.007192738715537	1.479362034876996	0.1069958847736626	-0.4079497907949791	0.7429193899782136
9881.866455078125	0.3869851694046778	-9.786331544380721	-2.101608341686605	5.917413043265117e-05	-2.238804194925341	2.241762901446973	0.1069958847736626	-0.4142259414225941	0.7429193899782136
9901.397705078125	0.6091954890543267	-9.787521801638052	-1.776213428120653	0.02266510086357052	-0.3724543753323019	1.505709418510828	0.09876543209876544	-0.4205020920502092	0.7516339869281047
9920.928955078125	0.3614380857931167	-9.310736875233792	-2.067983068964365	-0.6468072386426589	2.965670409706392	0.02965670409706392	0.1090534979423868	-0.4246861924686192	0.738562091503268
9940.460205078125	0.03363739758394552	-9.767573372918584	-1.942587749215544	-0.6392357677630152	2.219628897116364	1.154271760669277	0.1193415637860082	-0.4267782426778242	0.7538126361655774
9959.991455078125	0.4081915525259973	-9.685895252450788	-2.116576483460916	-0.3535415675138225	-1.130009232100041	1.120775379377113	0.102880658436214	-0.4288702928870293	0.7429193899782136
9979.522705078125	0.02536116906542406	-9.585095214669717	-1.893142563184246	1.083408151665903	-1.460035068882859	2.626909083273436	0.1111111111111111	-0.4267782426778242	0.738562091503268
9999.053955078125	-0.3257162224011246	-10.34940001789024	-1.24799989039125	-1.851536357161645	-28.41375504593873	6.508315279729293	0.1152263374485597	-0.4142259414225941	0.7298474945533769
10018.58520507812	0.8260294429431341	-9.316247624878525	-1.689875319137727	5.477070095837701	7.253864341681102	1.581972605680962	0.1049382716049383	-0.4184100418410042	0.7298474945533769
10038.11645507812	-0.6312900182955071	-9.593648294197161	-2.041550870448369	3.942204097686357	-2.120539847218663	4.884454978886304	0.1131687242798354	-0.4205020920502092	0.6993464052287582
10057.64770507812	0.05982305724528134	-10.17931043708803	-0.63968042259508	4.445695819144751	-11.43379330453013	4.036605463181114	0.1337448559670782	-0.4267782426778242	0.738562091503268
10077.17895507812	0.7497115217539065	-9.8773326730942	-1.38535941742707	10.47143990284191	-8.64108068351176	2.177740136561109	0.1152263374485597	-0.4288702928870293	0.7320261437908497
10096.71020507812	-0.01811858500721848	-9.892666581529934	-1.424107444219498	8.666821407348982	5.110750910877186	4.202050905335187	0.1213991769547325	-0.4142259414225941	0.7102396514161221
10116.24145507812	-0.1694479735370044	-9.874090282993363	-0.8792373777234221	11.11168154120976	2.572156416385547	5.308740432088384	0.1152263374485597	-0.4435146443514644	0.6906318082788672
10135.77270507812	0.0344719922312778	-9.684113908185354	-0.6656791573051368	13.37544770232864	-5.568885822661485	2.963179066301687	0.1296296296296297	-0.4393305439330544	0.6906318082788672
10155.30395507812	0.3644359578495754	-10.02105067968893	-0.3660950430928195	18.31032064938604	-4.674570977533344	1.462688252488818	0.1337448559670782	-0.4539748953974895	0.6644880174291939
10174.83520507812	0.5267029820420391	-9.955964422058718	-0.6036423023936266	23.68927721915068	0.3375439882163114	0.3807339304482009	0.1481481481481482	-0.4665271966527196	0.6688453159041395
10194.36645507812	0.2013727344051772	-10.16575686251259	-0.01132462083208257	27.34569835539219	4.924848562602064	1.936040938456209	0.1502057613168724	-0.4748953974895397	0.6209150326797386
10213.89770507812	-0.01524196156780563	-10.61510524768966	0.07515292406044523	30.54293237658747	5.393899911596132	2.318089942512188	0.168724279835391	-0.4811715481171548	0.6296296296296297
10233.42895507812	0.1402775770860565	-10.2146665338186	0.02602298443346606	34.32661884119985	0.6566642368777862	1.893359095198967	0.1666666666666667	-0.5104602510460251	0.5838779956427016
10252.96020507812	0.2990576931333099	-10.49827109070942	0.2659558102746503	40.06669831171302	5.679612889649897	1.188871600594612	0.1728395061728395	-0.5334728033472803	0.5882352941176471
10272.49145507812	0.3025051954779803	-10.15352085624238	0.4044399182335702	44.994029374956	6.200567149905397	-0.3153528190669838	0.1893004115226338	-0.5460251046025104	0.5511982570806101
10292.02270507812	0.2508896592015611	-10.26456943337925	0.3074622431048716	48.99643047018676	12.29078843649366	-0.6318090967671389	0.1995884773662552	-0.5794979079497907	0.5315904139433552
10311.55395507812	-0.1409121115152631	-10.05080711112227	0.6980707253489362	51.53181293453081	13.48625289549861	1.266938000653099	0.2098765432098766	-0.6004184100418409	0.5359477124183007
10331.08520507812	-0.3046411919482714	-10.26209899280694	0.4535456081371403	54.28501264479421	7.971833961433378	3.098586264142636	0.220164609053498	-0.6359832635983264	0.5163398692810458
10350.61645507812	-0.0162149817195986	-10.71240726286896	0.4440154668373363	55.66917903962801	4.655149998054513	4.952211877339036	0.2283950617283951	-0.6443514644351463	0.4923747276688454
10370.14770507812	-0.5275113061556781	-10.32688819132539	0.5995925985842951	56.72992209043035	3.567569304503956	6.073411542101644	0.2448559670781893	-0.6799163179916318	0.4923747276688454
10389.67895507812	-0.1352871860894776	-10.49841557864473	0.3929182683987881	59.14461468903342	-0.4644675294782512	7.165166645459935	0.2757201646090535	-0.6924686192468619	0.485838779956427
10409.21020507812	0.3016988921746254	-10.23415118657787	0.4206023588857823	62.01091306944801	0.7409244070088136	7.931937545956881	0.257201646090535	-0.7112970711297071	0.4814814814814815
10428.74145507812	0.5201676815832676	-10.60949446793586	0.6969491756412621	66.90152085951354	13.57420980488988	9.94706285276588	0.2736625514403292	-0.7447698744769874	0.485838779956427
10448.27270507812	0.09868020779305077	-10.33399942271513	1.140852487507831	69.55002171871894	20.74321706947202	11.52818688767585	0.2818930041152264	-0.7468619246861924	0.4684095860566449
10467.80395507812	-0.6903148554785699	-10.44562696199839	1.531421563951356	71.73942422407373	20.43576481627445	15.29869727080425	0.2757201646090535	-0.7928870292887029	0.4836601307189543
10487.33520507812	-0.9915742214164041	-10.26853325275151	1.466556585047251	71.20488730736872	9.971967514743449	16.7034932600531	0.257201646090535	-0.7928870292887029	0.5098039215686275
10506.86645507812	-1.020532432787522	-10.13405135956024	1.725516350118356	69.85009954899938	-6.859720894127033	18.79932731936062	0.2695473251028807	-0.813807531380753	0.5119825708061002
10526.39770507812	-0.446185817082457	-10.27514736481136	1.895922187730022	68.32268667346681	-12.50255820576614	18.74289894624423	0.2654320987654321	-0.8305439330543932	0.5359477124183007
10545.92895507812	-0.3646976527813661	-10.20713901551034	1.789026375726973	69.06000638023767	-11.36103562948839	19.13167266257304	0.2674897119341564	-0.8410041841004183	0.5511982570806101
10565.46020507812	-0.2142867225257025	-10.31756114145914	2.158746752469463	69.11279956693866	-8.747511535379902	19.15780790351413	0.271604938271605	-0.8723849372384936	0.5664488017429194
10584.99145507812	-0.2944825786501131	-10.25633867309212	2.059995816316469	69.89538043895116	-5.738959482353854	19.94261040517646	0.2469135802469136	-0.8807531380753137	0.5882352941176471
10604.52270507812	-0.4146157084191433	-10.14843952878302	2.508633886678679	69.93308985802329	-3.872156557990644	19.96127843442009	0.2551440329218107	-0.8870292887029287	0.5838779956427016
10624.05395507812	-0.6421316654696902	-9.667712001514477	2.651607224683721	70.92593622978563	-7.573714450419863	20.30162134606184	0.2613168724279836	-0.899581589958159	0.6143790849673203
10643.58520507812	-0.3125738827184962	-10.04526705972842	2.928954342529829	71.27195563819518	-7.563333868167578	19.92436666131833	0.2489711934156379	-0.8870292887029287	0.627450980392157
10663.11645507812	-0.0296180059288755	-10.03250766359462	2.750603689286233	74.59740168423572	-0.7471525763386002	20.36988696480265	0.2427983539094651	-0.905857740585774	0.6557734204793029
10682.64770507812	-0.3101913473935453	-9.807013527233314	3.52674943036642	75.86929775713187	9.365631171519926	20.84837329284728	0.2510288065843622	-0.899581589958159	0.6710239651416122
10702.17895507812	-0.915596806760047	-9.741498857822874	3.81690040217257	76.23798226640497	9.003557378439911	21.97682802661459	0.2489711934156379	-0.8953974895397488	0.7254901960784315
10721.71020507812	-1.307805770749117	-9.56845586279046	4.175165815819653	75.44038666324913	2.636345928255683	23.79994836494294	0.2510288065843622	-0.8786610878661087	0.7320261437908497
10741.24145507812	-1.037139451702235	-9.774551230829573	4.308981852022308	73.08516133752765	-9.001475010620439	23.68357015555418	0.2325102880658436	-0.8640167364016735	0.7603485838779958
10760.77270507812	-0.541554927225014	-9.71104827805695	4.579739107531974	74.76254409171493	-14.54816845336796	24.76017869282481	0.2263374485596708	-0.8619246861924685	0.766884531590414
10780.30395507812	-0.4287431931152692	-9.54098597819358	4.639875390371291	76.73404058995474	-4.787531021107328	25.23514355771346	0.2489711934156379	-0.8619246861924685	0.7712418300653595
10799.83520507812	-0.788650515118182	-9.168081814848495	4.846840717237708	80.4809248825491	5.772636701700354	25.34074523494153	0.2078189300411523	-0.8577405857740585	0.8169934640522877
10819.36645507812	-1.283121573128865	-9.120238120967343	5.611964959028426	81.1578897940944	4.673542663972086	24.95239580399821	0.1954732510288066	-0.8430962343096233	0.8191721132897605
10838.89770507812	-1.607192855958735	-9.204134080721936	5.665135508818459	80.5704512047826	-4.299304374304284	22.22115789965319	0.1954732510288066	-0.8263598326359832	0.8779956427015252
10858.42895507812	-1.160126975997553	-8.941990529048235	5.500895163383573	82.2704102986378	-6.860245899996091	21.44083150326419	0.1995884773662552	-0.813807531380753	0.8910675381263617
10877.96020507812	-0.9564212161193854	-8.773434743251659	5.592168091080264	83.39900071670476	-3.4681792322302	21.47475216994185	0.2139917695473251	-0.7970711297071129	0.8997821350762528
10897.49145507812	-1.106395651353684	-8.619363115166355	5.547866877627136	81.07486003565019	3.178514457785924	22.29593608797409	0.1790123456790124	-0.7782426778242677	0.9389978213507626
10917.02270507812	-1.093656463322733	-8.355545322172279	5.692498290470281	78.48769025521	12.80239190168615	24.65632580580932	0.191358024691358	-0.7824267782426778	0.9477124183006537
10936.55395507812	-1.263477276357154	-8.16590945389714	6.134625310097128	78.30007999396864	19.51318150429667	26.23286766409957	0.1502057613168724	-0.7531380753138075	0.9978213507625273
10956.08520507812	-1.825877872067775	-7.840312459302777	6.256392264980851	80.4969750713625	21.44475999840953	28.13897590187089	0.1522633744855967	-0.7259414225941422	0.9869281045751634
10975.61645507812	-2.500199024552855	-7.595660031043083	6.140669553656863	81.30125462305402	9.155455549139383	27.63872436681215	0.1358024691358025	-0.705020920502092	1.034858387799564
10995.14770507812	-2.485914927059712	-7.177351291829752	6.585970255834886	79.10349174802633	-11.43286539681294	26.67812417622055	0.1358024691358025	-0.6673640167364017	1.054466230936819
11014.67895507812	-2.058026536694616	-6.81275467956259	6.527670889543814	75.95809435470255	-24.58692881114997	23.90507410811492	0.1604938271604938	-0.6485355648535565	1.06318082788671
11034.21020507812	-1.431296476805175	-6.76601131688113	6.39486121686264	75.02557319110055	-17.52535220725206	23.22097289302182	0.1316872427983539	-0.6380753138075314	1.093681917211329
11053.74145507812	-1.590527233545782	-6.52747082932569	6.6981252266023	72.24220594557946	-13.50437561267739	21.37439020613738	0.1255144032921811	-0.5878661087866108	1.111111111111111
11073.27270507812	-1.68130506272287	-6.514344656125334	6.819085878182667	70.82788187784301	-12.05426802127665	19.87945731978724	0.168724279835391	-0.5711297071129706	1.132897603485839
11092.80395507812	-1.544834692212053	-5.998620736356796	7.149267080906506	69.0373412793741	-10.98858125415609	17.62596324406221	0.1440329218106996	-0.5606694560669455	1.14161220043573
11112.33520507812	-1.408572465160498	-5.503711162514463	7.41779942429338	68.7440657458902	-6.5197675798621	16.161217418541	0.1502057613168724	-0.5313807531380753	1.143790849673203
11131.86645507812	-1.529827144637203	-5.507966988972774	7.759808429610041	69.79719787639259	-5.368770630872401	14.66329342576675	0.1378600823045268	-0.4979079497907949	1.178649237472767
11151.39770507812	-1.469345303239306	-5.52038890978912	7.648681040872091	69.8047101731418	-3.876007948537089	13.54614558089199	0.1440329218106996	-0.4937238493723849	1.200435729847495
11170.92895507812	-1.760096455699833	-5.302574862912525	7.636462211489296	69.15039063774994	-2.40310022116601	14.69295012986381	0.1419753086419753	-0.4414225941422594	1.200435729847495
11190.46020507812	-1.959744428527533	-5.065351943662316	7.72713495853161	68.46591342945543	-2.796768865773053	16.19844740568189	0.1378600823045268	-0.4351464435146443	1.196078431372549
11209.99145507812	-1.807348052167743	-4.977229459198533	7.753267066720418	65.93811229834608	-5.111408869855588	15.79794251507503	0.1296296296296297	-0.3953974895397489	1.226579520697168
11229.52270507812	-1.904718774896699	-4.613291631083987	7.588672069080673	64.14009885254825	-7.031020915020567	16.15610488518942	0.1419753086419753	-0.3744769874476987	1.241830065359477
11249.05395507812	-1.610459495782978	-4.48029301264125	7.335638330167685	62.00358815744517	-7.841384892590078	16.14800124541372	0.1296296296296297	-0.3640167364016736	1.241830065359477
11268.58520507812	-1.749077987625791	-4.200728055508344	7.742169787045296	60.56667788768573	-9.003895185757489	16.13637614248205	0.1234567901234568	-0.3305439330543933	1.263616557734205
11288.11645507812	-1.30186458851387	-3.923832588760733	8.043314977202078	58.45278298167085	-8.321043376221516	15.76584617001137	0.1378600823045268	-0.3263598326359832	1.26797385620915
11307.64770507812	-1.38971931561501	-3.618396207965669	8.108213299475871	57.44485284227965	-5.366206653537581	15.41803604667217	0.1378600823045268	-0.2573221757322176	1.281045751633987
11327.17895507812	-1.489974745024515	-3.542929047906047	8.38371137591203	56.4067354429206	-3.158544205369098	14.30803719945574	0.117283950617284	-0.2510460251046025	1.30718954248366
11346.71020507812	-1.620036115719317	-3.417752986073051	8.519982696609862	56.45953849197667	-0.9181541437481625	14.70779959063799	0.1337448559670782	-0.2384937238493724	1.272331154684096
11366.24145507812	-1.729880289926864	-3.291059295716698	8.848451262617928	55.45916009875497	2.036909131320858	14.73735022338868	0.1275720164609054	-0.205020920502092	1.263616557734205
11385.77270507812	-1.765526372933202	-2.815263555946502	8.881985598877385	53.26983649224075	-0.6407108753820313	13.95585704218958	0.1419753086419753	-0.2071129707112971	1.296296296296297
11405.30395507812	-1.662225582425563	-2.586194606192626	8.763158922957023	52.13369432800429	-4.033004095533006	13.54457561942203	0.1255144032921811	-0.1589958158995816	1.296296296296297
11424.83520507812	-1.46277362819542	-2.843019385198581	8.732110183347007	52.20160086939935	-1.7921609291419	14.69905952278405	0.1358024691358025	-0.1359832635983264	1.298474945533769
11444.36645507812	-1.530533417831495	-2.548291278098951	8.776472021108658	51.9083746476908	0.8109825827143061	15.10244944846865	0.1440329218106996	-0.1108786610878661	1.32244008714597
11463.89770507812	-1.89054076994347	-2.185390125660148	8.99303720722968	51.20124220088779	0.4166342809520072	15.47586445601707	0.1481481481481482	-0.08577405857740585	1.300653594771242
11483.42895507812	-1.972964569406098	-2.346961991114882	8.832619224447166	48.65834743979453	-2.271592860388254	14.69426520347159	0.1502057613168724	-0.06276150627615062	1.324618736383442
11502.96020507812	-1.516286705328607	-2.1337210379112	8.847848050748125	48.96666729148701	-4.501149234986733	14.6719696397256	0.1522633744855967	-0.06903765690376569	1.309368191721133
11522.49145507812	-1.582465210917375	-1.680864526080937	8.546596768051428	46.84524036401277	-4.564792042810961	14.67133321164736	0.1255144032921811	-0.03138075313807531	1.324618736383442
11542.02270507812	-1.359509212272894	-1.607486883855071	8.249464907118861	46.19843312537012	-1.599121633104568	14.70098991574443	0.1296296296296297	-0.004184100418410041	1.326797385620915
11561.55395507812	-1.196517727593581	-1.469954577539961	8.18726436657434	44.18259257129787	3.56428374728819	14.75262396954835	0.1460905349794239	0.0104602510460251	1.331154684095861
11581.08520507812	-1.465824041319266	-1.127858677381084	8.524908421677351	41.80563897883215	8.343721408170936	14.80041834615718	0.1337448559670782	0.05020920502092049	1.344226579520697
11600.61645507812	-1.910103223898677	-1.111332490877734	8.278867696752481	38.23219828925947	7.117115202409128	14.03343530296749	0.1213991769547325	0.05648535564853556	1.326797385620915
11620.14770507812	-1.946270675958312	-0.6876736564372544	8.148173812438758	32.32612833834339	-3.507828090148206	12.04039341721173	0.1481481481481482	0.0606694560669456	1.326797385620915
11639.67895507812	-1.693681515307825	-0.681282843913796	8.282332375984566	27.90221996007331	-10.73009758030228	10.08137826948	0.139917695473251	0.07949790794979079	1.34640522875817
11659.21020507812	-1.589059114874385	-0.3200529015799413	8.250935046600544	24.24582841089701	-16.4368042521507	9.646952712195475	0.1419753086419753	0.07531380753138074	1.326797385620915
11678.74145507812	-1.386856837847586	-0.3018454009202226	8.455887646423999	20.98069771066174	-19.51983280002343	8.484046955018634	0.139917695473251	0.1255230125523012	1.315904139433551
11698.27270507812	-1.205682102231964	-0.3661900211761721	8.444381152666347	18.13701511933536	-19.23200894940501	7.354849721826705	0.1460905349794239	0.1171548117154812	1.344226579520697
11717.80395507812	-1.135170979394091	-0.3857848080959239	8.646126726568941	17.14416874757302	-15.53045105697579	7.01450681018496	0.1646090534979424	0.1422594142259414	1.32244008714597
11737.33520507812	-1.084786116580687	-0.3978035772605938	8.55512054582975	16.50492311745493	-12.93768812737187	7.795151420613075	0.1851851851851852	0.1443514644351464	1.318082788671024
11756.86645507812	-1.11286931709879	-0.1758205987679059	8.475029771840113	15.57998328708765	-6.99528706855155	8.609292412333353	0.1790123456790124	0.1192468619246862	1.324618736383442
11776.39770507812	-1.295353537778508	-0.2424244849214766	8.520379785830688	13.12760099412259	-5.576321223907666	8.246123580213753	0.168724279835391	0.1548117154811715	1.305010893246187
11795.92895507812	-1.2645260768946	-0.1899814268337194	8.775835465869168	10.22359319463586	-8.648516084757938	7.460684650473176	0.1810699588477366	0.1422594142259414	1.324618736383442
11815.46020507812	-1.009446267568963	0.06547425320476011	8.568936825742126	9.508899139308284	-8.669956906417767	7.08311175169054	0.205761316872428	0.1548117154811715	1.305010893246187
11834.99145507812	-0.7168693130167536	0.03024041549637756	8.661009994311319	6.635029288014047	-9.129307330314804	5.191725794621381	0.1893004115226338	0.1443514644351464	1.320261437908497
11854.52270507812	-0.694254425127418	0.2715271842279072	8.592492400818708	4.536198424917879	-6.953466286058434	4.081408733365831	0.1769547325102881	0.1485355648535565	1.311546840958606
11874.05395507812	-0.3914743994508004	0.2464994488593592	8.715480935519169	3.889371461565077	-3.241527811376928	3.363811136980571	0.2139917695473251	0.1548117154811715	1.32244008714597
11893.58520507812	-1.111112222556767	-0.0001111445656253676	8.877772209435042	1.790570185534126	-2.18508886458323	3.374375526448508	0.2037037037037037	0.1631799163179916	1.318082788671024
11913.11645507812	-0.9287078238832718	0.05851054096576001	9.044143499314508	0.3309948149111173	-2.975144782418338	1.857041005006006	0.2016460905349794	0.1652719665271966	1.313725490196079
11932.64770507812	-0.8991221509189419	-0.01322519290427631	9.000448528946608	-0.4138766380292415	-4.116893911081176	1.090906532587302	0.2139917695473251	0.1694560669456067	1.318082788671024
11952.17895507812	-0.9593928176421508	0.02031419538089045	9.203542993713837	-1.813097213426687	-2.666333214910264	0.3506951584169351	0.205761316872428	0.1715481171548117	1.311546840958606
11971.71020507812	-0.9891977485223052	0.07012413766846853	9.074422310206282	-1.798013445797832	-1.91961204516498	0.358162370114388	0.2119341563786008	0.1548117154811715	1.318082788671024
11991.24145507812	-0.9492766413599586	0.02183081349910566	9.375437158099741	-3.257598678775912	-2.336533930512531	-1.532799301569276	0.1851851851851852	0.1757322175732217	1.309368191721133
12010.77270507812	-1.040567756349207	-0.01637159451661617	9.413018166953103	-3.581012160452314	-0.4805646931717784	-1.891598099761907	0.2283950617283951	0.1799163179916318	1.318082788671024
12030.30395507812	-1.212231548362724	-0.01103362415117255	9.603487619470432	-3.565938255178531	0.639290509061062	-2.257758038305616	0.2304526748971193	0.1757322175732217	1.318082788671024
12049.83520507812	-1.291684756707729	0.1244536221564307	9.861992702227614	-3.23497302733263	-1.216452175894606	-1.521598484023097	0.2078189300411523	0.1736401673640167	1.311546840958606
12069.36645507812	-1.080828359639282	-0.00202788312009188	9.756767089924372	-2.151653636862375	0.6817190476105466	-2.257333752920121	0.205761316872428	0.1652719665271966	1.309368191721133
12088.89770507812	-1.255066663954739	-0.254141142948674	9.449489750960495	-1.331343621067599	4.810805960024689	-0.7066089215318286	0.2119341563786008	0.1694560669456067	1.311546840958606
12108.42895507812	-1.29149783175645	0.1431461172843329	9.711414044718371	-1.000407980286914	4.074465372531692	-1.091330817972796	0.2098765432098766	0.1673640167364017	1.30718954248366
12127.96020507812	-1.169705616744176	0.2011554972996367	9.695330415667238	-1.015442436140408	1.462074040348624	0.7693377215355618	0.1851851851851852	0.1610878661087866	1.324618736383442
12147.49145507812	-1.563566593140495	0.2089972516070772	9.691783893618647	-2.136530419813232	-0.06409591259439697	-0.7553579402580195	0.2098765432098766	0.1569037656903766	1.309368191721133
12167.02270507812	-1.313713609614676	-0.05822964833627046	9.73142612896179	-2.234574909400787	-4.91778351593874	-0.803894816291463	0.205761316872428	0.1527196652719665	1.32244008714597
12186.55395507812	-1.000347569264813	-0.03475692648133551	9.675127364851974	-1.489703456460429	-3.776034387275903	-0.03776034387275903	0.2078189300411523	0.1715481171548117	1.320261437908497
12206.08520507812	-1.393606344196472	0.03330497429221146	9.634193831737294	-0.4440836227072394	-4.117800120621515	-0.4185364917722529	0.1975308641975309	0.1485355648535565	1.32244008714597
12225.61645507812	-1.051957043110381	-0.145199260532976	9.638786123107906	-0.4516255065216667	-4.491160705494157	-0.4222700976209793	0.1954732510288066	0.1841004184100418	1.320261437908497
12245.14770507812	-0.9498667179629151	-0.03717684679654232	9.534097035935091	0.2253295426685574	-5.217120710734869	-1.184246678805462	0.205761316872428	0.1569037656903766	1.315904139433551
12264.67895507812	-1.264015822297865	-0.1389559671602567	9.838997902004868	-0.1810742480317615	-6.348715809530505	-2.70499659205757	0.1934156378600823	0.1736401673640167	1.32244008714597
12284.21020507812	-0.8676621764161114	0.1024692270757337	9.521699364842153	0.5185459020220331	-7.447130190103518	-1.961263754731224	0.2078189300411523	0.1757322175732217	1.311546840958606
12303.74145507812	-0.7673713828266349	0.03053848501328195	9.599913816483005	0.2026644418049868	-4.844666335402567	-2.68995609731629	0.2242798353909465	0.1589958158995816	1.305010893246187
12323.27270507812	-0.8898830063000479	-0.09941174111589407	9.491181087931711	0.007492572039066821	2.239030747310426	-1.864402145357084	0.2098765432098766	0.1589958158995816	1.315904139433551
12342.80395507812	-1.112437874103135	-0.1326762992024236	9.760019584076627	0.759905908793853	3.754140460845905	-1.094534067089654	0.2037037037037037	0.1610878661087866	1.305010893246187
12362.33520507812	-1.291810046945343	0.111924598395026	9.618940755712925	-0.01511335469407105	0.3726809277173868	-1.128348662420939	0.2242798353909465	0.1736401673640167	1.309368191721133
12381.86645507812	-1.405413938686454	-0.1373534646049673	9.716451924756626	0.6996004253436504	-0.3521463155978994	-0.003521463155978994	0.2139917695473251	0.1589958158995816	1.32244008714597
12401.39770507812	-1.38391959009965	-0.008120626126645953	9.551411338449238	-0.03015767290263735	-1.866576371978124	0.3586927268462565	0.2098765432098766	0.1736401673640167	1.313725490196079
12420.92895507812	-1.505214685782037	-0.0164180731531504	9.489177454535028	-0.3610834513282499	-1.503369816972683	1.117041773528386	0.2325102880658436	0.1589958158995816	1.309368191721133
12440.46020507812	-1.151223285885819	0.02918656293322068	9.707118812459521	-0.3308863290053242	-1.129329574944786	2.252857647646779	0.2283950617283951	0.1673640167364017	1.32244008714597
12459.99145507812	-1.272314279729512	0.04129929977610131	9.666109498959189	-1.090841549574537	-3.017799873352908	1.479255963530622	0.2304526748971193	0.1443514644351464	1.318082788671024
12479.52270507812	-0.9807709696376186	-0.09729898396387011	9.520680876458966	-1.098383433388965	-3.39116045822555	1.475522357681896	0.2283950617283951	0.1527196652719665	1.296296296296297
12499.05395507812	-1.07196508573323	-0.1258015026159238	9.518343809365408	-1.068206035776183	-2.270852151222539	1.864083931317963	0.2222222222222222	0.1757322175732217	1.296296296296297
12518.58520507812	-1.099331909005621	0.1678192004480218	9.532751176285881	-0.6844772082945072	-0.3936686446070442	1.505497275818081	0.2283950617283951	0.1757322175732217	1.313725490196079
12538.11645507812	-1.061258832848081	-0.06527722420206059	9.531578095915963	-0.6693934406656525	0.3530525251382394	1.512964487515533	0.2242798353909465	0.1694560669456067	1.302832244008715
12557.64770507812	-0.9787582425946575	0.1039737203322443	9.449956558136122	-0.6995708382784341	-0.7672557818647709	1.124402913879466	0.2181069958847737	0.1715481171548117	1.333333333333333
12577.17895507812	-1.048533790489119	0.1971260015931462	9.534724497528304	-0.661841694496153	0.3532790775233244	1.890325243605422	0.2304526748971193	0.1652719665271966	1.305010893246187
12596.71020507812	-1.201014030475699	0.1006171544503583	9.679889404286449	-1.068206035776183	-2.270852151222539	1.864083931317963	0.2283950617283951	0.1589958158995816	1.311546840958606
12616.24145507812	-1.071251739702944	-0.05446689958728085	9.582523733583203	-1.098363708678821	-4.137428523200663	2.22277665816422	0.2283950617283951	0.1652719665271966	1.30718954248366
12635.77270507812	-0.7470804267640117	0.03943207107359519	9.519753324538566	-1.098373571033893	-3.764294490713106	1.849149507923058	0.2386831275720165	0.1631799163179916	1.311546840958606
12655.30395507812	-0.7903874015573638	-0.2508613678575838	9.696724774763267	-0.01503445585349419	-2.612391332183067	1.860668539508358	0.2242798353909465	0.1652719665271966	1.305010893246187
12674.83520507812	-0.7886808272724434	-0.080203939365547	9.594163600819606	-0.7523640249794257	-3.380779875973263	1.098267672938381	0.2304526748971193	0.1631799163179916	1.315904139433551
12694.36645507812	-0.8169600463881043	0.1221771793713949	9.573696834262266	-0.3837386898367483	-1.504049474127938	-0.01504049474127938	0.2263374485596708	0.1652719665271966	1.305010893246187
12713.89770507812	-0.7258689916169819	0.1403735655745511	9.555315543918114	0.3762165307324652	0.3844208242801829	0.7585611893748774	0.2263374485596708	0.1652719665271966	1.311546840958606
12733.42895507812	-0.8494597277821029	-0.09748792972543323	9.764408784013687	-0.007551746169499472	-0.0002265523850849842	-0.3773607560898886	0.2386831275720165	0.1631799163179916	1.315904139433551
12752.96020507812	-0.9194413983255425	-0.02494791336232608	9.807740008530448	1.083358839890543	0.4056350935549253	0.7587733320676248	0.2366255144032922	0.1548117154811715	1.326797385620915
12772.49145507812	-0.7294104616398628	-0.2137734367135417	9.487067728598431	1.406742734501728	-0.3309320463231571	-0.003309320463231571	0.220164609053498	0.1610878661087866	1.315904139433551
12792.02270507812	-0.908966528217923	0.01243808729862033	9.526885774436289	1.798033170507976	1.173343980189866	0.3890919303679364	0.2345679012345679	0.1778242677824268	1.302832244008715
12811.55395507812	-0.9799495102571329	-0.01515304591530537	9.656109519268332	1.436929994469582	0.4162422281922964	0.7588794034139985	0.2345679012345679	0.1652719665271966	1.311546840958606
12831.08520507812	-0.8876429381001258	0.1245950788763176	9.674121001330493	0.3611327631036104	-0.3623003454651006	0.7510939776774245	0.2325102880658436	0.1715481171548117	1.315904139433551
12850.61645507812	-1.29386015897856	-0.0930866049266688	9.315740401497216	-0.04524144053149207	-2.613297541723408	0.3512255151488037	0.2530864197530864	0.1694560669456067	1.309368191721133
12870.14770507812	-0.970066737562754	-0.03697678657841668	9.513703018547979	-0.775019263487924	-3.381459533128518	-0.03381459533128518	0.2469135802469136	0.1757322175732217	1.309368191721133
12889.67895507812	-0.8794778541472298	-0.06899753593508416	9.523108880015311	-0.7599354958590693	-2.634738363383235	-0.02634738363383235	0.2325102880658436	0.1757322175732217	1.311546840958606
12909.21020507812	-0.8579592558370172	0.06266027488415429	9.600614027246445	0.03018725996785367	0.7471742745154536	0.76218872387723	0.2510288065843622	0.1652719665271966	1.313725490196079
12928.74145507812	-0.6776090108173065	-0.08413340496297467	9.423360673987114	0.05281291141113576	1.867256029133379	0.7733895414234093	0.2448559670781893	0.1736401673640167	1.315904139433551
12948.27270507812	-1.152044745266305	-0.05295937511534408	9.571690169650157	-0.3158518731518299	1.483061757238281	0.3921891081384206	0.2283950617283951	0.1652719665271966	1.311546840958606
12967.80395507812	-0.9698757709909068	-0.01788012939369498	9.403548649961822	-1.105954904268609	-2.645118945635521	0.3509073011096825	0.2283950617283951	0.1631799163179916	1.298474945533769
12987.33520507812	-0.7594983059597908	-0.1922548384033291	9.558549850777814	-1.489703456460429	-3.776034387275903	-0.03776034387275903	0.2345679012345679	0.1589958158995816	1.315904139433551
13006.86645507812	-0.6365168440953253	-0.01532077316888546	9.316101116132927	-1.098413020454181	-2.271758360762879	0.354640906958409	0.2366255144032922	0.1631799163179916	1.318082788671024
13026.39770507812	-0.7859638478454744	0.1914940033313664	9.49666455663761	-2.136510695103088	-0.8103639775695106	-0.008103639775695105	0.2448559670781893	0.1736401673640167	1.305010893246187
13045.92895507812	-0.9793564024387503	0.04415773592295727	9.527767858125298	-2.512746950545697	-0.4485167368745799	-1.513919129632897	0.2427983539094651	0.1589958158995816	1.328976034858388
13065.46020507812	-0.7146706714276554	0.2501045744061893	9.439701956349468	-2.542924348158479	-1.56882504387759	-1.902480703268965	0.2510288065843622	0.1757322175732217	1.296296296296297
13084.99145507812	-0.9201820252946643	-0.09901061027450071	9.470696134081814	-3.227450868228347	-0.09682352604685042	-2.265119178656695	0.2325102880658436	0.1652719665271966	1.333333333333333
13104.52270507812	-0.8689676198596384	-0.02807511727696702	9.595967173998163	-2.497673045271914	0.6713384653582606	-1.880079068176606	0.2407407407407408	0.1673640167364017	1.300653594771242
13124.05395507812	-0.9093484613616174	-0.02575522707082306	9.747194511608601	-2.490121299102415	0.6715650177433455	-1.502718312086718	0.2633744855967078	0.1757322175732217	1.300653594771242
13143.58520507812	-0.9396363658996713	-0.02424265057317606	9.837876352297194	-2.136560006878448	1.055306184868273	-1.876239390981506	0.257201646090535	0.1736401673640167	1.30718954248366
13163.11645507812	-0.8482623976887751	0.02224507960734566	9.618892256266108	-1.421846226840727	0.3304789415529871	-0.7514121917165456	0.2736625514403292	0.1882845188284519	1.298474945533769
13182.64770507812	-1.000455682615013	-0.04556826150125735	9.603878646260405	-2.144062441272587	-0.8105905299545956	-0.3854643958655837	0.2366255144032922	0.1610878661087866	1.315904139433551
13202.17895507812	-0.9702435584626126	-0.05465887656427011	9.76534239836494	-1.767855772895194	-0.05303567318685583	-0.0005303567318685583	0.2489711934156379	0.1694560669456067	1.30718954248366
13221.71020507812	-0.8084888096771674	-0.0408001596359292	9.454521568567898	-1.083348977535471	-0.7787691260424821	-0.3851461818264626	0.2345679012345679	0.1694560669456067	1.302832244008715
13241.24145507812	-0.9697444183224405	-0.004744862547061007	9.707237029861142	-1.075807093721043	-0.4054085411698403	-0.3814125759777361	0.2407407407407408	0.1569037656903766	1.298474945533769
13260.77270507812	-1.112104440406259	-0.09933292951481429	10.06472038992828	0.03773900613735315	0.7474008269005386	1.139549479967119	0.2489711934156379	0.1715481171548117	1.311546840958606
13280.30395507812	-1.039826118974943	0.05779214290976333	9.760168113632508	-0.3611031760383941	-0.7571017519975698	0.3697874730460621	0.2407407407407408	0.1548117154811715	1.298474945533769
13299.83520507812	-1.019837274049792	0.03647461522281845	9.688595054990342	-0.7222162144318603	-1.141069471507583	0.3659477958509619	0.2345679012345679	0.1548117154811715	1.309368191721133
13319.36645507812	-0.7674582776688511	0.02184900079166254	9.740892614737644	-0.01507390527378262	-1.11985520223284	0.3661599385437094	0.2469135802469136	0.1548117154811715	1.320261437908497
13338.89770507812	-0.6876150529390156	-0.07463660703285832	9.342927372654321	1.105994353688897	1.152582815685294	1.143601299854966	0.2386831275720165	0.1673640167364017	1.32244008714597
13358.42895507812	-0.8595849977105736	-0.09991391247149231	9.501559969550836	0.7448813152954309	0.7686150961752809	1.139761622659866	0.2592592592592593	0.1464435146443515	1.296296296296297
13377.96020507812	-0.9207801851387573	-0.1588265946837877	9.54850743407099	1.128620005132179	2.272664570303219	1.154802117401146	0.2386831275720165	0.1694560669456067	1.30718954248366
13397.49145507812	-1.000445578563592	-0.04455785635920859	9.704939368568123	1.083368702245615	0.03250106106736846	1.132400482308787	0.2489711934156379	0.1527196652719665	1.300653594771242
13417.02270507812	-0.8293860088250201	-0.1103180542191685	9.531644782655338	0.6845265200698678	-1.47200151783074	0.3626384753877304	0.2345679012345679	0.1610878661087866	1.313725490196079
13436.55395507812	-0.9099779437651138	-0.08870346742046124	9.511717572443853	0.6619008686265857	-2.592083272448666	0.3514376578415511	0.2469135802469136	0.1715481171548117	1.315904139433551
13456.08520507812	-0.9198849661829021	-0.06930469909826698	9.411578339625683	0.3611524878137546	-1.108568410440214	1.498348278159749	0.2366255144032922	0.1736401673640167	1.311546840958606
13475.61645507812	-0.889552603818598	-0.06637149297089941	9.765563677091048	0.3535908792891831	-0.7356609303377424	0.7473603718286981	0.2345679012345679	0.1589958158995816	1.320261437908497
13495.14770507812	-0.748393953448675	-0.09192059739274451	9.513172555848403	0.7147039176826494	-0.3516932108277295	0.7512000490237982	0.2283950617283951	0.1841004184100418	1.315904139433551
13514.67895507812	-0.6472907941249912	-0.08261476603447536	9.635861000221674	0.707162033868222	-0.7250537957003712	0.7474664431750718	0.2366255144032922	0.1652719665271966	1.302832244008715
13534.21020507812	-0.868274481932193	0.0412386754675784	9.458025653600522	1.452043349163653	0.04356130047490959	1.887228065834938	0.2366255144032922	0.1673640167364017	1.309368191721133
13553.74145507812	-0.6176192367235872	-0.1457620561970971	9.441081159368366	0.3837781392570367	0.0115133441777111	1.509549095705928	0.2592592592592593	0.1569037656903766	1.315904139433551
13573.27270507812	-0.9192696294513943	-0.007771025947497064	9.505570267559628	1.113565824568541	0.4065413030952652	2.268216356427179	0.2530864197530864	0.1652719665271966	1.287581699346405
13592.80395507812	-0.9709841854317343	-0.1287215734764448	9.428298523916306	1.060752913157405	-1.460714726038114	1.49482681500377	0.2366255144032922	0.1757322175732217	1.294117647058824
13612.33520507812	-0.5258138255170363	-0.05613002645109309	9.496985865472782	0.03021684703307	-0.3722278229472168	1.883070174600717	0.2407407407407408	0.1715481171548117	1.313725490196079
13631.86645507812	-0.8389737432179208	-0.05899048340823317	9.594721344458017	0.4064333777655352	0.01219300133296606	2.641631363975594	0.2489711934156379	0.1799163179916318	1.305010893246187
13651.39770507812	-0.8391940115388874	-0.08101731550489627	9.411799618351791	-0.3610735889731778	-1.87650384946024	1.490668923769549	0.2633744855967078	0.1778242677824268	1.298474945533769
13670.92895507812	-0.3965415812381749	-0.2602187298780974	9.548680213350281	-0.3686549222078936	-0.7573283043826547	-0.007573283043826548	0.2530864197530864	0.1610878661087866	1.285403050108933
13690.46020507812	-0.8791676597686208	-0.037978098074187	9.595370024559212	-0.6845166577147956	1.098867485343183	0.01098867485343183	0.2613168724279836	0.1736401673640167	1.320261437908497
13709.99145507812	-0.8599830973365408	-0.1397238750682137	9.560171551030802	-0.2856744755390484	2.603370064241291	0.7807506817744885	0.2510288065843622	0.1673640167364017	1.309368191721133
13729.52270507812	-0.8067691001254004	0.1311707955407709	9.48333933362427	0.04526116524163629	1.867029476748294	0.3960287853335207	0.257201646090535	0.1715481171548117	1.309368191721133
13749.05395507812	-1.010670878601126	-0.05698685001155046	9.451690413359877	-0.3158222860866136	0.3636596597756105	1.513070558861907	0.2613168724279836	0.1799163179916318	1.311546840958606
13768.58520507812	-0.7581039468637636	-0.05281892880059928	9.363515387828707	-0.7071225844479335	-0.7674823342498559	0.7470421577895769	0.2407407407407408	0.1841004184100418	1.289760348583878
13788.11645507812	-0.7370844886937231	0.02892486800143007	9.499125903563641	-0.3309159160705404	-0.009927477482116214	1.131976196923292	0.2469135802469136	0.1589958158995816	1.296296296296297
13807.64770507812	-0.8798607976960663	-0.1072918908187324	9.733311544956852	-1.38408749599323	0.3316117034784121	1.135391588732897	0.2530864197530864	0.1820083682008368	1.315904139433551
13827.17895507812	-0.9690452179641427	0.06517517328271367	9.629931942848133	-1.414274755961084	-0.4155625710370415	0.3732028648556673	0.2386831275720165	0.1715481171548117	1.298474945533769
13846.71020507812	-1.059835172002935	0.07708886031261068	9.629619727659239	-0.6920289544640067	-0.3938951969921292	1.128136519728192	0.2489711934156379	0.1631799163179916	1.294117647058824
13866.24145507812	-0.3951270140393067	-0.11876200999127	9.55576719501661	-1.053151855212545	-0.4047288840145853	0.7506696922919297	0.2510288065843622	0.1820083682008368	1.305010893246187
13885.77270507812	-0.8081765944882744	-0.009578640746622315	9.546994857573344	-1.03806808758369	0.3419922857306982	0.7581369039893825	0.2386831275720165	0.1527196652719665	1.311546840958606
13905.30395507812	-0.8072682402655725	0.08125678152356185	9.54144470212807	-0.6618712815613693	1.472681174985995	0.7694437928819354	0.2448559670781893	0.1715481171548117	1.305010893246187
13924.83520507812	-0.6272968971741303	-0.1034270911503959	9.614818302733367	-0.6996004253436504	0.3521463155978994	0.003521463155978994	0.2469135802469136	0.1778242677824268	1.298474945533769
13944.36645507812	-0.8298639304572091	-0.1581102174380751	9.801977668005344	0.3988520445308194	1.131368546410551	1.143389157162219	0.2427983539094651	0.1799163179916318	1.318082788671024
13963.89770507812	-1.089422865777549	0.1486225131542372	9.653102553565594	0.03774886849242525	0.3742667944129817	1.513176630208281	0.2366255144032922	0.1736401673640167	1.294117647058824
13983.42895507812	-0.8686614671015976	0.002540158527110609	9.627804029618977	-0.7146447435522166	-1.887110984097611	1.490562852423175	0.2510288065843622	0.1715481171548117	1.318082788671024
14002.96020507812	-0.8101741654541048	-0.2093357373296635	9.769310259357765	-1.429338798879794	-1.908551805757439	1.112989953640539	0.2510288065843622	0.1820083682008368	1.32244008714597
14022.49145507812	-0.8283594372006985	-0.007660891787013753	9.698404068109351	-0.7146348811971446	-2.260245016585168	1.864190002664337	0.2551440329218107	0.1631799163179916	1.311546840958606
14042.02270507812	-0.888744279704959	0.01446091839300197	9.769613380900379	0.03774886849242525	0.3742667944129817	1.513176630208281	0.2427983539094651	0.1757322175732217	1.300653594771242
14061.55395507812	-0.8099993653645303	-0.1918557283722199	9.49745873507926	-0.3007385184577589	1.110380829520894	1.52053777055936	0.2489711934156379	0.1694560669456067	1.305010893246187
14081.08520507812	-0.9694594840723827	0.02374856245871422	9.526846368635749	0.7826301837878562	1.142881890588263	2.652938252868147	0.2530864197530864	0.1924686192468619	1.324618736383442
14100.61645507812	-0.9991391247149231	0.08608752850769701	9.640777631642884	0.4290688915638894	0.7591407234633346	3.026459331762935	0.2366255144032922	0.1652719665271966	1.291938997821351
14120.14770507812	-0.7579776462210075	-0.04018886452498969	9.616673406574169	-0.3233543075459689	-0.382834957584588	1.882964103254343	0.2489711934156379	0.1820083682008368	1.309368191721133
14139.67895507812	-1.008947127428791	0.1153882672219692	9.520932467339337	-1.045580384332901	-1.150770396604614	1.875284748864143	0.2489711934156379	0.1820083682008368	1.30718954248366
14159.21020507812	-0.84682964319735	0.1655205287498608	9.807888538086329	-1.090861274284682	-2.271531808377794	0.7320016630482976	0.2592592592592593	0.1861924686192468	1.309368191721133
14178.74145507812	-0.7773440815786563	0.04336961991215924	9.852980898765681	-0.3535317051587504	-1.503143264587598	1.494402529618275	0.2407407407407408	0.1569037656903766	1.296296296296297
14198.27270507812	-0.8379724317221505	0.04114066616879965	9.508828824142736	0.3687042339832541	-1.108341858055129	1.875709034249638	0.2551440329218107	0.1673640167364017	1.315904139433551
14217.80395507812	-0.5156885555885656	-0.053704043705034	9.759834679935631	0.03020698467799789	0.0009062095403399367	1.509443024359554	0.271604938271605	0.1589958158995816	1.30718954248366
14237.33520507812	-0.987638693388124	0.2260296510865933	9.516576610771965	-0.3309159160705404	-0.009927477482116214	1.131976196923292	0.2592592592592593	0.1610878661087866	1.331154684095861
14256.86645507812	-0.7566479530540714	0.09278045216862804	9.78495133095668	0.02265523850849842	0.0006796571552549525	1.132082268269666	0.2674897119341564	0.1589958158995816	1.300653594771242
14276.39770507812	-0.9393463796239033	0.004755977003623543	9.708016052225661	-0.7071225844479335	-0.7674823342498559	0.7470421577895769	0.2613168724279836	0.1548117154811715	1.296296296296297
14295.92895507812	-0.8984441690686271	0.05457299212719596	9.721016935188402	-1.083348977535471	-0.7787691260424821	-0.3851461818264626	0.2366255144032922	0.1694560669456067	1.328976034858388
