Time Stamp	Accelerometer X	Accelerometer Y	Accelerometer Z	Gyroscope X	Gyroscope Y	Gyroscope Z	Magnetometer X	Magnetometer Y	Magnetometer Z
1305.694580078125	-0.061452840739406	-10.18568811434464	1.510303086077394	52.42689096264761	-5.516745509926542	12.02030424301394	0.1296296296296297	-0.4309623430962343	0.7647058823529412
1325.225830078125	-0.07835186674017162	-9.855388694219185	-1.857189317014725	2.17415107768972	5.289105129345617	-2.588618382668808	0.1275720164609054	-0.405857740585774	0.7516339869281047
1344.757080078125	-0.2411311663396541	-9.97170249255127	-1.692915628210152	-0.3007582431679031	1.856648894496008	0.7732834700770356	0.1563786008230453	-0.4267782426778242	0.766884531590414
1364.288330078125	-0.1562025725298871	-9.559651192382645	-1.732069837869684	-1.467067942662075	-3.029086665145534	0.3470676239145824	0.1234567901234568	-0.403765690376569	0.7450980392156863
1383.819580078125	0.2446352513722793	-9.879909206206422	-1.64306425931175	-0.7222063520767882	-1.51420350399514	0.7395749460921242	0.1337448559670782	-0.4121338912133891	0.7429193899782136
1403.350830078125	0.1461672286590587	-9.625701376518375	-1.67174258845852	-1.053151855212545	-0.4047288840145853	0.7506696922919297	0.1419753086419753	-0.401673640167364	0.7429193899782136
1422.882080078125	0.1142364053600336	-9.788480676117858	-1.851918033388656	-0.3233838946111852	0.7365671398780824	0.7620826525308564	0.1255144032921811	-0.4205020920502092	0.7559912854030502
1442.413330078125	0.4188472851540436	-9.630422999747168	-1.598544798347939	-0.6845067953597235	0.7257334528556262	0.384615825094594	0.1296296296296297	-0.4163179916317991	0.7233115468409587
1461.944580078125	-0.01694146301673167	-9.774954382481251	-1.771745416582513	0	0	0	0.1193415637860082	-0.4246861924686192	0.7342047930283225
1481.475830078125	0.2171502106982687	-9.598110243304447	-1.800966333290563	-0.3233838946111852	0.7365671398780824	0.7620826525308564	0.1358024691358025	-0.4121338912133891	0.738562091503268
1501.007080078125	-0.01785587967028581	-9.866396047836664	-1.826831694521869	0.03772914378228104	1.120534859388095	0.7659223297259565	0.1378600823045268	-0.4205020920502092	0.758169934640523
1520.538330078125	0.2236137723919547	-9.961855084036863	-1.798886919508227	-0.6995905629885782	-0.02098771688965735	0.3771486133971412	0.1378600823045268	-0.4184100418410042	0.7603485838779958
1540.069580078125	0.064249642172597	-9.736651944356465	-1.819523434129431	-0.6920388168190788	-0.02076116450457237	0.7545093694870298	0.1440329218106996	-0.4205020920502092	0.7429193899782136
1559.600830078125	0.2244887832449689	-9.874353998735439	-2.137937458568969	-0.3309159160705404	-0.009927477482116214	1.131976196923292	0.1481481481481482	-0.4288702928870293	0.7429193899782136
1579.132080078125	0.1948162154384227	-9.811307749087025	-1.953263689946432	-1.060693739026972	-0.7780894688872271	0.7469360864432033	0.1378600823045268	-0.4163179916317991	0.7472766884531591
1598.663330078125	0.1021822720153918	-9.983793000481025	-2.215339544475615	-0.3082902646272583	1.110154277135809	1.143177014469471	0.1255144032921811	-0.4225941422594142	0.7472766884531591
1618.194580078125	0.2264408859794071	-9.679143725291617	-1.80492510063711	-0.3158420107967578	1.109927724750724	0.7658162583795828	0.1440329218106996	-0.4100418410041841	0.7494553376906319
1637.725830078125	-0.1065249933159174	-9.642398321490731	-1.826619509442039	-0.2932163593534757	2.23000947936865	0.7770170759257621	0.139917695473251	-0.4079497907949791	0.7472766884531591
1657.257080078125	0.03343228534010961	-9.788084597302174	-1.973918391860193	-1.053161717567617	-0.03159485152702852	0.3770425420507675	0.1522633744855967	-0.4288702928870293	0.7342047930283225
1676.788330078125	-0.0272395122244927	-9.794658293156344	-1.742530562305315	-1.075797231365971	-0.7785425736573971	-0.007785425736573971	0.1193415637860082	-0.4184100418410042	0.7320261437908497
1696.319580078125	-0.09663615819068611	-9.663615819068612	-1.908389576777762	-0.01508376762885473	-0.7467211697452836	-0.007467211697452836	0.1337448559670782	-0.4225941422594142	0.7407407407407408
1715.850830078125	0.07313514499177386	-9.85820267253979	-1.835613125611415	-1.068255347551544	-0.4051819887847553	-0.004051819887847552	0.1460905349794239	-0.4184100418410042	0.7320261437908497
1735.382080078125	-0.06876514275241292	-9.906817305544326	-1.930371951048175	-0.3309257784256125	0.3632065550054406	0.75834904668213	0.1378600823045268	-0.4205020920502092	0.7472766884531591
1754.913330078125	0.04293514570107825	-9.847899571306318	-1.875804010946689	-0.714674330617433	-0.767708886634941	0.3696814016996884	0.1378600823045268	-0.4163179916317991	0.7254901960784315
1774.444580078125	0.1851537110650104	-9.76745717632725	-1.627935463119854	0.03018725996785367	0.7471742745154536	0.76218872387723	0.1584362139917695	-0.4205020920502092	0.7516339869281047
1793.975830078125	0.1646263201991477	-9.799994242711504	-1.892393852973988	0.05281291141113576	1.867256029133379	0.7733895414234093	0.1440329218106996	-0.4184100418410042	0.7298474945533769
1813.507080078125	0.1344525914421453	-9.787064088108705	-1.669826860309196	-0.692058541529223	0.7255069004705412	0.007255069004705413	0.1460905349794239	-0.405857740585774	0.7494553376906319
1833.038330078125	-0.1079304668685072	-9.782945676749714	-1.742751841031424	-0.007532021459355256	-0.7464946173601986	0.3698935443924358	0.1378600823045268	-0.4142259414225941	0.7559912854030502
1852.569580078125	-0.1071201219445841	-9.701911184357403	-1.718489992760548	-1.053161717567617	-0.03159485152702852	0.3770425420507675	0.1213991769547325	-0.4184100418410042	0.7472766884531591
1872.100830078125	0.154335343827381	-9.818990869787163	-1.792436493081387	-0.3460095460544673	-0.383514614739843	0.7508818349846771	0.1460905349794239	-0.401673640167364	0.7494553376906319
1891.632080078125	0.2230903825283734	-10.01419407039499	-1.983327284542951	-0.6995905629885782	-0.02098771688965735	0.3771486133971412	0.1296296296296297	-0.4121338912133891	0.7494553376906319
1911.163330078125	-0.06754154212539187	-9.784457242842219	-1.813130600795688	-1.45953592120272	-2.282592047785335	-0.02282592047785335	0.139917695473251	-0.4163179916317991	0.7407407407407408
1930.694580078125	0.1752183973032448	-9.75088754240279	-2.011044718399633	0.03019712232292578	0.3740402420278968	1.135815874118392	0.1296296296296297	-0.4163179916317991	0.7407407407407408
1950.225830078125	0.1048517624006846	-9.71684396195174	-1.777722973402873	0.04528088995178051	1.12076141177318	1.143283085815845	0.1316872427983539	-0.4100418410041841	0.7320261437908497
1969.757080078125	-0.1002645230557832	-10.02645230557833	-1.835658593842808	-0.3233838946111852	0.7365671398780824	0.7620826525308564	0.1337448559670782	-0.4079497907949791	0.7429193899782136
1989.288330078125	0.06395258306083465	-9.7663578555327	-1.760405639673299	-0.7071324468030056	-0.3943483017622991	0.3734150075484148	0.1316872427983539	-0.4079497907949791	0.738562091503268
2008.819580078125	0.1740150047790648	-9.871226794820799	-1.926164624036684	0.4063840659901746	1.87786316377075	0.7734956127697831	0.1337448559670782	-0.4205020920502092	0.7603485838779958
2028.350830078125	-0.339792176435006	-9.736793401076351	-1.631651733232309	-0.6920289544640067	-0.3938951969921292	1.128136519728192	0.1316872427983539	-0.4184100418410042	0.7298474945533769
2047.882080078125	0.2640966648132806	-9.953969882308314	-1.939501971911727	-0.7297580982462877	-1.514430056380224	0.3622141900022355	0.1378600823045268	-0.4246861924686192	0.7407407407407408
2067.413330078125	0.0560845582197009	-9.543059329545063	-1.668511312814248	-0.6844870706495794	-0.02053461211948738	1.131870125576918	0.1502057613168724	-0.4225941422594142	0.7363834422657953
2086.944580078125	0.2047414251487678	-9.828887788153528	-1.671215156974371	-0.3384676622400399	-0.0101540298672012	0.7546154408334035	0.1502057613168724	-0.4205020920502092	0.7429193899782136
2106.475830078125	0.1649173168800577	-9.770894574620499	-2.01214808081475	0.0226355137983542	0.7469477221303685	0.3848279677873415	0.1255144032921811	-0.4184100418410042	0.7538126361655774
2126.007080078125	-0.1799632598503059	-9.915517904222506	-2.012727042961144	0.05282277376620787	1.494121996645822	1.147016691664571	0.139917695473251	-0.4121338912133891	0.7538126361655774
2145.538330078125	-0.119051996267038	-9.884997606501781	-1.869177774025133	-0.7297580982462877	-1.514430056380224	0.3622141900022355	0.1440329218106996	-0.4184100418410042	0.7407407407407408
2165.069580078125	0.06102139774375118	-10.05947638724105	-1.785191888212898	-0.3309060537154684	-0.383061509969673	1.505603347164454	0.139917695473251	-0.4142259414225941	0.7625272331154684
2184.600830078125	0.0128685198891331	-9.824259122197804	-1.5920943719211	-0.3384676622400399	-0.0101540298672012	0.7546154408334035	0.1316872427983539	-0.4205020920502092	0.7407407407407408
2204.132080078125	0.1861641162070591	-9.666416662122373	-1.62287333335819	-0.3233838946111852	0.7365671398780824	0.7620826525308564	0.1460905349794239	-0.4079497907949791	0.7450980392156863
2223.663330078125	0.1653568431168489	-9.726941950941377	-1.656410700833072	0.3762263930875373	0.01128679179262612	1.132188339616039	0.1234567901234568	-0.4079497907949791	0.7429193899782136
2243.194580078125	-0.05522975546952764	-9.563379587356806	-1.90296370116496	0.3988619068858915	0.7582345139229947	1.517016307403381	0.1255144032921811	-0.4267782426778242	0.7276688453159043
2262.725830078125	0.174641455967135	-9.808581676013777	-1.72100590156425	0.03019712232292578	0.3740402420278968	1.135815874118392	0.1234567901234568	-0.4184100418410042	0.7363834422657953
2282.257080078125	0.2266520606540953	-9.658026257822799	-1.712958024607832	-0.692058541529223	0.7255069004705412	0.007255069004705413	0.1296296296296297	-0.4309623430962343	0.7363834422657953
2301.788330078125	-0.1289226440997124	-9.861961379668211	-1.605498406535519	-0.7146546059072888	-1.513976951610055	1.116935702182013	0.1522633744855967	-0.4121338912133891	0.7559912854030502
2321.319580078125	0.2056477585611855	-9.738254446911753	-1.696977456881188	-0.3761672189571046	-2.250090986717967	1.109574561830934	0.139917695473251	-0.405857740585774	0.7429193899782136
2340.850830078125	0.2163459282051979	-9.67853849261153	-1.764591748176807	-0.3158420107967578	1.109927724750724	0.7658162583795828	0.1419753086419753	-0.4142259414225941	0.738562091503268
2360.382080078125	-0.1360975310134007	-9.56934906093603	-1.651545600074107	-0.6844969330046514	0.3525994203680694	0.7582429753357562	0.1337448559670782	-0.4205020920502092	0.738562091503268
2379.913330078125	0.1030491996272696	-9.897100239293243	-1.625137651281521	-0.3158420107967578	1.109927724750724	0.7658162583795828	0.1193415637860082	-0.4184100418410042	0.7320261437908497
2399.444580078125	0.05336454757730563	-9.815060393784591	-1.601330485324568	0.02265523850849842	0.0006796571552549525	1.132082268269666	0.1502057613168724	-0.4184100418410042	0.7298474945533769
2418.975830078125	0.01263915792188803	-9.84719531892231	-1.865970748104271	-0.3309159160705404	-0.009927477482116214	1.131976196923292	0.1296296296296297	-0.4142259414225941	0.7450980392156863
2438.507080078125	0.2247211764276401	-9.851114680468317	-1.833742865693483	-0.7071423091580777	-0.02121426927474233	-0.0002121426927474233	0.1419753086419753	-0.4163179916317991	0.7559912854030502
2458.038330078125	0.08215402128970115	-9.966416052848071	-1.527802292732537	-0.692058541529223	0.7255069004705412	0.007255069004705413	0.1378600823045268	-0.4225941422594142	0.7538126361655774
2477.569580078125	0.08564901267604784	-9.616916914213402	-1.924433800028354	-1.045609971398118	-0.03136829914194354	0.7544032981406561	0.1378600823045268	-0.4142259414225941	0.7472766884531591
2497.100830078125	0.1131249597037799	-9.899625241743223	-1.857486376126487	-0.3309257784256125	0.3632065550054406	0.75834904668213	0.1152263374485597	-0.4100418410041841	0.7298474945533769
2516.632080078125	0.1134109043589797	-9.871030776223241	-2.027770965121108	-0.3460292707646115	0.3627534502352706	0.003627534502352706	0.1460905349794239	-0.3933054393305439	0.7450980392156863
2536.163330078125	0.0332372771476942	-9.807585416543715	-1.904188312197123	0.03773900613735315	0.7474008269005386	1.139549479967119	0.1481481481481482	-0.4414225941422594	0.7407407407407408
2555.694580078125	-0.1477040548801149	-9.719900437506437	-1.578381153333214	-0.3082902646272583	1.110154277135809	1.143177014469471	0.1522633744855967	-0.405857740585774	0.7407407407407408
2575.225830078125	0.1658388063696062	-9.678745625665652	-1.886319297259991	0.0679164037501347	1.867709133903549	1.528111053603187	0.1275720164609054	-0.4205020920502092	0.7189542483660132
2594.757080078125	0.1340282212824848	-9.829501104074753	-1.873973156829297	0.04528088995178051	1.12076141177318	1.143283085815845	0.139917695473251	-0.4163179916317991	0.7298474945533769
2614.288330078125	0.1142323637394654	-9.788884838174678	-1.892342322311743	-0.7071324468030056	-0.3943483017622991	0.3734150075484148	0.1378600823045268	-0.4205020920502092	0.7494553376906319
2633.819580078125	-0.05646143933768509	-9.686547974172552	-2.101053629263621	-1.805575054322403	-1.546704565062508	-0.3928255362166628	0.1378600823045268	-0.405857740585774	0.7254901960784315
2653.350830078125	-0.01723549091306786	-9.804357172114869	-1.682309405434066	-1.083329252825327	-1.525037191017595	0.3621081186558618	0.139917695473251	-0.4163179916317991	0.7450980392156863
2672.882080078125	0.2446200952951485	-9.881424813919496	-1.794655342773327	-0.7146644682623609	-1.140842919122498	0.7433085519408505	0.1316872427983539	-0.4288702928870293	0.7342047930283225
2692.413330078125	0.06284719983543331	-9.876896178072833	-1.7053375490265	-1.075816956076115	-0.03227450868228347	-0.7550397262188984	0.1337448559670782	-0.4267782426778242	0.7559912854030502
2711.944580078125	-0.2276210391853201	-9.630790787218876	-1.918159184096232	-0.3158420107967578	1.109927724750724	0.7658162583795828	0.139917695473251	-0.4163179916317991	0.7559912854030502
2731.475830078125	0.2666378337455332	-9.699852989083048	-1.77525556404599	0.01511335469407105	-0.3726809277173868	1.128348662420939	0.1378600823045268	-0.4100418410041841	0.7647058823529412
2751.007080078125	0.1561540730830688	-9.637117944218385	-1.783324659510392	-0.6920388168190788	-0.02076116450457237	0.7545093694870298	0.1419753086419753	-0.4351464435146443	0.7429193899782136
2770.538330078125	0.115052812714809	-9.706839940640316	-1.767019751733151	-0.7071521715131499	0.3519197632128144	-0.3738392929339096	0.1358024691358025	-0.4414225941422594	0.7320261437908497
2790.069580078125	-0.0991449941583932	-9.914499415839321	-1.749241673258803	-0.3309356407806847	0.7363405874929974	0.3847218964409677	0.139917695473251	-0.4351464435146443	0.7342047930283225
2809.600830078125	0.2438309688792084	-9.960337455513505	-1.606689674197994	0.007571470879643689	-0.7460415125900286	1.124615056572213	0.1481481481481482	-0.4079497907949791	0.7429193899782136
2829.132080078125	0.2357588421993809	-9.757449113395253	-1.53601991775282	-0.6995807006335061	-0.3941217493772142	0.7507757636383033	0.1646090534979424	-0.4309623430962343	0.738562091503268
2848.663330078125	0.101957962073857	-10.00622399463451	-1.428584549403916	-0.007532021459355256	-0.7464946173601986	0.3698935443924358	0.1378600823045268	-0.4372384937238493	0.7472766884531591
2868.194580078125	0.175448769675632	-9.727850305164079	-1.72706226998569	-0.3611623501688268	1.481702442927771	-1.871975428400911	0.1502057613168724	-0.4121338912133891	0.7298474945533769
2887.725830078125	-0.04693635006359137	-9.744140056864188	-1.780605659273139	-0.6694131653757966	1.099320590113353	0.765710187033209	0.1419753086419753	-0.4163179916317991	0.7494553376906319
2907.257080078125	-0.09722724519878465	-9.722724519878465	-1.759835771173184	0.03773900613735315	0.7474008269005386	1.139549479967119	0.1316872427983539	-0.4288702928870293	0.7233115468409587
2926.788330078125	0.04283511559201542	-9.857902582212601	-1.866204151692084	-0.7222162144318603	-1.141069471507583	0.3659477958509619	0.1440329218106996	-0.4142259414225941	0.7298474945533769
2946.319580078125	0.2039098617168616	-9.912044131344143	-1.907704522091453	0.03018725996785367	0.7471742745154536	0.76218872387723	0.139917695473251	-0.4100418410041841	0.7276688453159043
2965.850830078125	0.0332392979579783	-9.807383335515306	-1.88397616773558	-1.068255347551544	-0.4051819887847553	-0.004051819887847552	0.139917695473251	-0.4267782426778242	0.7494553376906319
2985.382080078125	0.1429985981335938	-9.942564429064868	-2.051253791027463	-1.045609971398118	-0.03136829914194354	0.7544032981406561	0.1563786008230453	-0.4184100418410042	0.7450980392156863
3004.913330078125	-0.04886016145405221	-9.936521195910275	-1.830647994743388	-1.414274755961084	-0.4155625710370415	0.3732028648556673	0.1460905349794239	-0.4267782426778242	0.7538126361655774
3024.444580078125	0.2454425650807762	-9.799177835356728	-1.64912062773319	-0.6995905629885782	-0.02098771688965735	0.3771486133971412	0.1584362139917695	-0.4079497907949791	0.7254901960784315
3043.975830078125	0.08384543949749079	-9.797274232069107	-1.781954550137774	0.3988224574656031	2.250770643873222	0.02250770643873222	0.1481481481481482	-0.4267782426778242	0.7276688453159043
3063.507080078125	0.02194195806473103	-9.927016314739021	-1.748656648681556	0.8202804287295603	5.248489009876812	0.4298433806648059	0.1358024691358025	-0.4100418410041841	0.7429193899782136
3083.038330078125	-0.1502502758380778	-9.974522533302727	-1.79315792235281	0.3837485521918205	1.130915441640381	0.3886676449824416	0.1316872427983539	-0.4267782426778242	0.7603485838779958
3102.569580078125	0.2556244176972017	-9.791093583815195	-1.830432778448131	0.7222655262072208	-0.7246006909302013	1.502187955354849	0.1502057613168724	-0.4267782426778242	0.7276688453159043
3122.100830078125	0.2453283892997247	-9.810595413461877	-1.78100577970939	0.03020698467799789	0.0009062095403399367	1.509443024359554	0.1316872427983539	-0.4246861924686192	0.7603485838779958
3141.632080078125	0.5487944800677934	-9.767016639685314	-1.866701271021972	-0.3384676622400399	-0.0101540298672012	0.7546154408334035	0.1337448559670782	-0.4079497907949791	0.7538126361655774
3161.163330078125	0.2462589724355516	-9.717537099879186	-1.564222346077685	-0.3007779678780473	2.602916959471121	0.02602916959471122	0.1275720164609054	-0.4246861924686192	0.7472766884531591
3180.694580078125	0.06557731452924907	-9.603884708691256	-1.671457654208462	-0.2781424540796931	3.34986468160149	0.4108571373820527	0.1316872427983539	-0.3933054393305439	0.7342047930283225
3200.225830078125	-0.07762841665846472	-9.783043686048494	-1.691948670489211	-0.3158420107967578	1.109927724750724	0.7658162583795828	0.1316872427983539	-0.4142259414225941	0.7363834422657953
3219.757080078125	-0.03987664933609663	-10.04827099421573	-1.876549689941521	-0.3535514298688947	-0.7568751996124847	0.7471482291359507	0.1460905349794239	-0.399581589958159	0.7429193899782136
3239.288330078125	-0.04703941138808033	-9.754446189313086	-1.801324016710848	-0.7222162144318603	-1.141069471507583	0.3659477958509619	0.139917695473251	-0.4142259414225941	0.7559912854030502
3258.819580078125	-0.04693230844302317	-9.743735894807369	-1.740181370350051	-0.3610834513282499	-1.503369816972683	1.117041773528386	0.1440329218106996	-0.4205020920502092	0.7494553376906319
3278.350830078125	0.2867155943231842	-9.712278951519965	-1.967595276481251	-0.3384577998849678	-0.383288062354758	1.128242591074566	0.1316872427983539	-0.4225941422594142	0.7363834422657953
3297.882080078125	0.1637280700278663	-9.889819259839637	-1.785782975220996	-0.6844969330046514	0.3525994203680694	0.7582429753357562	0.1275720164609054	-0.4079497907949791	0.7538126361655774
3317.413330078125	0.275936592267808	-9.78007814695658	-1.698365753546363	-1.760323751435839	0.6934589441733428	-0.3704239011243043	0.1460905349794239	-0.4246861924686192	0.7342047930283225
3336.944580078125	-0.04070316074229252	-10.13092213483531	-2.062508693904745	-0.669442752441013	2.218722687576024	-0.3551712636902775	0.1193415637860082	-0.4225941422594142	0.7538126361655774
3356.475830078125	-0.1202483159552237	-10.00462957532035	-1.713555174046782	0.3762165307324652	0.3844208242801829	0.7585611893748774	0.139917695473251	-0.4121338912133891	0.7407407407407408
3376.007080078125	-0.01876524429812969	-9.957332510621054	-1.831387611307367	0.01511335469407105	-0.3726809277173868	1.128348662420939	0.1604938271604938	-0.4225941422594142	0.738562091503268
3395.538330078125	0.1232239590985574	-9.899826312366491	-1.857395439663703	-0.01507390527378262	-1.11985520223284	0.3661599385437094	0.1563786008230453	-0.4205020920502092	0.7342047930283225
3415.069580078125	0.0002263307518189275	-10.07837702582821	-1.776643860711165	-0.6995807006335061	-0.3941217493772142	0.7507757636383033	0.1296296296296297	-0.4100418410041841	0.7516339869281047
3434.600830078125	0.2040159542567768	-9.901434877352632	-1.856667947961428	-0.6920388168190788	-0.02076116450457237	0.7545093694870298	0.139917695473251	-0.4142259414225941	0.7516339869281047
3454.132080078125	0.08190950324532535	-9.99086785728565	-1.953269752377284	-0.3384676622400399	-0.0101540298672012	0.7546154408334035	0.1502057613168724	-0.4225941422594142	0.7450980392156863
3473.663330078125	0.5268909173984602	-9.937170886416613	-1.754215897773109	0.03018725996785367	0.7471742745154536	0.76218872387723	0.139917695473251	-0.4309623430962343	0.738562091503268
3493.194580078125	0.004483167615270385	-9.652693339483065	-1.624003976712142	-0.3083099893374026	1.856422342110923	0.395922713987147	0.1419753086419753	-0.399581589958159	0.7363834422657953
3512.725830078125	0.05448104525926951	-9.703410625588203	-1.545231781432878	-0.3309159160705404	-0.009927477482116214	1.131976196923292	0.1316872427983539	-0.401673640167364	0.738562091503268
3532.257080078125	0.1850334728531066	-9.779480997517631	-1.820457048480684	-0.6920486791741509	0.3523728679829845	0.3808822192458676	0.1316872427983539	-0.4267782426778242	0.7450980392156863
3551.788330078125	0.1348496806629705	-9.747355166026187	-1.738544514019932	-0.6995905629885782	-0.02098771688965735	0.3771486133971412	0.1234567901234568	-0.399581589958159	0.738562091503268
3571.319580078125	0.04375862589184799	-9.765551552229345	-1.720163223675781	-1.414284618316155	-0.04242853854948467	-0.0004242853854948467	0.1337448559670782	-0.4100418410041841	0.7363834422657953
3590.850830078125	-0.03896627430311068	-9.957233490917133	-1.861887700925251	-0.7071225844479335	-0.7674823342498559	0.7470421577895769	0.1481481481481482	-0.405857740585774	0.7472766884531591
3610.382080078125	0.2749989362959868	-9.873843744138705	-1.98589169279347	-0.6845067953597235	0.7257334528556262	0.384615825094594	0.1358024691358025	-0.4205020920502092	0.7450980392156863
3629.913330078125	0.06190146062247565	-9.971470099368599	-2.073712066119781	-1.053191304632833	1.087807245935642	-0.7438389086727191	0.1234567901234568	-0.4225941422594142	0.7429193899782136
3649.444580078125	0.1143374458742385	-9.778376624697371	-1.85141182041249	-1.060693739026972	-0.7780894688872271	0.7469360864432033	0.1337448559670782	-0.4079497907949791	0.7320261437908497
3668.975830078125	0.06334735038074744	-9.826881123541421	-1.753336845299526	-0.3535612922239668	-0.383741167124928	0.3735210788947885	0.1502057613168724	-0.4163179916317991	0.7276688453159043
3688.507080078125	-0.01625135630471236	-9.705943711279319	-1.940005153672468	-0.338477524595112	0.3629800026203556	0.3809882905922413	0.1378600823045268	-0.4246861924686192	0.7363834422657953
3708.038330078125	0.01234310921526775	-9.876800189584339	-1.796746881417367	-1.038077949938762	0.715126318218255	0.3845097537482203	0.1419753086419753	-0.4163179916317991	0.758169934640523
3727.569580078125	0.1639321718665602	-9.869409075970253	-1.76455840480712	-0.3460095460544673	-0.383514614739843	0.7508818349846771	0.1316872427983539	-0.4121338912133891	0.7298474945533769
3747.100830078125	-0.04662514527984034	-9.713019578489087	-1.698238442498465	-0.3233937569662573	1.109701172365639	0.3884555022896942	0.1522633744855967	-0.397489539748954	0.7494553376906319
3766.632080078125	0.07596427938951041	-9.575289232766135	-1.821439162278755	-0.3384676622400399	-0.0101540298672012	0.7546154408334035	0.1296296296296297	-0.401673640167364	0.7538126361655774
3786.163330078125	0.1423175850678529	-10.01066573563895	-1.792039403860562	-0.3384577998849678	-0.383288062354758	1.128242591074566	0.1337448559670782	-0.4121338912133891	0.7450980392156863
3805.694580078125	0.1946343425128539	-9.829495041643902	-1.752154671283329	-1.0682356228414	-1.151450053759869	0.7432024805944768	0.1481481481481482	-0.4121338912133891	0.7625272331154684
3825.225830078125	0.03163477459240486	-9.967835672072649	-1.770802708584981	-0.3233838946111852	0.7365671398780824	0.7620826525308564	0.1460905349794239	-0.4288702928870293	0.7494553376906319
3844.757080078125	0.02474684273905841	-9.646527847306285	-1.977028418887419	-0.3460095460544673	-0.383514614739843	0.7508818349846771	0.139917695473251	-0.401673640167364	0.7429193899782136
3864.288330078125	0.2167440278311651	-9.638728530014809	-1.823203329656772	-0.3384676622400399	-0.0101540298672012	0.7546154408334035	0.1522633744855967	-0.4351464435146443	0.7494553376906319
3883.819580078125	0.1124055512426412	-9.971566087857093	-1.982302733728913	0.04528088995178051	1.12076141177318	1.143283085815845	0.1584362139917695	-0.4205020920502092	0.7363834422657953
3903.350830078125	0.02194701009044128	-9.926511112167997	-1.698126287527698	-0.6996004253436504	0.3521463155978994	0.003521463155978994	0.1316872427983539	-0.3891213389121339	0.7429193899782136
3922.882080078125	0.01203493564694287	-9.907617546416827	-1.848795881499726	-0.3535612922239668	-0.383741167124928	0.3735210788947885	0.1378600823045268	-0.4184100418410042	0.7254901960784315
3942.413330078125	0.06321498730713906	-9.840117430902259	-2.067131297429618	-0.7071521715131499	0.3519197632128144	-0.3738392929339096	0.1502057613168724	-0.3933054393305439	0.7363834422657953
3961.944580078125	0.1057540541925342	-9.626614782766788	-1.843909562232778	-0.7071324468030056	-0.3943483017622991	0.3734150075484148	0.1460905349794239	-0.4330543933054393	0.7320261437908497
3981.475830078125	0.2038219564695034	-9.920834656079967	-1.776831796067586	-1.038048362873546	-0.4042757792444154	1.505391204471707	0.1502057613168724	-0.4309623430962343	0.7494553376906319
4001.007080078125	0.1556387664606239	-9.688648606462872	-1.886916446698941	-0.007512296749211039	-1.492762682335312	1.11714784487476	0.1440329218106996	-0.4100418410041841	0.7320261437908497
4020.538330078125	0.2332055484054236	-10.01277849279098	-1.821539192387818	-0.6769649115452961	1.099094037728268	0.3883494309433204	0.1522633744855967	-0.405857740585774	0.7254901960784315
4040.069580078125	0.1646293514145738	-9.799691121168889	-1.862075636281673	-1.083348977535471	-0.7787691260424821	-0.3851461818264626	0.1316872427983539	-0.4121338912133891	0.7254901960784315
4059.600830078125	0.3466164527644034	-9.782799168004118	-1.829108137306905	-0.3535514298688947	-0.7568751996124847	0.7471482291359507	0.154320987654321	-0.4142259414225941	0.738562091503268
4079.132080078125	0.2754212856453631	-9.831608809201066	-1.801957540734913	-0.3460194084095394	-0.01038058225228618	0.3772546847435149	0.1419753086419753	-0.403765690376569	0.7320261437908497
4098.663330078125	0.2651343508941646	-9.850201274219906	-1.661575891919225	0.03017739761278156	1.12030830700301	0.3885615736360679	0.1481481481481482	-0.4184100418410042	0.7145969498910676
4118.194580078125	-0.0792753770400042	-9.947739724202442	-2.003230245031027	-0.3083099893374026	1.856422342110923	0.395922713987147	0.1440329218106996	-0.4184100418410042	0.7342047930283225
4137.725830078125	-0.09702920579094308	-9.702920579094309	-1.799247634143938	0.3837781392570367	0.0115133441777111	1.509549095705928	0.1378600823045268	-0.4267782426778242	0.7450980392156863
4157.257080078125	0.1647243294979264	-9.790193312833631	-1.922205856690137	-0.361093313683322	-1.130235784485127	0.7434146232872243	0.1440329218106996	-0.4267782426778242	0.7298474945533769
4176.788330078125	0.1330329722175668	-9.929026010566558	-1.727444203129385	-0.692058541529223	0.7255069004705412	0.007255069004705413	0.1316872427983539	-0.4205020920502092	0.7407407407407408
4196.319580078125	-0.03813673168148864	-9.874279228754927	-1.645610480269713	-0.3158321484416857	0.7367936922631674	1.139443408620745	0.1502057613168724	-0.4205020920502092	0.7407407407407408
4215.850830078125	-0.01758408068707468	-9.839216149515552	-2.138601294747295	-1.090861274284682	-2.271531808377794	0.7320016630482976	0.1378600823045268	-0.4121338912133891	0.7320261437908497
4235.382080078125	0.2849120211446272	-9.89263626937567	-1.825116026590671	9.862355072108239e-06	-0.3731340324875568	0.3736271502411622	0.1460905349794239	-0.4079497907949791	0.7298474945533769
4254.913330078125	0.1351629062570056	-9.716032606622676	-1.635965152783715	-0.6769846362554405	1.845362102703382	-0.358904869539004	0.1419753086419753	-0.4184100418410042	0.7276688453159043
4274.444580078125	-0.1775150481911217	-9.670696738304089	-1.768138270225399	-0.6920388168190788	-0.02076116450457237	0.7545093694870298	0.1316872427983539	-0.4079497907949791	0.7429193899782136
4293.975830078125	-0.008471236710936848	-9.938032762002781	-1.901026754507652	-0.714674330617433	-0.767708886634941	0.3696814016996884	0.1584362139917695	-0.4246861924686192	0.7298474945533769
4313.507080078125	0.1436412158039368	-9.878302662030565	-1.684397912862681	-0.714674330617433	-0.767708886634941	0.3696814016996884	0.1234567901234568	-0.4079497907949791	0.7298474945533769
4333.038330078125	0.03384655144834961	-9.746657986478173	-1.870832817647809	-0.7146644682623609	-1.140842919122498	0.7433085519408505	0.1460905349794239	-0.4205020920502092	0.7472766884531591
4352.569580078125	0.2242018281846271	-9.903049504769625	-1.97775894180512	-1.068245485196472	-0.7783160212723121	0.3695753303533146	0.1213991769547325	-0.4163179916317991	0.7342047930283225
4372.100830078125	0.3350978341450474	-9.924560019838703	-1.886816416589879	-0.676955049190224	0.7259600052407112	0.7619765811844826	0.1440329218106996	-0.4267782426778242	0.7342047930283225
4391.632080078125	0.2750514773633733	-9.868589637400051	-1.460375936793339	-0.3083001269823305	1.483288309623366	0.7695498642283092	0.1502057613168724	-0.4205020920502092	0.7494553376906319
4411.163330078125	0.1463420287486332	-9.608221367560931	-1.943594112737025	-0.3309553654908289	1.482608652468111	-0.3625324040413567	0.1378600823045268	-0.4225941422594142	0.7407407407407408
4430.694580078125	0.162415553748345	-10.02107088779177	-1.782257671680388	-0.6241520001341605	2.966350066861647	1.16173897236673	0.1296296296296297	-0.4079497907949791	0.758169934640523
4450.225830078125	0.1335331227628809	-9.879010956035142	-1.775443499402411	-0.3158715978619742	2.229329822213395	-0.3550651923439038	0.1440329218106996	-0.405857740585774	0.7276688453159043
4469.757080078125	0.05194795956815326	-9.956719194699829	-1.628629611452441	-0.3233937569662573	1.109701172365639	0.3884555022896942	0.1378600823045268	-0.4079497907949791	0.7429193899782136
4489.288330078125	-0.05661805213470265	-9.702209253874308	-1.647292804831224	-0.6995905629885782	-0.02098771688965735	0.3771486133971412	0.1419753086419753	-0.4142259414225941	0.738562091503268
4508.819580078125	-0.04863989313308558	-9.914494363813612	-1.647726268637163	0.02266510086357052	-0.3724543753323019	1.505709418510828	0.1440329218106996	-0.4121338912133891	0.7538126361655774
4528.350830078125	0.3463133312217887	-9.813111322265581	-1.830626776235405	-0.3233740322561131	0.3634331073905256	1.135709802772018	0.1358024691358025	-0.4079497907949791	0.7407407407407408
4547.882080078125	0.1636371335650819	-9.898912906118078	-1.685228465889445	-0.3460095460544673	-0.383514614739843	0.7508818349846771	0.1316872427983539	-0.4121338912133891	0.7450980392156863
4567.413330078125	0.1866440586495323	-9.618422417875056	-1.872994074246652	0.01510349233899894	0.0004531047701699683	0.7547215121797772	0.1419753086419753	-0.4184100418410042	0.7342047930283225
4586.944580078125	0.1126308715893181	-9.949034053189406	-1.74885064646883	-0.3460194084095394	-0.01038058225228618	0.3772546847435149	0.1419753086419753	-0.4246861924686192	0.7538126361655774
4606.475830078125	0.1971492409114133	-9.578005201787963	-1.850666141417658	-0.6920486791741509	0.3523728679829845	0.3808822192458676	0.1152263374485597	-0.4079497907949791	0.7298474945533769
4626.007080078125	0.08454969188149877	-9.726848993668307	-1.808729275996924	0.01510349233899894	0.0004531047701699683	0.7547215121797772	0.1316872427983539	-0.4205020920502092	0.7407407407407408
4645.538330078125	0.1051417486764526	-9.687845334374941	-1.907583273474407	-0.7222162144318603	-1.141069471507583	0.3659477958509619	0.1460905349794239	-0.4079497907949791	0.7559912854030502
4665.069580078125	0.1733279292824716	-9.939934344480116	-1.727586670254413	-1.075797231365971	-0.7785425736573971	-0.007785425736573971	0.1460905349794239	-0.4205020920502092	0.7472766884531591
4684.600830078125	-0.04927240675200811	-9.977745725705864	-1.913521424494228	-0.7071225844479335	-0.7674823342498559	0.7470421577895769	0.1358024691358025	-0.4163179916317991	0.7363834422657953
4704.132080078125	0.27593760267295	-9.779977106442376	-1.688259681315591	-0.007512296749211039	-1.492762682335312	1.11714784487476	0.139917695473251	-0.4100418410041841	0.7407407407407408
4723.663330078125	0.1338473587620581	-9.847587356117426	-1.662758065935423	-1.04561983375319	0.3417657333456133	0.3807761478994939	0.139917695473251	-0.4205020920502092	0.7516339869281047
4743.194580078125	-0.07855697898400753	-9.875899918602775	-1.888519959659373	-0.3309257784256125	0.3632065550054406	0.75834904668213	0.1502057613168724	-0.401673640167364	0.7363834422657953
4762.725830078125	-0.05863178958280584	-9.903582998684627	-1.58667455873915	-0.338477524595112	0.3629800026203556	0.3809882905922413	0.1460905349794239	-0.4288702928870293	0.7494553376906319
4782.257080078125	-0.01743454072605147	-9.824262153413232	-1.653003614694084	-0.3384577998849678	-0.383288062354758	1.128242591074566	0.139917695473251	-0.397489539748954	0.738562091503268
4801.788330078125	0.05372930383358523	-9.778584768156632	-1.993442450420001	-0.6845067953597235	0.7257334528556262	0.384615825094594	0.1275720164609054	-0.4163179916317991	0.7538126361655774
4821.319580078125	0.04324635048482927	-9.816779092931217	-1.793436794172016	0.01509362998392684	0.3735871372577268	0.381094361938615	0.1502057613168724	-0.399581589958159	0.7254901960784315
4840.850830078125	0.004172973236661407	-9.683712777343962	-1.696265121256044	0.01510349233899894	0.0004531047701699683	0.7547215121797772	0.1604938271604938	-0.4267782426778242	0.7429193899782136
4860.382080078125	0.1867713696974304	-9.605691313085241	-1.609729983270419	0.007571470879643689	-0.7460415125900286	1.124615056572213	0.139917695473251	-0.3912133891213389	0.7429193899782136
4879.913330078125	0.1427389240120873	-9.968531841215521	-1.618211324032776	0.01510349233899894	0.0004531047701699683	0.7547215121797772	0.139917695473251	-0.401673640167364	0.7298474945533769
4899.444580078125	0.1631430454506201	-9.948321717564262	-1.576592736231788	-0.6694131653757966	1.099320590113353	0.765710187033209	0.1563786008230453	-0.4100418410041841	0.7298474945533769
4918.975830078125	0.08294112689535714	-9.887705492282471	-1.735980105769413	-0.3158518731518299	1.483061757238281	0.3921891081384206	0.1255144032921811	-0.4142259414225941	0.7363834422657953
4938.507080078125	-0.1086377504679414	-9.853674036693127	-1.746295331864588	-0.3459996836993952	-0.7566486472273998	1.124508985225839	0.1563786008230453	-0.4142259414225941	0.7559912854030502
4958.038330078125	-0.08873580038500679	-9.883681048601691	-1.676889592252117	-1.121048534252535	-3.018706082893248	-0.03018706082893248	0.1419753086419753	-0.397489539748954	0.7320261437908497
4977.569580078125	0.1925145125248356	-10.04147804044573	-1.742572999321281	-0.3535612922239668	-0.383741167124928	0.3735210788947885	0.1419753086419753	-0.4309623430962343	0.7538126361655774
4997.100830078125	0.04568849971316114	-9.57256417009803	-1.609484454820901	0.4063742036351026	2.250997196258307	0.3998684625286208	0.1378600823045268	-0.399581589958159	0.738562091503268
5016.632080078125	0.08311794779521567	-9.870023402296619	-1.987619485586374	0.4063939283452467	1.504729131283193	1.147122763010945	0.1563786008230453	-0.4121338912133891	0.7538126361655774
5036.163330078125	0.2549141028823414	-9.862125065301223	-1.864294485973612	0.3837781392570367	0.0115133441777111	1.509549095705928	0.1460905349794239	-0.4142259414225941	0.7298474945533769
5055.694580078125	0.03326758930195566	-9.804554201117568	-1.60100614527397	-1.068245485196472	-0.7783160212723121	0.3695753303533146	0.1275720164609054	-0.405857740585774	0.7472766884531591
5075.225830078125	0.1451416674398792	-9.728257498436324	-1.828395801681761	0.0452710275967084	1.493895444260737	0.7696559355746829	0.1440329218106996	-0.4079497907949791	0.7298474945533769
5094.757080078125	-0.1379617285004807	-9.755768809644026	-2.115430684029833	-0.6844870706495794	-0.02053461211948738	1.131870125576918	0.1440329218106996	-0.4142259414225941	0.7494553376906319
5114.288330078125	0.152905620551382	-9.961963197387062	-1.951114558209294	-0.3309257784256125	0.3632065550054406	0.75834904668213	0.1460905349794239	-0.4079497907949791	0.7429193899782136
5133.819580078125	0.1452699888929194	-9.715425353132305	-1.555025638474757	-1.068265209906616	-0.03204795629719848	-0.3776789701290098	0.139917695473251	-0.4079497907949791	0.758169934640523
5153.350830078125	-0.09825280641796413	-9.825280641796414	-1.916488984396425	-0.338477524595112	0.3629800026203556	0.3809882905922413	0.1440329218106996	-0.4225941422594142	0.7429193899782136
5172.882080078125	0.06345445332580461	-9.816170829035704	-1.692194198938729	0.03773900613735315	0.7474008269005386	1.139549479967119	0.154320987654321	-0.4267782426778242	0.7363834422657953
5192.413330078125	0.3666063080946961	-9.804015655176858	-1.8905751237183	-0.6995905629885782	-0.02098771688965735	0.3771486133971412	0.1481481481481482	-0.4205020920502092	0.7276688453159043
5211.944580078125	0.1468684498276406	-9.55557925966019	-1.728835531009986	-1.045600109043046	-0.4045023316295003	1.128030448381818	0.1440329218106996	-0.4225941422594142	0.7407407407407408
5231.475830078125	0.2953990161139513	-9.854037782544266	-1.984697393915569	-1.04561983375319	0.3417657333456133	0.3807761478994939	0.1460905349794239	-0.4121338912133891	0.7429193899782136
5251.007080078125	-0.0359188923946916	-9.652495300075225	-1.68500415594791	-0.3082902646272583	1.110154277135809	1.143177014469471	0.1563786008230453	-0.4121338912133891	0.7276688453159043
5270.538330078125	0.0422359453427805	-9.917819607136094	-1.79849892393368	-0.6995807006335061	-0.3941217493772142	0.7507757636383033	0.1419753086419753	-0.4205020920502092	0.7407407407407408
5290.069580078125	0.2665388140416124	-9.709754959475127	-1.755549632560613	-0.3233838946111852	0.7365671398780824	0.7620826525308564	0.139917695473251	-0.4163179916317991	0.7559912854030502
5309.600830078125	0.256625729192972	-9.690962434238163	-1.916325298763413	-0.3309257784256125	0.3632065550054406	0.75834904668213	0.1358024691358025	-0.4163179916317991	0.7429193899782136
5329.132080078125	0.03170247173692213	-9.961065957620923	-2.103796879224283	-0.300748380812831	1.483514862008451	1.146910620318198	0.1337448559670782	-0.4205020920502092	0.7407407407407408
5348.663330078125	0.2148020291481473	-9.832928398316582	-2.055154965280913	-0.3233838946111852	0.7365671398780824	0.7620826525308564	0.1625514403292181	-0.399581589958159	0.7429193899782136
5368.194580078125	0.08345037108694972	-9.836781073123214	-1.693024751965493	-0.3309257784256125	0.3632065550054406	0.75834904668213	0.1460905349794239	-0.4163179916317991	0.7472766884531591
5387.725830078125	-0.006439311970276777	-9.734840287936771	-1.779735700445835	-0.3158518731518299	1.483061757238281	0.3921891081384206	0.1296296296296297	-0.4100418410041841	0.7276688453159043
5407.257080078125	0.002201672804524261	-9.880842820557675	-1.211191841471556	-0.3233937569662573	1.109701172365639	0.3884555022896942	0.1378600823045268	-0.4121338912133891	0.7429193899782136
5426.788330078125	-0.0479336199387935	-9.843867044384403	-1.65428885003477	-0.6995905629885782	-0.02098771688965735	0.3771486133971412	0.1563786008230453	-0.4246861924686192	0.7320261437908497
5446.319580078125	-0.09732525449756337	-9.732525449756338	-1.730023767457035	-1.060713463737117	-0.0318214039121135	-0.000318214039121135	0.1358024691358025	-0.4246861924686192	0.7472766884531591
5465.850830078125	0.06320286244543448	-9.841329917072718	-2.188404164198879	-0.3460095460544673	-0.383514614739843	0.7508818349846771	0.1337448559670782	-0.4100418410041841	0.7472766884531591
5485.382080078125	0.1449375656011854	-9.74866768230571	-1.849620372095637	0.7297876853115041	0.3950279589175541	0.7586672607212511	0.1460905349794239	-0.4205020920502092	0.7450980392156863
5504.913330078125	-0.1400552879548057	-9.965124755076532	-1.843091134067718	0.03774886849242525	0.3742667944129817	1.513176630208281	0.1358024691358025	-0.4330543933054393	0.7516339869281047
5524.444580078125	0.2048161951292794	-9.821410790102368	-1.93346682199827	-1.083329252825327	-1.525037191017595	0.3621081186558618	0.1378600823045268	-0.4142259414225941	0.7363834422657953
5543.975830078125	0.1957670066770906	-9.716228625220234	-1.534358811699291	0.03772914378228104	1.120534859388095	0.7659223297259565	0.139917695473251	-0.4225941422594142	0.7450980392156863
5563.507080078125	-0.03733345959355987	-9.793952019962052	-1.69209113761424	-0.3158420107967578	1.109927724750724	0.7658162583795828	0.1440329218106996	-0.4288702928870293	0.7233115468409587
5583.038330078125	-0.04774568458237243	-9.825073508742296	-1.794761435313242	-0.3233937569662573	1.109701172365639	0.3884555022896942	0.1502057613168724	-0.4205020920502092	0.7342047930283225
5602.569580078125	0.124251541128021	-9.797068109420129	-1.680530081978918	-0.676955049190224	0.7259600052407112	0.7619765811844826	0.1481481481481482	-0.4225941422594142	0.7472766884531591
5622.100830078125	0.08303307376328359	-9.878510805489828	-1.826428542870192	-0.3309159160705404	-0.009927477482116214	1.131976196923292	0.1419753086419753	-0.4184100418410042	0.7472766884531591
5641.632080078125	0.09404042738076282	-9.787876453842912	-1.831887761852681	0.406413653055391	0.7584610663080796	1.89437706349327	0.1460905349794239	-0.403765690376569	0.738562091503268
5661.163330078125	0.2679614644816171	-9.56748991547466	-1.667614073048109	-0.3460095460544673	-0.383514614739843	0.7508818349846771	0.1358024691358025	-0.4184100418410042	0.7538126361655774
5680.694580078125	0.1136291518696623	-9.849206025154988	-1.865061383476427	-0.3158617355069021	1.856195789725838	0.01856195789725838	0.1481481481481482	-0.401673640167364	0.7407407407407408
5700.225830078125	0.02444473160158583	-9.676738961053541	-1.968440985585146	0.03770941907213682	1.866802924363209	0.01866802924363209	0.1337448559670782	-0.4309623430962343	0.738562091503268
5719.757080078125	0.4074125301614777	-9.763797488902746	-1.827550092577866	-0.3158518731518299	1.483061757238281	0.3921891081384206	0.1255144032921811	-0.405857740585774	0.7450980392156863
5739.288330078125	-0.02796296230619963	-9.867003301327035	-1.907771208830828	0.03019712232292578	0.3740402420278968	1.135815874118392	0.1378600823045268	-0.4079497907949791	0.7429193899782136
5758.819580078125	0.1451457090604474	-9.727853336379505	-1.787971512758674	-0.3686253351426773	-1.876730401845325	1.11330816767966	0.1358024691358025	-0.403765690376569	0.7429193899782136
5778.350830078125	0.3073440257032519	-9.669637833715223	-1.702630673650951	-0.6845067953597235	0.7257334528556262	0.384615825094594	0.1296296296296297	-0.3953974895397489	0.7189542483660132
5797.882080078125	-0.1180314870735688	-9.782946687154856	-1.763054921955751	-0.3233838946111852	0.7365671398780824	0.7620826525308564	0.1234567901234568	-0.4142259414225941	0.7603485838779958
5817.413330078125	0.3047169723339251	-9.932343170647902	-1.715792211031278	-0.3459898213443231	-1.129782679714956	1.498136135467002	0.1316872427983539	-0.4100418410041841	0.7450980392156863
5836.944580078125	0.1018205469745383	-10.01996550456637	-1.792909362687866	-0.7146644682623609	-1.140842919122498	0.7433085519408505	0.154320987654321	-0.4163179916317991	0.7320261437908497
5856.475830078125	0.2156305613646273	-9.750075176668583	-1.848983816856147	0.04528088995178051	1.12076141177318	1.143283085815845	0.1419753086419753	-0.4184100418410042	0.738562091503268
5876.007080078125	0.02134783984120635	-9.986428137091488	-1.630421059769294	-0.3158518731518299	1.483061757238281	0.3921891081384206	0.1275720164609054	-0.4163179916317991	0.7494553376906319
5895.538330078125	0.05304424914727616	-9.847090236787537	-1.774652352176187	-0.6844969330046514	0.3525994203680694	0.7582429753357562	0.1419753086419753	-0.4205020920502092	0.7494553376906319
5915.069580078125	0.1145243708255175	-9.759684129569466	-2.001990477921733	-0.737290119705643	-2.260924673740423	0.7321077343946713	0.1337448559670782	-0.4100418410041841	0.7276688453159043
5934.600830078125	0.2169723793932681	-9.615893373804505	-1.559433025704374	-0.3309159160705404	-0.009927477482116214	1.131976196923292	0.1584362139917695	-0.4288702928870293	0.7450980392156863
5954.132080078125	0.08384644990263285	-9.797173191554903	-1.771848477907002	0.05281291141113576	1.867256029133379	0.7733895414234093	0.1378600823045268	-0.4288702928870293	0.7342047930283225
5973.663330078125	-0.1000705252685099	-10.00705252685099	-1.915494745736649	-0.669432890085941	1.845588655088467	0.01845588655088467	0.1419753086419753	-0.4288702928870293	0.7363834422657953
5993.194580078125	-0.1180405807198472	-9.783856051782701	-1.854009572032697	-0.7297679606013598	-1.141296023892668	-0.01141296023892668	0.1522633744855967	-0.4100418410041841	0.7429193899782136
6012.725830078125	-0.01693439018073732	-9.774247098881817	-1.701002910967111	0.7449010400055751	0.02234703120016725	1.887015923142191	0.1337448559670782	-0.4142259414225941	0.7189542483660132
6032.257080078125	0.1943079816519722	-9.862131127732077	-1.986112971519579	0.3686845092731099	-0.3620737930800156	1.128454733767313	0.1296296296296297	-0.4163179916317991	0.7189542483660132
6051.788330078125	0.2986353437839335	-9.530405015546046	-1.938180361985928	0.03016753525770946	1.493442339490567	0.01493442339490567	0.1337448559670782	-0.4225941422594142	0.7516339869281047
6071.319580078125	0.125205363582115	-9.701685864010726	-2.241407997140473	-0.3384972493052563	1.109248067595469	-0.3662660098900831	0.1625514403292181	-0.4225941422594142	0.7320261437908497
6090.850830078125	-0.04783662104515681	-9.834167155020735	-1.694206925981691	-0.6844969330046514	0.3525994203680694	0.7582429753357562	0.1275720164609054	-0.4309623430962343	0.7429193899782136
6110.382080078125	0.3454191226710756	-9.902532177336896	-1.683591609559326	-0.3309159160705404	-0.009927477482116214	1.131976196923292	0.1502057613168724	-0.397489539748954	0.7472766884531591
6129.913330078125	0.2243382328788036	-9.889409035351965	-1.623540200751942	-0.6920388168190788	-0.02076116450457237	0.7545093694870298	0.1460905349794239	-0.4205020920502092	0.7472766884531591
6149.444580078125	0.2259356834083827	-9.729663982394054	-1.807456165517942	-0.3309553654908289	1.482608652468111	-0.3625324040413567	0.1481481481481482	-0.4079497907949791	0.7429193899782136
6168.975830078125	-0.04864090353822764	-9.914595404327818	-1.657832340867935	0.05280304905606366	2.240390061620936	0.3997623911822471	0.1666666666666667	-0.4267782426778242	0.7189542483660132
6188.507080078125	0.02357073115371364	-9.764139005840761	-1.619284374293632	0.3837781392570367	0.0115133441777111	1.509549095705928	0.1481481481481482	-0.4205020920502092	0.7298474945533769
6208.038330078125	-0.09855794877086287	-9.855794877086288	-1.938219767786468	-0.3308961913603962	-0.7561955424572299	1.879230497405616	0.1460905349794239	-0.4351464435146443	0.7276688453159043
6227.569580078125	0.144141366349251	-9.828287607499153	-1.732397209135708	0.007601057944860016	-1.865443610052699	2.2454965072957	0.1378600823045268	-0.4288702928870293	0.7189542483660132
6247.100830078125	0.2859183846661077	-9.791999917227614	-1.860478185752094	-0.3535415675138225	-1.130009232100041	1.120775379377113	0.1419753086419753	-0.4121338912133891	0.738562091503268
6266.632080078125	0.001928863416171094	-9.908123759392993	-1.919629323577912	0.05281291141113576	1.867256029133379	0.7733895414234093	0.1358024691358025	-0.4121338912133891	0.7320261437908497
6286.163330078125	0.09577630341480262	-9.614288850438934	-1.64137284110396	-0.3309159160705404	-0.009927477482116214	1.131976196923292	0.1378600823045268	-0.4184100418410042	0.7320261437908497
6305.694580078125	0.1459631268203649	-9.646111560387761	-1.692967158872397	-0.7297482358912155	-1.887564088867781	0.7358413402433978	0.1481481481481482	-0.405857740585774	0.7429193899782136
6325.225830078125	0.02567035303889099	-9.554176817323025	-1.830987490871116	-0.3460095460544673	-0.383514614739843	0.7508818349846771	0.1481481481481482	-0.4288702928870293	0.7342047930283225
6344.757080078125	0.3367326696648823	-9.76107646785521	-1.696807708817324	-1.038097674648906	1.461394383193369	-0.3627445467341041	0.1502057613168724	-0.4225941422594142	0.7298474945533769
6364.288330078125	0.1641413257309643	-9.848493689529844	-1.692803473239385	-0.7071423091580777	-0.02121426927474233	-0.0002121426927474233	0.1337448559670782	-0.399581589958159	0.7298474945533769
6383.819580078125	-0.007048586270932184	-9.795767718002313	-1.813091194995148	-0.714674330617433	-0.767708886634941	0.3696814016996884	0.1378600823045268	-0.4184100418410042	0.7363834422657953
6403.350830078125	-0.03836508324359167	-9.897114384965231	-1.909380784222112	-1.045639558463334	1.088033798320727	-0.3664781525828305	0.1378600823045268	-0.4267782426778242	0.7342047930283225
6422.882080078125	0.1445596740780592	-9.786456834618335	-1.588887346000237	0.03771928142720893	1.493668891875652	0.3922951794847943	0.1337448559670782	-0.4351464435146443	0.7538126361655774
6442.413330078125	-0.1366118272307035	-9.620778682666314	-1.745031315031885	-0.6844870706495794	-0.02053461211948738	1.131870125576918	0.154320987654321	-0.4225941422594142	0.7189542483660132
6461.944580078125	0.2648191044898454	-9.881725914651826	-1.784367397616986	-0.3459996836993952	-0.7566486472273998	1.124508985225839	0.1337448559670782	-0.403765690376569	0.7145969498910676
6481.475830078125	0.2052163155655307	-9.781398746477237	-1.971866259016692	-1.060693739026972	-0.7780894688872271	0.7469360864432033	0.1481481481481482	-0.4309623430962343	0.7363834422657953
6501.007080078125	0.2034955956086217	-9.953470742168141	-2.010790096303836	-0.338477524595112	0.3629800026203556	0.3809882905922413	0.139917695473251	-0.4267782426778242	0.7298474945533769
6520.538330078125	0.2624779957757185	-10.11583678606453	-1.967813523991934	-0.007532021459355256	-0.7464946173601986	0.3698935443924358	0.1440329218106996	-0.4330543933054393	0.7450980392156863
6540.069580078125	0.01217740277197175	-9.89337083391394	-1.433940707061917	-0.6995905629885782	-0.02098771688965735	0.3771486133971412	0.1460905349794239	-0.4163179916317991	0.7211328976034859
6559.600830078125	-0.007732630552099207	-9.864172146119014	-1.584195024520563	-0.3234036193213294	1.482835204853196	0.01482835204853196	0.1419753086419753	-0.4184100418410042	0.7254901960784315
6579.132080078125	0.06425267338802315	-9.73634882281385	-1.789205217437116	-0.3460095460544673	-0.383514614739843	0.7508818349846771	0.1193415637860082	-0.4079497907949791	0.7363834422657953
6598.663330078125	0.1948253090847012	-9.81039838445918	-1.862309039869486	0.01512321704914316	-0.7458149602049436	1.501975812662102	0.1419753086419753	-0.4100418410041841	0.7538126361655774
6618.194580078125	0.2655193152532853	-9.811704838307849	-1.851566412399223	0.007571470879643689	-0.7460415125900286	1.124615056572213	0.1481481481481482	-0.399581589958159	0.738562091503268
6637.725830078125	0.3083574620607268	-9.568294197967731	-1.667250327196971	0.3762263930875373	0.01128679179262612	1.132188339616039	0.1275720164609054	-0.4079497907949791	0.7254901960784315
6657.257080078125	0.3459940431969013	-9.845040124754322	-1.993842570856252	-0.676955049190224	0.7259600052407112	0.7619765811844826	0.1316872427983539	-0.4184100418410042	0.7472766884531591
6676.788330078125	0.0936483901856479	-9.827080173354403	-1.712639746988086	-0.6845166577147956	1.098867485343183	0.01098867485343183	0.1316872427983539	-0.4414225941422594	0.738562091503268
6696.319580078125	-0.2295165592318036	-9.820342791867223	-1.685231497104871	-0.6844969330046514	0.3525994203680694	0.7582429753357562	0.1337448559670782	-0.4225941422594142	0.7429193899782136
6715.850830078125	0.07201763690466792	-9.969953481250384	-1.901817901733877	-0.7373098444157872	-1.514656608765309	-0.0151465660876531	0.1419753086419753	-0.4079497907949791	0.7363834422657953
6735.382080078125	-0.149238860290887	-9.873380978583645	-1.777989720360374	-0.3384676622400399	-0.0101540298672012	0.7546154408334035	0.1481481481481482	-0.4184100418410042	0.7320261437908497
6754.913330078125	0.1234533210658025	-9.876890115641981	-1.583519063480532	-0.6694230277308688	1.47245462260091	0.3920830367920469	0.1255144032921811	-0.4100418410041841	0.7276688453159043
6774.444580078125	-0.06733845069184007	-9.76414809948704	-1.802012102612584	-1.068265209906616	-0.03204795629719848	-0.3776789701290098	0.1358024691358025	-0.4205020920502092	0.7429193899782136
6793.975830078125	0.04404760176247394	-9.736653965166749	-1.860129595978087	-0.3460095460544673	-0.383514614739843	0.7508818349846771	0.1337448559670782	-0.405857740585774	0.7145969498910676
6813.507080078125	0.04312308105749931	-9.829106035664211	-2.016276596225161	-0.737290119705643	-2.260924673740423	0.7321077343946713	0.1419753086419753	-0.4079497907949791	0.7494553376906319
6833.038330078125	0.3646057059134396	-10.00407587330251	-1.698577938626193	-0.7071225844479335	-0.7674823342498559	0.7470421577895769	0.139917695473251	-0.4225941422594142	0.7342047930283225
6852.569580078125	0.002550262578531086	-9.845983843156993	-1.765000962259337	-0.338477524595112	0.3629800026203556	0.3809882905922413	0.1460905349794239	-0.4246861924686192	0.7342047930283225
6872.100830078125	-0.04885915104891016	-9.936420155396069	-1.820541922512616	0.3762066683773931	0.7575548567677397	0.3849340391337152	0.1460905349794239	-0.4330543933054393	0.7363834422657953
6891.632080078125	0.06493671766919015	-9.66794439469715	-2.018101387911701	0.03019712232292578	0.3740402420278968	1.135815874118392	0.1522633744855967	-0.4246861924686192	0.7342047930283225
6911.163330078125	0.1352548531249321	-9.706837919830033	-1.726413589884495	-1.444442291218793	-1.909004910527609	0.3582684414607617	0.1358024691358025	-0.4225941422594142	0.7189542483660132
6930.694580078125	0.1742120337817643	-9.851523894550848	-1.97568255923821	-0.3611229007485384	-0.01083368702245615	-0.3774668274362623	0.1275720164609054	-0.4205020920502092	0.7211328976034859
6950.225830078125	0.2265469785193222	-9.668534471300106	-1.753888526507085	-0.3233937569662573	1.109701172365639	0.3884555022896942	0.1358024691358025	-0.4121338912133891	0.7407407407407408
6969.757080078125	-0.08645329516911862	-9.655430527012877	-2.079595655261931	-0.3158420107967578	1.109927724750724	0.7658162583795828	0.1502057613168724	-0.4288702928870293	0.7450980392156863
6989.288330078125	-0.1584183910064	-9.781233040033941	-1.672464017729943	-0.6995807006335061	-0.3941217493772142	0.7507757636383033	0.1337448559670782	-0.4288702928870293	0.7450980392156863
7008.819580078125	0.2871551205599754	-9.668326327840845	-1.611857896499574	-0.7221964897217161	-1.887337536482696	1.113202096333286	0.1460905349794239	-0.4079497907949791	0.7320261437908497
7028.350830078125	0.1667714103157172	-9.58548523105455	-1.649323719166742	-0.6920289544640067	-0.3938951969921292	1.128136519728192	0.1358024691358025	-0.4267782426778242	0.7254901960784315
7047.882080078125	0.3050968846673354	-9.894351937306869	-1.956313092665135	-0.3535514298688947	-0.7568751996124847	0.7471482291359507	0.1337448559670782	-0.4246861924686192	0.7363834422657953
7067.413330078125	0.05414255953668318	-9.737259197846836	-1.900462948438389	0.4365516012478841	3.371305503261318	0.7884300361646888	0.1358024691358025	-0.397489539748954	0.7320261437908497
7086.944580078125	-0.3794051100290279	-9.657682720074503	-1.88061758104341	-0.3158321484416857	0.7367936922631674	1.139443408620745	0.1481481481481482	-0.4246861924686192	0.7407407407407408
7106.475830078125	0.1031350840643438	-9.888511795585826	-1.776222521766931	0.03022670938814211	-0.7453618554347736	2.256697324841879	0.1502057613168724	-0.4142259414225941	0.7342047930283225
7126.007080078125	0.1152346856403778	-9.688652648083439	-1.968128770396253	0.03778831791271368	-1.118269335537246	3.00768523117293	0.1419753086419753	-0.4267782426778242	0.7429193899782136
7145.538330078125	-0.1087670823261236	-9.866607222511352	-2.029771567302364	0.4064629648307515	-1.107209096129705	3.762512814699081	0.1358024691358025	-0.4205020920502092	0.7342047930283225
7165.069580078125	0.1544515404187166	-9.807371210653601	-1.640339196643644	0.3913594724917526	-1.107662200899874	3.007791302519303	0.1275720164609054	-0.4288702928870293	0.7080610021786493
7184.600830078125	0.3679400428822005	-9.670642176426421	-1.681872910412701	-0.3611130383934663	-0.383967719510013	-0.003839677195100129	0.154320987654321	-0.4267782426778242	0.7254901960784315
7204.132080078125	-0.01702835785894787	-9.783643866702871	-1.630766618327875	0.413925949804602	2.251223748643392	0.7772292186185095	0.1563786008230453	-0.4225941422594142	0.7276688453159043
7223.663330078125	0.114888116676655	-9.723309544455711	-1.394107505146928	-1.022974457599763	0.715579422988425	1.139231265927998	0.1502057613168724	-0.4142259414225941	0.7254901960784315
7243.194580078125	-0.09814570347290696	-9.814570347290699	-1.855346338035628	-0.6694131653757966	1.099320590113353	0.765710187033209	0.1460905349794239	-0.4184100418410042	0.7254901960784315
7262.725830078125	-0.2194135182164579	-9.820139700433671	-1.644716271719	-0.3384873869501842	0.7361140351079124	0.007361140351079124	0.1460905349794239	-0.4246861924686192	0.7254901960784315
7282.257080078125	-0.02754667538767554	-9.825374609474625	-1.784473490156901	-0.6996102876987225	0.7252803480854563	-0.3701056870851832	0.1378600823045268	-0.4246861924686192	0.7254901960784315
7301.788330078125	0.08272186897953256	-9.909631283864931	-1.908795759644865	-0.3309257784256125	0.3632065550054406	0.75834904668213	0.1584362139917695	-0.4246861924686192	0.7320261437908497
7321.319580078125	0.1435169359714648	-9.890730645277765	-1.917343787146598	-0.361093313683322	-1.130235784485127	0.7434146232872243	0.1337448559670782	-0.397489539748954	0.7342047930283225
7340.850830078125	0.2857223660685502	-9.811601776983359	-1.800854178319796	-0.676955049190224	0.7259600052407112	0.7619765811844826	0.1275720164609054	-0.4225941422594142	0.7363834422657953
7360.382080078125	0.03223798646220797	-9.907514485092339	-1.798083647420298	-0.3460391331196837	0.7358874827228274	-0.3699996157388095	0.1358024691358025	-0.4288702928870293	0.738562091503268
7379.913330078125	0.1610040177649029	-10.16222448613598	-1.759026436654403	-0.6995905629885782	-0.02098771688965735	0.3771486133971412	0.1275720164609054	-0.4163179916317991	0.7254901960784315
7399.444580078125	0.05164079640497042	-9.987435511018111	-1.670572539304028	-0.3384676622400399	-0.0101540298672012	0.7546154408334035	0.1419753086419753	-0.4100418410041841	0.7363834422657953
7418.975830078125	-0.02663933157011573	-9.734640227718646	-1.800129717832947	-0.6618910062715135	2.218949239961109	0.02218949239961108	0.1337448559670782	-0.4142259414225941	0.7320261437908497
7438.507080078125	-0.1975998816047671	-9.658978059466611	-1.64654106340554	-0.692058541529223	0.7255069004705412	0.007255069004705413	0.1460905349794239	-0.4225941422594142	0.7450980392156863
7458.038330078125	-0.07844078239267192	-9.864280259469213	-1.73642266322163	-1.083319390470254	-1.898171223505152	0.735735268897024	0.1337448559670782	-0.4225941422594142	0.7342047930283225
7477.569580078125	0.2674481786694563	-9.618818496690738	-1.750993715775115	4.93117753605438e-05	-1.865670162437784	1.868135751205811	0.1481481481481482	-0.4267782426778242	0.7342047930283225
7497.100830078125	0.2254122935448015	-9.782002968752183	-1.991896530552666	0.4064037907003188	1.131595098795636	1.520749913252107	0.1419753086419753	-0.4079497907949791	0.7276688453159043
7516.632080078125	0.2268369647950902	-9.639535843723307	-1.883748826578619	0.4214579712639573	2.99771836600359	0.4073356742260736	0.1460905349794239	-0.4225941422594142	0.7450980392156863
7536.163330078125	0.03302004004215372	-9.829309127097764	-2.056791821611033	0.391310160716392	0.7580079615379097	1.139655551313492	0.1378600823045268	-0.405857740585774	0.7254901960784315
7555.694580078125	0.05263099344417822	-9.888415807097331	-1.867631854157799	-0.7297383735361436	-2.260698121355338	1.10946849048456	0.1296296296296297	-0.4100418410041841	0.7276688453159043
7575.225830078125	0.2764468468645426	-9.729052687283117	-1.645304327511672	0.007561608524571581	-0.3729074801024718	0.7509879063310508	0.1419753086419753	-0.4225941422594142	0.7298474945533769
7594.757080078125	-0.1564066743685809	-9.580061376252031	-1.75329440828356	-0.3384972493052563	1.109248067595469	-0.3662660098900831	0.1481481481481482	-0.4142259414225941	0.7298474945533769
7614.288330078125	-0.1188418319974919	-9.863981179547165	-1.787316770226626	-0.729777822956432	-0.7681619914051109	-0.3850401104800888	0.154320987654321	-0.4163179916317991	0.7429193899782136
7633.819580078125	-0.2625365992739572	-10.09204376577956	-1.648641695695859	-0.6618712815613693	1.472681174985995	0.7694437928819354	0.1481481481481482	-0.4351464435146443	0.7254901960784315
7653.350830078125	0.05467403264140083	-9.684111887375071	-1.635174005557491	0.7222556638521488	-0.3514666584426445	1.128560805113687	0.1316872427983539	-0.4225941422594142	0.7211328976034859
7672.882080078125	0.1355519122366944	-9.6771320086538	-1.785531384340626	-0.3611031760383941	-0.7571017519975698	0.3697874730460621	0.1460905349794239	-0.4163179916317991	0.7320261437908497
7692.413330078125	0.02304936210041648	-9.816275911170475	-1.783512594866813	-0.353581016934111	0.3625268978501856	-0.3737332215875359	0.1522633744855967	-0.4079497907949791	0.7320261437908497
7711.944580078125	0.06233997645412482	-9.927618516203683	-1.728080758368875	-0.6920388168190788	-0.02076116450457237	0.7545093694870298	0.1358024691358025	-0.4267782426778242	0.7233115468409587
7731.475830078125	-0.08724242158505871	-9.734343168606884	-1.891629986686599	-0.3459996836993952	-0.7566486472273998	1.124508985225839	0.1275720164609054	-0.4100418410041841	0.7429193899782136
7751.007080078125	0.1440100136807846	-9.841422874345787	-2.036085589035027	-0.007532021459355256	-0.7464946173601986	0.3698935443924358	0.1502057613168724	-0.397489539748954	0.7124183006535948
7770.538330078125	-0.03755069669910036	-9.8156757305161	-1.84469464702815	-0.3309553654908289	1.482608652468111	-0.3625324040413567	0.1419753086419753	-0.4225941422594142	0.7407407407407408
7790.069580078125	-0.0380528680546986	-9.865892866075923	-1.816907495216667	-0.338477524595112	0.3629800026203556	0.3809882905922413	0.1337448559670782	-0.4225941422594142	0.7429193899782136
7809.600830078125	0.05433655732395654	-9.717859419119501	-1.980299100332231	0.04529075230685262	0.7476273792856235	1.516910236057007	0.1378600823045268	-0.3933054393305439	0.7254901960784315
7829.132080078125	0.09605921685457626	-9.585997506461569	-1.841975646790897	-0.3233740322561131	0.3634331073905256	1.135709802772018	0.1522633744855967	-0.4309623430962343	0.7124183006535948
7848.663330078125	0.2451212562456047	-9.831308718873878	-1.832548566815581	-0.3233937569662573	1.109701172365639	0.3884555022896942	0.1419753086419753	-0.4142259414225941	0.7189542483660132
7868.194580078125	-0.1256873268348723	-9.538429653184195	-1.56908744683665	-0.7146940553275772	-0.02144082165982732	-0.3775728987826361	0.1296296296296297	-0.4079497907949791	0.7167755991285404
7887.725830078125	0.1632269090774101	-9.939935354885257	-1.747889751178741	0.03020698467799789	0.0009062095403399367	1.509443024359554	0.139917695473251	-0.4121338912133891	0.7233115468409587
7907.257080078125	-0.05409304968472278	-9.44970900887632	-1.644743552657835	-0.3535514298688947	-0.7568751996124847	0.7471482291359507	0.1584362139917695	-0.4267782426778242	0.7102396514161221
7926.788330078125	0.155060814719372	-9.746443780588059	-1.606983702094331	-0.7146841929725051	-0.3945748541473841	-0.003945748541473841	0.1296296296296297	-0.4163179916317991	0.7472766884531591
7946.319580078125	0.196562195523883	-9.636709740540997	-1.661688046889993	-0.3460292707646115	0.3627534502352706	0.003627534502352706	0.139917695473251	-0.4121338912133891	0.7145969498910676
7965.850830078125	-0.3604307118664941	-9.780444924023143	-1.997677058370327	-0.7297679606013598	-1.141296023892668	-0.01141296023892668	0.1666666666666667	-0.4414225941422594	0.7254901960784315
7985.382080078125	0.1430137542107245	-9.941048821351796	-1.899662707565887	-0.4138963627393857	-3.370625846106063	0.3436522321049771	0.154320987654321	-0.4100418410041841	0.7254901960784315
8004.913330078125	-0.01744161356204581	-9.824969437012665	-1.723746120309486	-0.7373197067708593	-1.141522576277753	-0.3887737163288153	0.1625514403292181	-0.4184100418410042	0.7167755991285404
8024.444580078125	0.2552940152157517	-9.824133831960189	-2.104815367607468	-1.805565191967331	-1.919838597550065	-0.01919838597550065	0.1419753086419753	-0.4372384937238493	0.7211328976034859
8043.975830078125	0.16554477847327	-9.70814841529927	-1.796883286111544	-0.3459996836993952	-0.7566486472273998	1.124508985225839	0.1296296296296297	-0.4121338912133891	0.7145969498910676
8063.507080078125	0.3654170612425048	-9.922940340395998	-1.664210018124547	-0.6618712815613693	1.472681174985995	0.7694437928819354	0.1316872427983539	-0.4267782426778242	0.7254901960784315
8083.038330078125	0.09627241233954854	-9.564677957964339	-1.729796426300074	-0.6467875139325145	2.219402344731279	0.7769110045793883	0.1625514403292181	-0.4100418410041841	0.7320261437908497
8102.569580078125	-0.2486041227702468	-9.708897125509528	-1.689951099523381	-0.7146940553275772	-0.02144082165982732	-0.3775728987826361	0.1378600823045268	-0.4163179916317991	0.7233115468409587
8122.100830078125	-0.1467300243231799	-9.622497381812938	-1.937137623879333	-0.3535415675138225	-1.130009232100041	1.120775379377113	0.1460905349794239	-0.4330543933054393	0.7276688453159043
8141.632080078125	0.06304422883813282	-9.857193277802883	-1.754855484228026	-0.3309060537154684	-0.383061509969673	1.505603347164454	0.1563786008230453	-0.4267782426778242	0.7320261437908497
8161.163330078125	-0.0984427625846693	-9.844276258466932	-1.796228543579496	-0.3384577998849678	-0.383288062354758	1.128242591074566	0.1378600823045268	-0.4288702928870293	0.7211328976034859
8180.694580078125	0.1156550141794701	-9.64661979417421	-1.804406762799239	-0.7222063520767882	-1.51420350399514	0.7395749460921242	0.1502057613168724	-0.4372384937238493	0.7320261437908497
8200.225830078125	0.3556181521749158	-9.892730237053881	-1.693100532351147	0.3762165307324652	0.3844208242801829	0.7585611893748774	0.1460905349794239	-0.4330543933054393	0.7211328976034859
8219.757080078125	0.1255529429509798	-9.666927927124249	-1.795222180058016	0.05281291141113576	1.867256029133379	0.7733895414234093	0.1563786008230453	-0.4184100418410042	0.7233115468409587
8239.288330078125	0.1052599660780723	-9.676023594212971	-1.73527383257512	-1.022994182309908	1.461847487963539	0.3919769654456732	0.1563786008230453	-0.4184100418410042	0.7167755991285404
8258.819580078125	0.09374842029471074	-9.817077162448122	-1.722239606242691	-1.421826502130583	-0.4157891234221265	-0.004157891234221264	0.1419753086419753	-0.4288702928870293	0.7211328976034859
8278.350830078125	-0.2082364165351145	-9.712530542400335	-1.972557376133853	-0.3384676622400399	-0.0101540298672012	0.7546154408334035	0.1625514403292181	-0.4184100418410042	0.7342047930283225
8297.882080078125	-0.1188357695666396	-9.863374936461938	-1.726680336841996	-1.42936838594501	-0.7891497082947683	-0.007891497082947682	0.1522633744855967	-0.4163179916317991	0.7058823529411765
8317.413330078125	0.1026106837956205	-9.940951822458159	-1.970768959032427	-0.6995708382784341	-0.7672557818647709	1.124402913879466	0.1625514403292181	-0.4205020920502092	0.7276688453159043
8336.944580078125	0.2774380543088925	-9.629931942848133	-1.832257570134671	-0.3686351974977494	-1.503596369357768	0.7396810174384979	0.1666666666666667	-0.4142259414225941	0.7342047930283225
8356.475830078125	0.1771583751759785	-9.556889755129427	-1.799305227237035	-0.7071127220928615	-1.140616366737413	1.120669308030739	0.1502057613168724	-0.4225941422594142	0.7298474945533769
8376.007080078125	0.1446364648688549	-9.778777755538764	-1.830926866562593	-1.053151855212545	-0.4047288840145853	0.7506696922919297	0.154320987654321	-0.4121338912133891	0.7124183006535948
8395.538330078125	0.06313011327520696	-9.848604834095468	-1.905940354713436	-0.6920289544640067	-0.3938951969921292	1.128136519728192	0.1460905349794239	-0.4100418410041841	0.7276688453159043
8415.069580078125	0.1537523400604188	-9.877291246483376	-1.563034109630635	-0.3384676622400399	-0.0101540298672012	0.7546154408334035	0.1584362139917695	-0.4372384937238493	0.738562091503268
8434.600830078125	0.1027137451201094	-9.930645690009261	-1.950050601594717	-0.3233740322561131	0.3634331073905256	1.135709802772018	0.1460905349794239	-0.4225941422594142	0.7211328976034859
8454.132080078125	-0.06653012657820105	-9.683315688123137	-1.797962398803252	0.767516829093785	1.51556281830565	1.524589590447208	0.1522633744855967	-0.4246861924686192	0.7298474945533769
8473.663330078125	-0.008138813419202811	-9.904790432829376	-1.606432020886772	0.03773900613735315	0.7474008269005386	1.139549479967119	0.139917695473251	-0.4330543933054393	0.7320261437908497
8493.194580078125	-0.02635338691491594	-9.706045762198666	-1.970414306827567	0.02265523850849842	0.0006796571552549525	1.132082268269666	0.1481481481481482	-0.4267782426778242	0.7124183006535948
8512.725830078125	0.2358295705593242	-9.750376277400912	-1.838695871699806	0.3837880016121089	-0.3616206883098457	1.88317624594709	0.1358024691358025	-0.4246861924686192	0.7211328976034859
8532.257080078125	0.09565606520289881	-9.626312671629314	-1.833894426464791	0.0452710275967084	1.493895444260737	0.7696559355746829	0.1316872427983539	-0.405857740585774	0.7233115468409587
8551.788330078125	-0.09723532843992103	-9.723532843992103	-1.840684349019358	0.02265523850849842	0.0006796571552549525	1.132082268269666	0.1419753086419753	-0.4205020920502092	0.7320261437908497
8571.319580078125	0.1863601348046166	-9.646814802366627	-1.682497340790487	0.7524330614649304	0.7688416485603659	1.517122378749755	0.1604938271604938	-0.4225941422594142	0.7124183006535948
8590.850830078125	0.04318168455573814	-9.823245685840329	-1.430124406840399	1.504806948799428	3.776487492046073	0.7924818560525363	0.1646090534979424	-0.4225941422594142	0.7145969498910676
8610.382080078125	-0.07577735443823137	-9.597937464025158	-1.359442525533519	2.196875352683723	2.677846559087974	1.158853937288993	0.1481481481481482	-0.4288702928870293	0.7233115468409587
8629.913330078125	0.1203079298586046	-10.19142923636176	-0.7204895946407143	3.28775635167855	4.203110302490654	1.17410657472302	0.1460905349794239	-0.4414225941422594	0.7189542483660132
8649.444580078125	0.01405069390533016	-9.706041720578098	-0.8791009730292456	6.184192680285634	8.021346675930957	0.834930447891385	0.1522633744855967	-0.4246861924686192	0.6840958605664489
8668.975830078125	-0.2815271639187638	-9.970898210058198	-0.6831783639602794	6.83858125216301	3.93650072114698	2.303515950607697	0.1460905349794239	-0.4330543933054393	0.7211328976034859
8688.507080078125	-0.09945114691643397	-9.945114691643399	-0.770977518778607	10.38936670322718	5.162427269753532	1.938416725527724	0.1481481481481482	-0.4435146443514644	0.6993464052287582
8708.038330078125	-0.1609393518358117	-10.03332912297511	-0.6244879708792347	12.76633015804797	0.009855576383230156	2.264249499160059	0.1460905349794239	-0.4393305439330544	0.6819172113289761
8727.569580078125	0.1941341919675398	-9.879510096175315	-0.6940543649092923	16.74615491361081	3.114324945915787	3.804728155119535	0.1481481481481482	-0.4728033472803347	0.6535947712418301
8747.100830078125	0.2054759896870372	-9.755431334326584	-0.3847067058093577	21.78666354584556	7.370017816823128	4.224643574394647	0.1522633744855967	-0.4707112970711297	0.6492374727668846
8766.632080078125	0.1269361875904446	-9.528603463177772	-0.0812214173435901	27.26367446755283	16.86268635342957	3.564853278628636	0.1810699588477366	-0.4623430962343096	0.6448801742919391
8786.163330078125	-0.7412039104578559	-9.473926399320945	0.6199017419394754	27.74450108814765	7.9218872714504	1.211294344412617	0.168724279835391	-0.4769874476987447	0.627450980392157
8805.694580078125	-0.472560422505356	-9.882304876798223	0.7233813741572579	31.99395013043614	-7.249136719967513	-0.8272083483317507	0.1604938271604938	-0.4937238493723849	0.6252723311546842
8825.225830078125	0.01967561933111565	-10.15365018810056	0.8359485902226268	36.18399107397347	-8.989107133452437	-1.599325033598676	0.191358024691358	-0.5125523012552301	0.5969498910675382
8844.757080078125	-0.1626075307253342	-10.20014701192736	0.8722049579347628	40.96902235299209	-1.756003956275909	0.7371569415693164	0.1893004115226338	-0.5502092050209204	0.5860566448801744
8864.288330078125	-0.7126953293749499	-10.66347233143439	0.9142448846799858	43.43650813829615	-3.174516696149623	1.855047285868693	0.2160493827160494	-0.5543933054393305	0.5686274509803922
8883.819580078125	-0.3611632555944795	-10.86380030692269	0.7764306753302442	46.92697824355505	-5.681742891499319	2.207333514481233	0.220164609053498	-0.5794979079497907	0.5490196078431373
8903.350830078125	-0.4872082658496369	-10.33698820112531	0.6802987093054403	48.76278986962067	-5.253534214359141	5.230483525780937	0.2283950617283951	-0.6297071129707112	0.514161220043573
8922.882080078125	-1.113426050332059	-10.3325040231049	0.886381952482849	50.44020221087316	-11.91962975456933	7.427973513775062	0.2386831275720165	-0.6464435146443515	0.4923747276688454
8942.413330078125	-0.1267563354751599	-10.65543152731397	0.8700012643199544	51.4028810473778	-17.11462998648912	7.753382002021902	0.2304526748971193	-0.6799163179916318	0.5098039215686275
8961.944580078125	0.6010546548248398	-10.60160522458674	0.637546446935073	57.25609863746245	-6.864406593114931	7.478525745389606	0.2510288065843622	-0.707112970711297	0.4945533769063181
8981.475830078125	-0.2943805277307662	-10.24613358115742	1.060507091422397	60.04034354297247	7.398225231662309	8.753227535335492	0.2448559670781893	-0.7280334728033472	0.5032679738562092
9001.007080078125	-0.5897744918190073	-10.49260069705224	1.075532826289804	62.47011004684931	4.486043599912943	9.478822700150074	0.2613168724279836	-0.7447698744769874	0.4967320261437909
9020.538330078125	-0.4774760435214233	-10.37386697840495	1.052289466402115	62.94349340718043	-8.559456391814438	10.85780166249695	0.2530864197530864	-0.7740585774058577	0.4923747276688454
9040.069580078125	-0.02318273557916689	-10.39908163872478	1.45961207050595	63.84583717316966	-16.74134130271536	11.15334130395398	0.2674897119341564	-0.7991631799163179	0.5054466230936819
9059.600830078125	0.5641667838989234	-10.24998827677434	1.382031142889161	67.5927609151843	-7.673709709857905	12.7534515821467	0.2695473251028807	-0.8284518828451882	0.4989106753812637
9079.132080078125	-0.01144283823370228	-10.23519291427932	1.71034814812592	70.33927667691204	5.468387255531242	13.26223104236663	0.2613168724279836	-0.8326359832635982	0.4989106753812637
9098.663330078125	-0.5866472879043664	-10.17988030558815	2.050796077498115	72.06942303073508	3.654620004354888	13.24409336985487	0.2633744855967078	-0.8556485355648534	0.5294117647058824
9118.194580078125	-1.093224009921936	-10.33250200229461	1.937089124432515	70.59481320425857	0.2521727543367127	13.58742738792073	0.2489711934156379	-0.8577405857740585	0.5228758169934641
9137.725830078125	-0.8513855599828479	-10.39108125081003	2.623447233374822	71.11345772983134	-10.92629776064237	15.36243513560112	0.2942386831275721	-0.8786610878661087	0.5403050108932462
9157.257080078125	-0.4085229654125893	-10.54926623822862	2.842188832171817	72.50515614612449	-13.49648710666104	16.84616720440509	0.2798353909465021	-0.8912133891213389	0.5620915032679739
9176.788330078125	-0.06406675884188615	-10.44707992459266	2.63862149779811	76.9365669587887	-4.408320901684101	17.3144073570209	0.271604938271605	-0.8870292887029287	0.5708061002178649
9196.319580078125	-0.3063568598794702	-10.43366578592682	3.495455162306885	80.04421548362006	8.371475718239946	18.57428079491825	0.2818930041152264	-0.8828451882845187	0.6013071895424837
9215.850830078125	-0.5157906065079125	-10.16491923664983	3.688616334122632	81.53390907772543	12.52064413800341	18.23841398854985	0.2654320987654321	-0.8807531380753137	0.6318082788671024
9235.382080078125	-0.8492404698662784	-10.17657223915308	3.876618377283078	82.59465212852774	11.43306344445285	19.35961365331245	0.257201646090535	-0.8953974895397488	0.6710239651416122
9254.913330078125	-0.7666155997803825	-9.994893311371573	4.027942713787153	83.97122732777176	9.608689058639124	19.34136990945432	0.2633744855967078	-0.8912133891213389	0.6949891067538128
9274.444580078125	-0.9872658538907081	-9.837696500181911	4.154808173017654	84.9565614027849	4.414368483874592	20.79886066597082	0.2407407407407408	-0.8828451882845187	0.7124183006535948
9293.975830078125	-0.8235539503451147	-9.628122307238725	4.227530062306331	86.70185069836725	1.108518207518182	23.02995310660349	0.2283950617283951	-0.8870292887029287	0.7233115468409587
9313.507080078125	-0.7933428365978564	-9.637313962815941	4.378887742180094	86.40859488959349	4.831063816837058	22.3124615815646	0.2489711934156379	-0.8723849372384936	0.7734204793028323
9333.038330078125	-0.6590933365892629	-9.343677093269722	4.718144403889814	87.12321004608047	7.83757689839734	19.70101727841794	0.2345679012345679	-0.8514644351464434	0.7886710239651417
9352.569580078125	-1.041811565079069	-9.231661558411911	5.05325133168114	85.70131450746439	10.03372600238811	17.08146933549558	0.220164609053498	-0.8430962343096233	0.8257080610021788
9372.100830078125	-1.273457047945169	-9.163886612698708	5.306848876663392	84.54255655413972	5.148216995131654	17.03261424542302	0.2160493827160494	-0.8389121338912133	0.8540305010893247
9391.632080078125	-1.264168393474315	-9.245122175714286	5.282677964855301	84.14374395902918	2.524312318770876	17.38373368922545	0.2181069958847737	-0.8326359832635982	0.8779956427015252
9411.163330078125	-1.244066383173254	-9.255123165810284	5.332883985958563	85.17430961221874	0.3164233182173085	18.11637178035199	0.2098765432098766	-0.7928870292887029	0.9019607843137256
9430.694580078125	-1.503615214442174	-8.947380030075923	5.28506959382653	85.91167863076495	-0.4077242679427227	20.37328124788661	0.1851851851851852	-0.7907949790794978	0.9150326797385622
9450.225830078125	-1.51982918575663	-8.548575141319558	5.739191132894638	86.29546663237707	-0.7693449562525686	22.2564574938337	0.1790123456790124	-0.7740585774058577	0.9520697167755993
9469.757080078125	-1.527294058946086	-8.284961450164177	5.823004239427584	85.20463494515759	-4.160278862093033	24.10934060760549	0.1872427983539095	-0.7447698744769874	0.9956427015250545
9489.288330078125	-1.480334469564228	-7.62940655238237	5.815847539806453	84.85105392822348	-3.797751964242847	23.73560738601795	0.1872427983539095	-0.7364016736401673	1.008714596949891
9508.819580078125	-1.391506722311295	-7.837540917998137	6.392187684856779	84.51257640362837	-3.434771961622492	24.11659567661019	0.1748971193415638	-0.698744769874477	1.054466230936819
9528.350830078125	-1.174677820448198	-7.366771943809634	6.427995432685846	84.88875348494055	-1.557815007392082	23.38064826502042	0.1748971193415638	-0.6652719665271966	1.06318082788671
9547.882080078125	-1.667195765319301	-7.123616935970456	6.526137094538185	83.51215856098641	1.012827443396756	22.65163770839623	0.1666666666666667	-0.6631799163179916	1.089324618736384
9567.413330078125	-1.796538737958105	-6.926601068537794	6.777118700607672	81.71411552812333	0.2126174956944468	21.88891862778713	0.1522633744855967	-0.6338912133891212	1.091503267973856
9586.944580078125	-1.867526772023026	-6.954697404322743	6.855812084285857	79.13351134795795	-4.342412570009023	21.08865134599802	0.1625514403292181	-0.608786610878661	1.106753812636166
9606.475830078125	-1.520014089897625	-6.546863535217032	6.920082944966436	77.4033945812001	-3.64804741629534	22.22767046923327	0.1625514403292181	-0.5648535564853556	1.139433551198257
9626.007080078125	-1.599277342075925	-6.392380672238912	7.058327586906691	77.75700518519943	-5.129976411608196	23.7222851415443	0.1625514403292181	-0.5627615062761506	1.167755991285403
9645.538330078125	-1.655191141826619	-5.923154586702315	7.404462076418336	77.79472446662663	-3.636307519732544	24.11458032102909	0.1522633744855967	-0.50836820083682	1.161220043572985
9665.069580078125	-1.625480178624675	-5.982361296810947	7.603819052565126	75.74120408054748	-1.459107161165666	25.26842779631287	0.1460905349794239	-0.5146443514644351	1.176470588235294
9684.600830078125	-1.743624831074154	-5.675614420546646	7.739187071065968	74.72578136911721	-0.7433011857921554	26.78501981833076	0.1522633744855967	-0.4874476987447698	1.198257080610022
9704.132080078125	-2.154264595259335	-5.325449424923367	7.590972761589119	74.34957470073981	-1.500856042559895	26.40008577919705	0.139917695473251	-0.4456066945606694	1.222222222222222
9723.663330078125	-1.626166243716126	-5.040866795855049	7.812503078578168	72.89001905482695	-3.037180025370117	25.63000555823687	0.1131687242798354	-0.4205020920502092	1.22004357298475
9743.194580078125	-1.703104553662572	-4.653889709691507	7.972496691201022	71.51343399322786	-0.8396716070688356	25.27462215185384	0.1193415637860082	-0.3640167364016736	1.250544662309368
9762.725830078125	-1.80156651394494	-4.399075636918228	8.004454795438884	69.76818414706581	0.9736425393373473	24.53803831218583	0.1378600823045268	-0.3723849372384937	1.257080610021787
9782.257080078125	-1.790251997164278	-4.277724968953029	8.040938504307979	69.83608082610579	3.58761973821601	25.31889506530669	0.1152263374485597	-0.3158995815899581	1.274509803921569
9801.788330078125	-1.830122584069522	-4.224379619073423	8.24522726795311	70.2349032835714	5.838390382089233	25.34140277174542	0.1316872427983539	-0.3117154811715481	1.270152505446623
9821.319580078125	-1.896262694262893	-3.767683567703374	8.32800673002574	68.86587983049688	7.662991320288041	25.73700727169345	0.1378600823045268	-0.2866108786610879	1.28322440087146
9840.850830078125	-1.785409125318438	-3.793437784369055	7.994494221548567	68.94133811806144	9.904061039064231	27.26885193114536	0.102880658436214	-0.2426778242677824	1.285403050108933
9860.382080078125	-1.647326148200912	-3.116453203929535	8.292350542967981	66.46634003600816	9.829811096602635	27.26810943172075	0.1008230452674897	-0.2154811715481171	1.287581699346405
9879.913330078125	-1.88770961473545	-2.912375614959093	8.017322304922875	64.38264225231622	10.8867031481665	28.03339533336846	0.09670781893004116	-0.1861924686192468	1.309368191721133
9899.444580078125	-2.027056608685679	-2.705660868567904	8.208082754121113	61.0873538791783	5.937098228315648	27.22918230303788	0.08436213991769548	-0.1569037656903766	1.311546840958606
9918.975830078125	-1.792966955780963	-2.529018810419513	8.158649692951519	58.57462665334276	4.742313426465954	26.4625174738873	0.09465020576131689	-0.1443514644351464	1.315904139433551
9938.507080078125	-1.963010057946634	-2.361611855269447	8.397642842010598	54.96344695763273	2.768306393803609	24.55598495073049	0.06790123456790124	-0.100418410041841	1.309368191721133
9958.038330078125	-1.958575389778182	-1.918145038424243	8.308749418423432	51.97644884912208	-3.291452803183054	22.60859490593043	0.08436213991769548	-0.09623430962343095	1.318082788671024
9977.569580078125	-1.818097752474	-2.011795449420175	8.315572684347687	49.82483466168	-4.102269885522735	21.84576975397496	0.07613168724279835	-0.05230125523012552	1.328976034858388
9997.100830078125	-1.675321443471657	-1.875578690600013	8.081387042954477	47.29697435644024	-4.178105694679927	19.20350196192113	0.0720164609053498	-0.03765690376569037	1.352941176470588
10016.63208007812	-1.599958355141665	-1.409976928307946	8.327642984174602	45.58194135731125	-2.737019371220961	20.34998829685383	0.08641975308641976	-0.01464435146443514	1.328976034858388
10036.16333007812	-1.914532840041418	-1.554294105151914	8.418291481493506	42.70053948455765	-3.942864412478196	18.82849588417711	0.08024691358024692	0.004184100418410041	1.342047930283224
10055.69458007812	-1.789088010440638	-1.131023266285981	8.572022603045943	40.1727087663831	-5.138102319098059	17.30710954284676	0.08641975308641976	0.01464435146443514	1.326797385620915
10075.22583007812	-1.709118485068046	-1.214878809834892	8.427215379708082	39.10441396941128	-4.050748177932587	15.80854912199426	0.08436213991769548	0.03556485355648535	1.344226579520697
10094.75708007812	-1.534411352766678	-0.9158827514152468	8.373205183245007	38.48776440367125	0.7814986037519287	15.47951309924507	0.09053497942386832	0.06276150627615062	1.331154684095861
10114.28833007812	-1.835252410975704	-0.6969582692875405	8.451850067476371	37.20923369401478	7.459560592909996	15.54629371913665	0.09053497942386832	0.07322175732217573	1.335511982570806
10133.81958007812	-1.853807491004287	-0.5322642519438756	8.722525480169532	34.40326052176054	9.614187367891622	14.43576451518835	0.06790123456790124	0.07322175732217573	1.34640522875817
10153.35083007812	-2.066411888968479	-0.5805828362417896	8.515963304954793	32.95127634672733	7.331821872491372	14.79029935080039	0.08024691358024692	0.09832635983263598	1.324618736383442
10172.88208007812	-1.601190039009823	-0.5230443050226806	8.12955305607594	33.64332502590147	6.979449004508387	14.40941713155452	0.06995884773662552	0.1129707112970711	1.337690631808279
10192.41333007812	-1.697188631555876	-0.02189345861791267	8.557691016511123	31.9207008311827	9.912844905532497	13.68403410943268	0.06378600823045268	0.1338912133891213	1.355119825708061
10211.94458007812	-1.828684777552387	-0.040194926955842	8.484753910927191	28.70082143383399	9.069979866895618	12.5435299873482	0.06584362139917696	0.1631799163179916	1.348583877995643
10231.47583007812	-1.826372970587379	0.1909857695449159	8.375123942609758	25.11230683898754	6.72351845890097	12.14270688270222	0.07407407407407408	0.1673640167364017	1.350762527233116
10251.00708007812	-1.826076921880759	0.2205906402069448	8.305900075922855	21.14003382959419	3.619275641753497	10.97958898283263	0.06790123456790124	0.1882845188284519	1.339869281045752
10270.53833007812	-1.98653734167924	0.3361648219750509	8.431286302025395	17.19792835545856	2.008475164096593	9.831405506357948	0.04938271604938272	0.1882845188284519	1.359477124183007
10290.06958007812	-2.168305185113244	0.3411986603927379	8.571134456926082	13.51886184306362	-2.952643099931972	7.517643380321435	0.05349794238683128	0.1924686192468619	1.333333333333333
10309.60083007812	-2.169203435284526	0.2513736432646025	8.677745334679074	10.90808026528544	-8.627981472638453	6.328814524896258	0.06995884773662552	0.196652719665272	1.318082788671024
10329.13208007812	-1.582535939277319	0.3322646581267427	8.849272721998414	10.14811518236115	-10.14331773855902	5.181585690538938	0.05967078189300412	0.200836820083682	1.333333333333333
10348.66333007812	-1.703011596389504	0.4059110681203932	8.902255336432026	9.885056495910314	-6.046731887212244	5.599910039618444	0.06584362139917696	0.202928870292887	1.331154684095861
10368.19458007812	-2.094940678154225	0.6069422855875579	9.029599727699857	8.463190544359442	-4.969984880684142	4.101243547419574	0.0720164609053498	0.2196652719665272	1.328976034858388
10387.72583007812	-1.805501031568078	0.2579776512730332	9.055449932854033	8.816751836583411	-4.586243713559214	3.727722468524786	0.08436213991769548	0.2196652719665272	1.328976034858388
10407.25708007812	-1.712590237136126	0.4581480035591724	9.056286548311649	9.952913725530017	-1.940218558383353	4.886258191774657	0.08230452674897121	0.2322175732217573	1.315904139433551
10426.78833007812	-1.912979847338089	0.6212071853830025	8.799809348674559	8.944993448493893	0.6414841318130258	4.912075218676621	0.08230452674897121	0.2217573221757322	1.328976034858388
10446.31958007812	-1.873894345228217	0.4893533559662065	8.823910542527848	7.530718692532808	0.2259215607759843	5.285278083532289	0.08641975308641976	0.2217573221757322	1.333333333333333
10465.85083007812	-2.004191140321116	0.5909869779894659	8.62566905365788	4.318420628418822	-1.73611902293848	5.643016168261182	0.06790123456790124	0.2238493723849372	1.335511982570806
10485.38208007812	-1.740112662800392	0.7362084674355669	8.524459801794281	2.813653129039682	-7.00514264493478	6.345042913173295	0.08230452674897121	0.2468619246861924	1.326797385620915
10504.91333007812	-1.366637620550048	0.7099753187325548	8.668297036195774	1.632220212496367	-11.14506324437138	4.41685125434874	0.07818930041152264	0.2343096234309623	1.350762527233116
10524.44458007812	-1.690581592332019	0.6388104637677759	8.98473167696204	-0.5269753081804356	-10.83670478163348	2.155783895579892	0.09053497942386832	0.2468619246861924	1.344226579520697
10543.97583007812	-1.548283204961865	0.7272350593690319	9.020878920918834	-1.926255057708313	-7.14733989053722	-0.8261903800374477	0.0925925925925926	0.2426778242677824	1.331154684095861
10563.50708007812	-1.235918476107773	0.650576631646934	9.050472677124301	-1.512378419679072	-3.030445979456044	-1.917096912624749	0.102880658436214	0.2280334728033473	1.32244008714597
10583.03833007812	-1.608870128494536	0.7291487667080722	9.09107580775753	-1.421875813905943	1.449881039015658	-1.872293642440032	0.0925925925925926	0.2426778242677824	1.335511982570806
10602.56958007812	-2.041688285547687	0.881676495736328	9.336798255062654	-1.459595095333152	-0.04378785285999457	-2.264588821924827	0.0925925925925926	0.2552301255230126	1.339869281045752
10622.10083007812	-2.217311855312894	0.4910366909328598	9.315510029124829	-2.189363055934512	-1.185083876752662	-2.276001782163753	0.0925925925925926	0.2468619246861924	1.331154684095861
10641.63208007812	-2.051257832648032	0.934822795802951	9.581784117019224	-1.798062757573192	-0.05394188272719577	-1.509973381091423	0.07613168724279835	0.2426778242677824	1.342047930283224
10661.16333007812	-1.790117613280386	0.7862184699412706	9.385046111000625	-1.813156387557119	-0.4275290199849225	-1.891067743030038	0.08024691358024692	0.2322175732217573	1.320261437908497
10680.69458007812	-2.081746807809353	0.9162283099738275	9.681559603986257	-1.828250017541046	-0.8011161572426494	-2.272162104968653	0.08847736625514405	0.2301255230125523	1.32244008714597
10700.22583007812	-2.104598130501928	0.6512980609183567	9.405458315680294	-1.151265381285606	-2.646478259946031	-1.913257235429649	0.1008230452674897	0.2447698744769874	1.335511982570806
10719.75708007812	-1.791419015103344	0.6560782876453896	9.499738209079723	-0.7901424805370671	-2.635644572923574	-1.535790407993387	0.1008230452674897	0.2510460251046025	1.326797385620915
10739.28833007812	-2.154051399774363	0.7564761841799231	9.723354002281962	-0.007532021459355256	-0.7464946173601986	0.3698935443924358	0.09670781893004116	0.2343096234309623	1.331154684095861
10758.81958007812	-1.933916452286482	0.547748710745773	9.49289675586291	0.391310160716392	0.7580079615379097	1.139655551313492	0.09465020576131689	0.2510460251046025	1.339869281045752
10778.35083007812	-1.922794922887951	0.6498006404978405	9.61932268885662	0.3158814602170463	-2.602463854700951	0.728692342585066	0.1049382716049383	0.2552301255230126	1.318082788671024
10797.88208007812	-1.941876423995542	0.7618525499407647	9.675239519822741	1.715062586194203	-2.560488420921637	-0.02560488420921637	0.09876543209876544	0.2343096234309623	1.339869281045752
10817.41333007812	-1.680946368897442	0.5922317971244699	9.396640510005634	2.836111120446738	0.4582176619716111	0.004582176619716111	0.08641975308641976	0.2531380753138075	1.313725490196079
10836.94458007812	-2.063491818107958	0.7215252599113143	9.439683769056911	3.182130528856278	0.4685982442238973	-0.3726725081237988	0.1008230452674897	0.2384937238493724	1.342047930283224
10856.47583007812	-2.194503980041427	0.7516221978775208	9.157050211507606	1.000378393221698	-2.955063275069021	-0.02955063275069021	0.1131687242798354	0.2364016736401673	1.331154684095861
10876.00708007812	-2.004311378533019	0.5789631567990856	9.443248478398061	-0.4516156441665946	-4.864294737981714	-0.04864294737981714	0.1008230452674897	0.2238493723849372	1.318082788671024
10895.53833007812	-1.782150568735331	0.5728219143457132	9.273445852656197	1.361540743390524	-4.436765717996792	1.842424795650221	0.1049382716049383	0.2447698744769874	1.331154684095861
10915.06958007812	-1.751339274333696	0.6236483242061923	9.367204377002327	1.436959581534798	-0.703159869270374	1.879760854137485	0.1111111111111111	0.2322175732217573	1.342047930283224
10934.60083007812	-1.881729026699663	0.7159862189226029	9.249305253002367	0.3460588578298279	-1.482155547697941	1.117253916221134	0.1008230452674897	0.2552301255230126	1.324618736383442
10954.13208007812	-1.92959494949394	0.9798989900000307	9.282224252530316	-0.04522171582134786	-3.359565606698521	1.098479815631128	0.1069958847736626	0.2552301255230126	1.335511982570806
10973.66333007812	-1.617032181232006	0.9230445030620885	9.272406145765029	-1.128560831001747	-4.51146876522856	1.086960784045828	0.1131687242798354	0.2426778242677824	1.342047930283224
10993.19458007812	-1.567354602018036	0.8402973739540047	9.177856474192673	-2.181742273279508	-3.796795551780475	0.7167490256142708	0.102880658436214	0.2594142259414225	1.318082788671024
11012.72583007812	-1.667428158501972	0.9339518265705049	9.252245531965729	-1.444432428863721	-2.282138943015165	0.7318955917019239	0.1111111111111111	0.2364016736401673	1.328976034858388
11032.25708007812	-1.424519689517454	0.98237448259805	9.529823022184225	-1.782919815813905	-1.546024907907253	0.739256732053003	0.1152263374485597	0.2489539748953975	1.311546840958606
11051.78833007812	-1.891327875549126	0.7662023440772846	9.201215020266556	-1.361461844549948	1.451693458096337	1.146592406279077	0.1152263374485597	0.2468619246861924	1.311546840958606
11071.31958007812	-2.083803992678564	0.7105098230526986	9.307616744155144	-1.752752280556195	-0.05258256841668587	0.7541911554479087	0.1131687242798354	0.2635983263598326	1.324618736383442
11090.85083007812	-2.123988815582985	0.7324315730145886	9.399220074333284	-2.497623733496554	-1.194331697079523	-0.01194331697079523	0.102880658436214	0.2447698744769874	1.315904139433551
11110.38208007812	-1.811817074111025	0.6364744070793593	9.518756054663365	-2.166678230360797	-2.303806317060078	-0.02303806317060077	0.1069958847736626	0.2217573221757322	1.34640522875817
11129.91333007812	-1.730637083378259	0.6736653995478903	9.359811242577956	-0.3309257784256125	0.3632065550054406	0.75834904668213	0.1193415637860082	0.2447698744769874	1.313725490196079
11149.44458007812	-1.711555582270668	0.5616134901049662	9.303894411611836	-2.068594291352953	1.057345156334038	1.520007413827491	0.1111111111111111	0.2364016736401673	1.337690631808279
11168.97583007812	-2.001490327376419	0.8610682724591013	9.376573863884547	-2.098771688965734	-0.06296315066897205	1.131445840191424	0.1275720164609054	0.2259414225941422	1.320261437908497
11188.50708007812	-1.789617462735071	0.8362335244726846	9.337046814727598	-1.421777190355222	-2.28145928585991	1.86397785997159	0.1090534979423868	0.2573221757322176	1.324618736383442
11208.03833007812	-1.943022223426625	0.6472726068324345	9.326064721238669	-1.782890228748689	-2.665427005369923	1.86013818277649	0.1193415637860082	0.2364016736401673	1.337690631808279
11227.56958007812	-1.65902866055612	0.7638006110546347	9.425640147987576	-1.752712831135907	-1.545118698366913	2.248699756412557	0.1255144032921811	0.2405857740585774	1.326797385620915
11247.10083007812	-1.788202895536203	0.977690244359512	9.344133796393928	-2.144032854207371	-1.929992627417266	0.7354170548579029	0.1358024691358025	0.2510460251046025	1.32244008714597
11266.63208007812	-1.781047206320214	0.6831581558574384	9.198165617547852	-2.159106759481153	-3.049847829650106	1.101576993401612	0.1111111111111111	0.2280334728033473	1.30718954248366
11286.16333007812	-1.872500996537332	0.6286882250547315	9.628871017448981	-0.7523640249794257	-3.380779875973263	1.098267672938381	0.1193415637860082	0.2384937238493724	1.320261437908497
11305.69458007812	-1.789520463841435	0.8459334138363528	9.297128738780678	-2.174200389465081	-3.423434966907833	0.7204826314629972	0.1275720164609054	0.2405857740585774	1.326797385620915
11325.22583007812	-1.693158125444244	0.3811571525453405	9.476873751120301	-0.3233444451908968	-0.7559689900721448	2.256591253495505	0.1378600823045268	0.2447698744769874	1.320261437908497
11344.75708007812	-1.670406832860732	0.6360843906945285	9.762574898680867	0.03775873084749736	0.001132761925424921	1.886803780449443	0.1296296296296297	0.2364016736401673	1.311546840958606
11364.28833007812	-1.862328237567185	0.6358631119684198	9.356604216657095	0.7901917923124278	0.7699744104857907	3.403926159199198	0.1275720164609054	0.2322175732217573	1.318082788671024
11383.81958007812	-1.638449739028013	0.8014907436633378	9.19540721151006	-0.2554379037958342	1.484874176318961	3.411075156857529	0.1378600823045268	0.2426778242677824	1.333333333333333
11403.35083007812	-1.811636211590598	0.6545606591220323	9.30754096376949	-0.2780635552391162	0.3647924217010355	3.39987433931135	0.1131687242798354	0.2489539748953975	1.333333333333333
11422.88208007812	-1.640839347188959	0.5625299275688044	9.536970628159077	-0.270531533779761	1.111287039061234	3.029980794918914	0.1131687242798354	0.2489539748953975	1.350762527233116
11442.41333007812	-1.598836805433991	0.7223800626614876	9.44437305932116	-0.661841694496153	0.3532790775233244	1.890325243605422	0.1255144032921811	0.2426778242677824	1.324618736383442
11461.94458007812	-1.718920425351061	0.8352301921666302	9.378107658890176	-1.022954732889619	-0.03068864198668858	1.886485566410322	0.1296296296296297	0.2175732217573222	1.324618736383442
11481.47583007812	-1.974009328322977	0.5788651475003068	9.494051648940271	-2.159126484191298	-2.303579764674993	0.3543226929192879	0.1131687242798354	0.2405857740585774	1.344226579520697
11501.00708007812	-1.719331660243875	0.7941067028852453	9.305340301370109	-1.09085141192961	-2.644665840865351	1.10562881328946	0.1419753086419753	0.2343096234309623	1.326797385620915
11520.53833007812	-1.540288879477976	0.516566597657006	9.182142612805244	-1.083329252825327	-1.525037191017595	0.3621081186558618	0.1337448559670782	0.2405857740585774	1.331154684095861
11540.06958007812	-1.526948500387506	0.8405034966029827	9.279280942351528	-1.406732872146656	-0.04220198616439969	0.3769364707043938	0.1234567901234568	0.2280334728033473	1.32244008714597
11559.60083007812	-1.711130201705865	0.6041515465852192	9.518146780362709	-2.113885043659806	0.3097177770484148	0.003097177770484148	0.1049382716049383	0.2405857740585774	1.324618736383442
11579.13208007812	-1.699940975162817	0.7129731907890136	9.311578542717116	-2.098801276030951	1.056438946793698	0.01056438946793698	0.117283950617284	0.2238493723849372	1.328976034858388
11598.66333007812	-1.86313454087054	0.5552327816329282	9.372766657309306	-1.767865635250266	0.320098359300701	-0.3741575069730307	0.1255144032921811	0.2301255230125523	1.30718954248366
11618.19458007812	-1.691446499133613	0.5523197836084016	9.424842938330499	-1.790511011403693	-0.05371533034211079	-1.132612625001534	0.117283950617284	0.2301255230125523	1.335511982570806
11637.72583007812	-1.863941854579036	0.4745014107832317	9.378823025730746	-1.752752280556195	-0.05258256841668587	0.7541911554479087	0.1296296296296297	0.2343096234309623	1.335511982570806
11657.25708007812	-1.913210219710477	0.5981699481442906	9.525927910361627	-1.737629063507052	-0.7983975286216295	2.25616696811001	0.1358024691358025	0.2259414225941422	1.326797385620915
11676.78833007812	-1.7715120129947	0.6265764783078496	9.619674309846053	-1.098363708678821	-4.137428523200663	2.22277665816422	0.1337448559670782	0.2447698744769874	1.328976034858388
11696.31958007812	-1.711940546629788	0.5231170541929082	9.493884932091834	-1.090841549574537	-3.017799873352908	1.479255963530622	0.1296296296296297	0.2426778242677824	1.320261437908497
11715.85083007812	-1.559946311516534	0.5710254140031504	9.53820433283752	-0.6844870706495794	-0.02053461211948738	1.131870125576918	0.1316872427983539	0.2259414225941422	1.328976034858388
11735.38208007812	-1.854924999091394	0.366085949446541	9.666421714148081	0.4214974206842457	1.505182236053363	1.901844275190723	0.139917695473251	0.2364016736401673	1.335511982570806
11754.91333007812	-1.607908222799305	0.8253393362311149	9.62114748054316	0.3762362554426094	-0.3618472406949307	1.505815489857202	0.1419753086419753	0.2364016736401673	1.324618736383442
11774.44458007812	-1.902506998040754	0.6583911050155391	9.508843980219867	0.3460588578298279	-1.482155547697941	1.117253916221134	0.1234567901234568	0.2154811715481171	1.32244008714597
11793.97583007812	-1.648941786023048	0.7623870542609085	9.304458217681098	0.3536106039993273	-1.481928995312856	1.494614672311023	0.1213991769547325	0.2133891213389121	1.34640522875817
11813.50708007812	-1.456234286116081	0.8412178530384111	9.492145014437225	0.6996398747639389	-1.844682445548127	1.49098713780867	0.1296296296296297	0.2364016736401673	1.315904139433551
11833.03833007812	-1.641854804356718	0.4609842107929033	9.481378137243555	1.452053211518725	-0.3295727320126472	2.2608552160761	0.1296296296296297	0.2447698744769874	1.324618736383442
11852.56958007812	-1.568055823186618	0.7701752570958204	9.234949416744138	0.3460687201848999	-1.855289580185498	1.490881066462296	0.1358024691358025	0.2343096234309623	1.318082788671024
11872.10083007812	-1.487450752979677	0.7498741969817766	9.386255565955658	-0.3535317051587504	-1.503143264587598	1.494402529618275	0.1255144032921811	0.2343096234309623	1.328976034858388
11891.63208007812	-1.498648062763862	0.6402442286643432	9.511975225755075	0.3687140963383262	-1.481475890542686	2.2493361844908	0.1255144032921811	0.2405857740585774	1.324618736383442
11911.16333007812	-1.477870091422771	0.6978393425714071	9.252436498537577	0.3460687201848999	-1.855289580185498	1.490881066462296	0.1460905349794239	0.2343096234309623	1.324618736383442
11930.69458007812	-1.579023771003557	0.6834814855028941	9.634545452726726	-0.3309159160705404	-0.009927477482116214	1.131976196923292	0.1440329218106996	0.2615062761506276	1.311546840958606
11950.22583007812	-1.780011541049614	0.7867246829174371	9.455879553078812	-0.6995807006335061	-0.3941217493772142	0.7507757636383033	0.1440329218106996	0.2280334728033473	1.331154684095861
11969.75708007812	-1.418684599822122	0.5557824420302027	9.306531569032582	0.7448911776505029	0.3954810636877241	1.513388772901028	0.1440329218106996	0.2510460251046025	1.313725490196079
11989.28833007812	-1.608338655389818	0.7822960771798373	9.356364750638429	0.7524133367547862	1.515109713535479	0.7698680782674303	0.1193415637860082	0.2405857740585774	1.324618736383442
12008.81958007812	-1.89242921715396	0.656068183593969	9.296707399836443	0.7373394314810034	0.3952545113026391	1.13602801681114	0.1296296296296297	0.2259414225941422	1.318082788671024
12028.35083007812	-1.660627121490842	0.6039545175825197	9.599450040522806	-0.3460194084095394	-0.01038058225228618	0.3772546847435149	0.1358024691358025	0.2364016736401673	1.320261437908497
12047.88208007812	-1.608324509717829	0.7837106443787056	9.497849761869233	-0.7071127220928615	-1.140616366737413	1.120669308030739	0.1255144032921811	0.2364016736401673	1.339869281045752
12067.41333007812	-1.538854104176266	0.660044127827931	9.391351039087009	-1.060693739026972	-0.7780894688872271	0.7469360864432033	0.154320987654321	0.2280334728033473	1.324618736383442
12086.94458007812	-1.646800737527046	0.9764919038610422	9.507104062565258	-1.090871136639754	-1.898397775890237	0.3583745128071354	0.139917695473251	0.2364016736401673	1.348583877995643
12106.47583007812	-1.589521880429444	0.6437715530152355	9.682960025513136	-0.007532021459355256	-0.7464946173601986	0.3698935443924358	0.1440329218106996	0.2384937238493724	1.315904139433551
12126.00708007812	-1.468443011447456	0.6304463300018964	9.602696472244208	0.3384873869501842	-0.7361140351079124	-0.007361140351079124	0.1316872427983539	0.2154811715481171	1.32244008714597
12145.53833007812	-1.589133884854897	0.6825711104699081	9.523287721725453	0.7373394314810034	0.3952545113026391	1.13602801681114	0.1378600823045268	0.2259414225941422	1.333333333333333
12165.06958007812	-1.699617645517361	0.745306155334574	9.515218626261051	0	0	0	0.1522633744855967	0.2426778242677824	1.315904139433551
12184.60083007812	-1.670151200359793	0.6616476407883624	9.289108142763094	-0.3535711545790389	-0.01060713463737117	-0.0001060713463737117	0.1358024691358025	0.2447698744769874	1.352941176470588
12204.13208007812	-1.600844480451242	0.5216125609363975	9.565627738797865	0.3762066683773931	0.7575548567677397	0.3849340391337152	0.1378600823045268	0.2280334728033473	1.32244008714597
12223.66333007812	-1.770930019632879	0.6847758144898586	9.380165854164529	-0.3233937569662573	1.109701172365639	0.3884555022896942	0.154320987654321	0.2384937238493724	1.328976034858388
12243.19458007812	-1.57925212256566	0.660646329292592	9.370775148774328	-0.3460095460544673	-0.383514614739843	0.7508818349846771	0.1337448559670782	0.2301255230125523	1.313725490196079
12262.72583007812	-1.703561256786778	0.3509450283929403	9.465158103498245	-1.098432745164325	-1.525490295787766	-0.3926133935239154	0.1296296296296297	0.2384937238493724	1.326797385620915
12282.25708007812	-1.527138456554211	0.821507879932466	9.399541383168456	-0.007532021459355256	-0.7464946173601986	0.3698935443924358	0.1460905349794239	0.2238493723849372	1.326797385620915
12301.78833007812	-1.678734592041498	0.8134094827189451	9.296610400942807	0.007551746169499472	0.0002265523850849842	0.3773607560898886	0.1234567901234568	0.2322175732217573	1.331154684095861
12321.31958007812	-1.49773465651545	0.7315848535055518	9.55695543146366	-0.3083198516924747	2.229556374598479	0.0222955637459848	0.1234567901234568	0.2343096234309623	1.315904139433551
12340.85083007812	-1.758797074687158	0.8879692989610076	9.521759989150675	-1.007920277036125	2.581702690196379	0.02581702690196379	0.1460905349794239	0.2238493723849372	1.328976034858388
12360.38208007812	-1.609533964672861	0.6627651488754682	9.522093422847551	-0.3007878302331194	2.976050991958678	-0.347597980646451	0.1316872427983539	0.2343096234309623	1.313725490196079
12379.91333007812	-1.477835737647941	0.701274720054373	9.596042954383817	-0.2857139249593368	4.095906194191519	-0.7137579191901604	0.139917695473251	0.2364016736401673	1.324618736383442
12399.44458007812	-1.690349199149348	0.6620497820348978	9.288926269837525	-0.2404626220727726	6.33606970342737	-0.6913562840978018	0.1337448559670782	0.2322175732217573	1.320261437908497
12418.97583007812	-1.728518263795382	0.8855473578355167	9.340123498385136	0.8806056368899071	8.608507721345502	0.08608507721345504	0.1378600823045268	0.2301255230125523	1.318082788671024
12438.50708007812	-2.113058252756302	0.8153868455819345	9.635800375913151	0.1659313062724741	7.840798834710562	0.4557664789131434	0.1440329218106996	0.2280334728033473	1.324618736383442
12458.03833007812	-2.254754438661795	0.7871823964467851	9.562266120890268	-1.03806808758369	0.3419922857306982	0.7581369039893825	0.1234567901234568	0.2447698744769874	1.342047930283224
12477.56958007812	-2.043675752462097	0.6829298042953356	9.660174379154794	-1.843264748684396	-4.159775554400831	0.3357607350220295	0.1234567901234568	0.2196652719665272	1.337690631808279
12497.10083007812	-1.5081357670477	0.7015748103815613	9.565451928303148	-1.173821996243383	-6.378498241976854	0.690931998712307	0.1358024691358025	0.2217573221757322	1.324618736383442
12516.63208007812	-1.509320972279323	0.583054287219241	9.832241322819989	-0.02259606437806577	-2.239483852080596	1.109680633177307	0.1316872427983539	0.2301255230125523	1.313725490196079
12536.16333007812	-1.712130502796493	0.5041214375223914	9.614145372908762	-0.3459996836993952	-0.7566486472273998	1.124508985225839	0.1255144032921811	0.2280334728033473	1.333333333333333
12555.69458007812	-1.769708439816142	0.8069337961635545	9.477195059955472	2.958706521632559e-05	-1.11940209746267	1.120881450723487	0.1296296296296297	0.2510460251046025	1.320261437908497
12575.22583007812	-1.711036234027655	0.6135483144062729	9.447910487723473	1.083388426955759	-0.7137670039077452	1.879654782791111	0.1213991769547325	0.2405857740585774	1.344226579520697
12594.75708007812	-1.55864187847815	0.7014687178416463	9.453830451450736	0.3611524878137546	-1.108568410440214	1.498348278159749	0.1337448559670782	0.2468619246861924	1.32244008714597
12614.28833007812	-1.658029369870634	0.8637296796032577	9.319535483210752	0.7373492938360756	0.02212047881508227	1.509655167052302	0.1316872427983539	0.2447698744769874	1.333333333333333
12633.81958007812	-1.580583836542881	0.5274749315705645	9.182285079930272	0.3686845092731099	-0.3620737930800156	1.128454733767313	0.1213991769547325	0.2405857740585774	1.34640522875817
12653.35083007812	-1.629426821109518	0.6936815254118763	9.543642333312025	-0.3459996836993952	-0.7566486472273998	1.124508985225839	0.1275720164609054	0.2301255230125523	1.328976034858388
12672.88208007812	-1.577024179227443	0.8834406631143451	9.432442195403848	0.383797863967181	-0.7347547207974024	2.256803396188253	0.1378600823045268	0.2175732217573222	1.320261437908497
12692.41333007812	-1.619472309650053	0.6790316612573113	9.108665950875457	0.3536204663543994	-1.855063027800413	1.868241822552185	0.168724279835391	0.2447698744769874	1.311546840958606
12711.94458007812	-1.769717533462421	0.8060244315357107	9.386240409878527	-0.3384183504646794	-1.875824192304985	2.622751192039214	0.1255144032921811	0.2364016736401673	1.313725490196079
12731.47583007812	-1.64732513779577	0.9240518769887112	9.312557625299762	0.007610920299932124	-2.238577642540256	2.619123657536862	0.1378600823045268	0.2426778242677824	1.335511982570806
12751.00708007812	-1.48875417561292	0.6195319336574856	9.48073551957321	0.3536500534196158	-2.974465125263083	2.989123273275671	0.1337448559670782	0.2384937238493724	1.339869281045752
12770.53833007812	-1.459676736435041	0.4969728211423963	9.404191267632164	6.903648550475854e-05	-2.611938227412898	2.615390051688135	0.1481481481481482	0.2426778242677824	1.320261437908497
12790.06958007812	-1.255465773985849	0.71604886404141	9.497995260209688	-0.3761770813121768	-1.87695695423041	0.7359474115897714	0.1481481481481482	0.2280334728033473	1.315904139433551
12809.60083007812	-1.659035733392115	0.7630933274552005	9.354897642372174	-1.060674014316828	-1.524357533862341	1.494190386925528	0.1481481481481482	0.2531380753138075	1.320261437908497
12829.13208007812	-1.40636371951998	0.7777694621434589	9.307653118740257	-1.022964595244691	0.3424453905008682	1.51285841616916	0.1337448559670782	0.2343096234309623	1.328976034858388
12848.66333007812	-1.578121479211708	0.773710664687849	9.568358863896822	-1.436880682694221	-2.28191239063008	1.109256347791812	0.154320987654321	0.2322175732217573	1.326797385620915
12868.19458007812	-1.406742621448248	0.7398792693166302	9.558280072604886	-1.090861274284682	-2.271531808377794	0.7320016630482976	0.1646090534979424	0.2447698744769874	1.324618736383442
12887.72583007812	-1.48775286411715	0.7196630832345184	9.39484299925793	-0.3384577998849678	-0.383288062354758	1.128242591074566	0.1522633744855967	0.2343096234309623	1.331154684095861
12907.25708007812	-1.509060287752674	0.6091227398840992	9.409304928056073	1.090920448415114	0.03272761345245344	1.509761238398676	0.1604938271604938	0.2447698744769874	1.311546840958606
12926.78833007812	-1.64177700316078	0.4687643303866788	9.24944468891197	0.03775873084749736	0.001132761925424921	1.886803780449443	0.1666666666666667	0.2343096234309623	1.32244008714597
12946.31958007812	-1.477853924940498	0.6994559907986851	9.414133654229925	-0.699560975923362	-1.140389814352328	1.498030064120628	0.1419753086419753	0.2364016736401673	1.324618736383442
12965.85083007812	-1.44784994424736	0.6695510298094677	9.513948546997495	-1.098413020454181	-2.271758360762879	0.354640906958409	0.1419753086419753	0.2238493723849372	1.331154684095861
12985.38208007812	-1.45684558122702	0.7800883419444608	9.438577375426368	0.02265523850849842	0.0006796571552549525	1.132082268269666	0.1522633744855967	0.2217573221757322	1.309368191721133
13004.91333007812	-1.52721221612958	0.81413192239551	9.671899120423127	9.862355072108239e-06	-0.3731340324875568	0.3736271502411622	0.168724279835391	0.2280334728033473	1.324618736383442
13024.44458007812	-1.760217704316878	0.7459063359889511	9.454036574099714	0.3762263930875373	0.01128679179262612	1.132188339616039	0.1460905349794239	0.2322175732217573	1.335511982570806
13043.97583007812	-1.588925741395635	0.7033854563961128	9.584936581062417	1.113555962213469	0.779675335582822	1.894589206186017	0.1440329218106996	0.2238493723849372	1.298474945533769
13063.50708007812	-1.697606939284685	0.9463767786022786	9.424282163476663	1.07583668078626	-0.7139935562928301	1.502294026701223	0.1502057613168724	0.2217573221757322	1.318082788671024
13083.03833007812	-1.468868392012258	0.5879082735216433	9.388444103493335	0.3762461177976815	-0.7349812731824875	1.879442640098364	0.1481481481481482	0.2510460251046025	1.326797385620915
13102.56958007812	-1.306265913312634	0.6865399818678757	9.475809794505723	-1.098403158099109	-2.644892393250436	0.7282680571995712	0.1419753086419753	0.2217573221757322	1.333333333333333
13122.10083007812	-1.537221289466715	0.8233255987830117	9.56114760239802	-1.790461699628332	-1.919385492779895	0.7355231262042766	0.1522633744855967	0.2552301255230126	1.337690631808279
13141.63208007812	-1.295355558588792	0.7674744441511241	9.510268651470154	-0.7071225844479335	-0.7674823342498559	0.7470421577895769	0.1563786008230453	0.2405857740585774	1.32244008714597
13161.16333007812	-1.468840100668281	0.5907374079193798	9.671414125954945	-0.737299982060715	-1.887790641252866	0.3584805841535091	0.1481481481481482	0.2364016736401673	1.318082788671024
13180.69458007812	-1.617601039326979	0.866158693564743	9.643293540446585	-0.7071324468030056	-0.3943483017622991	0.3734150075484148	0.1748971193415638	0.2196652719665272	1.328976034858388
13200.22583007812	-0.9530888999609086	0.6507059635051162	9.629065015236254	-0.6995905629885782	-0.02098771688965735	0.3771486133971412	0.1625514403292181	0.2364016736401673	1.324618736383442
13219.75708007812	-1.529969611762231	0.5383923591304014	9.365155275374253	0.04526116524163629	1.867029476748294	0.3960287853335207	0.1604938271604938	0.2217573221757322	1.318082788671024
13239.28833007812	-1.42836428108295	0.5979153260484942	9.460056567936041	-0.6995905629885782	-0.02098771688965735	0.3771486133971412	0.1522633744855967	0.2343096234309623	1.318082788671024
13258.81958007812	-1.445526012420648	0.9019442124806841	9.525591445449324	-0.714674330617433	-0.767708886634941	0.3696814016996884	0.1748971193415638	0.2259414225941422	1.318082788671024
13278.35083007812	-1.45671725977398	0.7929204872484801	9.711947538633373	-1.04561983375319	0.3417657333456133	0.3807761478994939	0.1604938271604938	0.2384937238493724	1.318082788671024
13297.88208007812	-1.456018059415682	0.8628405230782548	9.634642451620364	1.121078121317752	1.899303985430577	1.151068511552419	0.1502057613168724	0.2384937238493724	1.320261437908497
13317.41333007812	-1.701240356175492	0.583035089521542	9.446482785257759	-0.3082804022721863	0.7370202446482523	1.516804164710634	0.1604938271604938	0.2510460251046025	1.331154684095861
13336.94458007812	-1.347063041733138	0.6472311802216106	9.503739413442236	-0.7221964897217161	-1.887337536482696	1.113202096333286	0.1748971193415638	0.2196652719665272	1.315904139433551
13356.47583007812	-1.467253764595265	0.7493710152210363	9.376331366650454	-0.6920190921089346	-0.767029229479686	1.501763669969354	0.1625514403292181	0.2426778242677824	1.315904139433551
13376.00708007812	-1.597748599096005	0.8312006964601397	9.21750174075124	-1.429338798879794	-1.908551805757439	1.112989953640539	0.154320987654321	0.2301255230125523	1.335511982570806
13395.53833007812	-1.427559998589879	0.6783435753555761	9.423681982822286	-1.053151855212545	-0.4047288840145853	0.7506696922919297	0.1522633744855967	0.2364016736401673	1.315904139433551
13415.06958007812	-1.155489216395549	0.6126945220612415	9.463524278383552	-1.760304026725695	-0.05280912080177085	0.37683039935802	0.1748971193415638	0.2364016736401673	1.32244008714597
13434.60083007812	-1.417451905548823	0.6790518693601523	9.514727569362016	-1.752762142911268	0.320551464070871	0.3805640052067465	0.1604938271604938	0.2426778242677824	1.324618736383442
13454.13208007812	-1.367369153872892	0.6368219864482241	9.432308821925098	-1.767865635250266	0.320098359300701	-0.3741575069730307	0.1316872427983539	0.2384937238493724	1.318082788671024
13473.66333007812	-1.365042190830754	0.8695182906620551	9.474269937069241	-1.760313889080767	0.320324911685786	0.003203249116857859	0.1584362139917695	0.2405857740585774	1.318082788671024
13493.19458007812	-1.559537097434005	0.6119468222561255	9.590759545896043	-1.391639242162729	0.3313851510933271	0.7580308326430089	0.1584362139917695	0.2468619246861924	1.326797385620915
13512.72583007812	-1.407462029909387	0.667938423202758	9.433463715002461	-1.782949402879121	-0.4266228104445826	-0.3816247186704836	0.154320987654321	0.2552301255230126	1.326797385620915
13532.25708007812	-1.436242409975504	0.820203446894081	9.450890172487375	-1.015432573785336	1.088940007861067	1.142964871776724	0.1646090534979424	0.2322175732217573	1.331154684095861
13551.78833007812	-1.377167052535339	0.667133130304545	9.413524379929269	-1.007861102905692	0.3428984952710382	2.267579928348937	0.1440329218106996	0.2489539748953975	1.305010893246187
13571.31958007812	-1.456127183171024	0.8519281475441282	9.553287660798023	-1.015442436140408	1.462074040348624	0.7693377215355618	0.1522633744855967	0.2238493723849372	1.309368191721133
13590.85083007812	-1.407762120236575	0.6379293904839095	9.462263292766275	-1.04561983375319	0.3417657333456133	0.3807761478994939	0.1625514403292181	0.2322175732217573	1.339869281045752
13610.38208007812	-1.458069181854041	0.6577282792423551	9.321336025173881	-0.3384676622400399	-0.0101540298672012	0.7546154408334035	0.154320987654321	0.2175732217573222	1.335511982570806
13629.91333007812	-1.325952647100313	0.7380686233020787	9.538795419845618	-1.075777506655827	-1.524810638632511	0.7394688747457504	0.1728395061728395	0.2405857740585774	1.342047930283224
13649.44458007812	-1.155989366940863	0.5626794675298276	9.511523574656579	-0.6920388168190788	-0.02076116450457237	0.7545093694870298	0.154320987654321	0.2259414225941422	1.32244008714597
13668.97583007812	-1.558631774426729	0.7024791229836951	9.554891173758454	-0.3233937569662573	1.109701172365639	0.3884555022896942	0.1502057613168724	0.2343096234309623	1.311546840958606
