Time Stamp	Accelerometer X	Accelerometer Y	Accelerometer Z	Gyroscope X	Gyroscope Y	Gyroscope Z	Magnetometer X	Magnetometer Y	Magnetometer Z
447.296142578125	-1.156460215737058	-9.585415513099749	2.781891894914915	-38.2313107669155	10.79335918445522	-14.23168904966488	0.1851851851851852	-0.4163179916317991	0.6688453159041395
466.827392578125	0.003716270112455363	-9.729383089764566	-2.223805729160842	1.421787052710294	1.908325253372354	-1.490350709730428	0.1831275720164609	-0.4079497907949791	0.6492374727668846
486.358642578125	0.1053246320071635	-9.669557001303859	-2.098586219906738	-1.038038500518474	-0.7774098117319722	1.879018354712869	0.1728395061728395	-0.403765690376569	0.6514161220043574
505.889892578125	0.2138724564174625	-9.925885671385069	-2.261832326681847	-1.429358523589938	-1.162283740782325	0.3657356531582145	0.1707818930041153	-0.3953974895397489	0.6405228758169935
525.421142578125	0.123009753208443	-9.921246901377923	-1.979680732385297	-1.02300404466498	1.834981520451096	0.01834981520451096	0.1934156378600823	-0.4225941422594142	0.6448801742919391
544.952392578125	0.1436695071479142	-9.875473527632829	-2.411528900502082	-0.6844673459394351	-0.766802677094601	1.879124426059243	0.1831275720164609	-0.4163179916317991	0.6688453159041395
564.483642578125	0.2462710972972562	-9.716324613708728	-2.453050489409434	-0.3309257784256125	0.3632065550054406	0.75834904668213	0.1790123456790124	-0.4121338912133891	0.6470588235294118
584.014892578125	0.01526520088607278	-9.584591022503835	-1.862915282954715	0.03771928142720893	1.493668891875652	0.3922951794847943	0.1893004115226338	-0.4351464435146443	0.6601307189542485
603.546142578125	0.2054901353590259	-9.754016767127714	-2.263423714780573	-0.3309257784256125	0.3632065550054406	0.75834904668213	0.1810699588477366	-0.4288702928870293	0.6535947712418301
623.077392578125	0.08300781363473236	-9.881036818344949	-2.079080348639486	0.01512321704914316	-0.7458149602049436	1.501975812662102	0.1995884773662552	-0.4267782426778242	0.673202614379085
642.608642578125	0.1032098540448554	-9.881034797534666	-2.03847418679083	-0.6996004253436504	0.3521463155978994	0.003521463155978994	0.1646090534979424	-0.4121338912133891	0.6535947712418301
662.139892578125	-0.2986313021633654	-9.661110014316332	-2.061799389495026	-0.6845067953597235	0.7257334528556262	0.384615825094594	0.205761316872428	-0.4288702928870293	0.6579520697167757
681.671142578125	0.6320932903834359	-9.517943688929158	-2.045333827300199	-0.6844772082945072	-0.3936686446070442	1.505497275818081	0.1851851851851852	-0.399581589958159	0.6492374727668846
701.202392578125	0.2474098238923452	-9.602451954199832	-2.174618196440766	-0.3459996836993952	-0.7566486472273998	1.124508985225839	0.1872427983539095	-0.4246861924686192	0.6644880174291939
720.733642578125	0.2973319211506906	-9.660747278870337	-1.843700408368374	-0.6618910062715135	2.218949239961109	0.02218949239961108	0.1954732510288066	-0.4205020920502092	0.6448801742919391
740.264892578125	-0.1583668603441555	-9.776079973809493	-2.167155344061593	-0.692058541529223	0.7255069004705412	0.007255069004705413	0.1831275720164609	-0.4100418410041841	0.6644880174291939
759.796142578125	0.2355840421098064	-9.774929122352699	-2.274269403575325	0.007581333234715798	-1.119175545077585	1.498242206813375	0.1831275720164609	-0.4079497907949791	0.6448801742919391
779.327392578125	0.175512425199581	-9.721484752769172	-2.100480729548079	-0.323364169901041	-0.009700925097031229	1.509336953013181	0.1934156378600823	-0.405857740585774	0.6427015250544663
798.858642578125	0.3669599498944133	-9.76865147520515	-2.393853883352223	-0.714674330617433	-0.767708886634941	0.3696814016996884	0.1954732510288066	-0.4205020920502092	0.6601307189542485
818.389892578125	0.0623106747050054	-9.930548691115623	-2.021156853061257	-1.060713463737117	-0.0318214039121135	-0.000318214039121135	0.1769547325102881	-0.4142259414225941	0.6470588235294118
837.921142578125	0.3063740367668851	-9.766636727351903	-2.313550924282755	-1.060713463737117	-0.0318214039121135	-0.000318214039121135	0.1748971193415638	-0.4246861924686192	0.6601307189542485
857.452392578125	-0.004857017517828407	-9.576610842691936	-2.115242748673412	-0.3158420107967578	1.109927724750724	0.7658162583795828	0.191358024691358	-0.4163179916317991	0.6601307189542485
876.983642578125	0.2068238701465303	-9.620643288377277	-2.054721501474975	-1.060703601382045	-0.4049554363996703	0.3733089362020411	0.1851851851851852	-0.4267782426778242	0.6492374727668846
896.514892578125	0.3268963756070376	-9.734604863538674	-2.09962289558248	0.03018725996785367	0.7471742745154536	0.76218872387723	0.1934156378600823	-0.4184100418410042	0.6492374727668846
916.046142578125	0.1747111739219364	-9.80160988053364	-2.033787927742008	0.05281291141113576	1.867256029133379	0.7733895414234093	0.1893004115226338	-0.4330543933054393	0.6339869281045752
935.577392578125	-0.03911682466927596	-9.972288527533658	-2.357591453209234	0.4139358121596741	1.878089716155835	1.150856368859672	0.1810699588477366	-0.4121338912133891	0.6688453159041395
955.108642578125	0.1014588219336849	-10.05613800865172	-2.380580191001128	0.06790654139506259	2.240843166391106	1.154483903362024	0.1831275720164609	-0.4121338912133891	0.6448801742919391
974.639892578125	0.05271182585554212	-9.880332565960941	-2.069247085797068	-1.053151855212545	-0.4047288840145853	0.7506696922919297	0.1831275720164609	-0.4079497907949791	0.6514161220043574
994.171142578125	0.2058074025736292	-9.722290045667384	-2.120420064621269	-0.3309060537154684	-0.383061509969673	1.505603347164454	0.1810699588477366	-0.405857740585774	0.6535947712418301
1013.702392578125	0.3775934536093345	-9.715402113814038	-2.098155787316225	-0.3233740322561131	0.3634331073905256	1.135709802772018	0.1625514403292181	-0.4205020920502092	0.6601307189542485
1033.233642578125	0.1848010796704354	-9.802720315784752	-2.12465164135617	-0.3007779678780473	2.602916959471121	0.02602916959471122	0.1893004115226338	-0.4163179916317991	0.6644880174291939
1052.764892578125	-0.08734043088383746	-9.744144098484757	-1.86181798297045	-1.015462160850552	2.208342105323737	0.02208342105323737	0.1769547325102881	-0.4246861924686192	0.6492374727668846
1072.296142578125	-0.0866311264741192	-9.673213657512933	-1.838062347675742	0.03773900613735315	0.7474008269005386	1.139549479967119	0.1707818930041153	-0.4225941422594142	0.6470588235294118
1091.827392578125	0.004136598651547651	-9.687350235855337	-2.060083721563827	-0.3535514298688947	-0.7568751996124847	0.7471482291359507	0.1872427983539095	-0.4184100418410042	0.6492374727668846
1111.358642578125	0.2180353256027034	-9.509598752860978	-2.038956150043588	-1.406732872146656	-0.04220198616439969	0.3769364707043938	0.1934156378600823	-0.4184100418410042	0.6535947712418301
1130.889892578125	0.2175240606008267	-9.560725253048643	-2.102123648309051	-1.053151855212545	-0.4047288840145853	0.7506696922919297	0.1810699588477366	-0.4205020920502092	0.673202614379085
1150.421142578125	0.1040899169235799	-9.79302850966222	-2.326994364697714	-1.045590246687973	-0.7776363641170572	1.501657598622981	0.1748971193415638	-0.4330543933054393	0.6492374727668846
1169.952392578125	0.3871781567868091	-9.767032806167588	-2.191550565811219	-1.053151855212545	-0.4047288840145853	0.7506696922919297	0.1934156378600823	-0.4163179916317991	0.673202614379085
1189.483642578125	0.1636048006005364	-9.902146202572634	-2.008622777274142	-0.6845067953597235	0.7257334528556262	0.384615825094594	0.1872427983539095	-0.4288702928870293	0.6557734204793029
1209.014892578125	-0.07717171353425867	-9.737373373627888	-2.174509072685424	-0.6543195353918699	1.47290772737108	1.146804548971824	0.1810699588477366	-0.4100418410041841	0.6492374727668846
1228.546142578125	0.143313844537913	-9.911039788632948	-1.928462285329703	-0.300748380812831	1.483514862008451	1.146910620318198	0.1954732510288066	-0.405857740585774	0.6579520697167757
1248.077392578125	-0.03564406219605434	-9.625012280211498	-1.96645553948102	-0.3007385184577589	1.110380829520894	1.52053777055936	0.1893004115226338	-0.397489539748954	0.6557734204793029
1267.608642578125	0.2456992079868566	-9.773513544748688	-2.112481311420193	-1.0606838766719	-1.151223501374784	1.120563236684365	0.1934156378600823	-0.4079497907949791	0.6492374727668846
1287.139892578125	0.2660224970140255	-9.761386662233818	-1.869247491979935	-0.6920388168190788	-0.02076116450457237	0.7545093694870298	0.1810699588477366	-0.405857740585774	0.6514161220043574
1306.671142578125	0.1459267522352511	-9.649749018899136	-2.05678575918018	-0.3309159160705404	-0.009927477482116214	1.131976196923292	0.1769547325102881	-0.4163179916317991	0.6492374727668846
1326.202392578125	0.3053919229688136	-9.864848107159045	-2.03564303158281	-0.654339260102014	2.219175792346193	0.3995502484894997	0.1893004115226338	-0.4142259414225941	0.6579520697167757
1345.733642578125	0.06382628241807857	-9.778987919808309	-2.01356365841876	0.06788681668491839	2.987111231366219	0.4072296028796999	0.1728395061728395	-0.4184100418410042	0.6623093681917211
1365.264892578125	-0.1364643080799644	-9.6060267675924	-2.289746789541228	-1.083348977535471	-0.7787691260424821	-0.3851461818264626	0.1954732510288066	-0.4267782426778242	0.6688453159041395
1384.796142578125	0.144909274257208	-9.751496816703446	-2.132590394557247	0.3158814602170463	-2.602463854700951	0.728692342585066	0.1666666666666667	-0.4079497907949791	0.6557734204793029
1404.327392578125	0.439387811286753	-9.59657240667825	-2.212808479594782	-0.676945186835152	0.3528259727531544	1.135603731425645	0.1810699588477366	-0.4309623430962343	0.6753812636165578
1423.858642578125	0.1935602818468561	-9.936901108243687	-2.393899351583615	-0.3309257784256125	0.3632065550054406	0.75834904668213	0.1790123456790124	-0.4100418410041841	0.6535947712418301
1443.389892578125	0.2262206176584405	-9.701170557388281	-1.987846826743335	-1.098403158099109	-2.644892393250436	0.7282680571995712	0.1748971193415638	-0.401673640167364	0.6514161220043574
1462.921142578125	0.3445562366797659	-9.988820776467861	-2.233369213830333	-0.6693835783105804	-0.02008150734931741	1.886591637756696	0.1707818930041153	-0.4330543933054393	0.6710239651416122
1482.452392578125	0.2757951355479212	-9.794223818945262	-2.1031148557534	-1.03806808758369	0.3419922857306982	0.7581369039893825	0.168724279835391	-0.4225941422594142	0.6383442265795207
1501.983642578125	-0.157961687882194	-9.735562727613337	-2.155024419926156	-1.406742734501728	0.3309320463231571	0.003309320463231571	0.1769547325102881	-0.4100418410041841	0.6601307189542485
1521.514892578125	-0.1588558964329071	-9.824983582684652	-2.007989253250077	-0.7222063520767882	-1.51420350399514	0.7395749460921242	0.1851851851851852	-0.4205020920502092	0.6557734204793029
1541.046142578125	-0.05384044839921059	-9.424448880325102	-2.148528525267924	-0.6995511135682898	-1.513523846839885	1.87165721436179	0.1851851851851852	-0.4330543933054393	0.6470588235294118
1560.577392578125	0.1029986793701672	-9.902152265003487	-2.130441262820109	-0.6467677892223704	1.473134279756165	1.524165305061713	0.1851851851851852	-0.4225941422594142	0.6492374727668846
1580.108642578125	0.1037231398570162	-9.82970621631859	-1.955094544063824	-0.6844969330046514	0.3525994203680694	0.7582429753357562	0.1831275720164609	-0.4184100418410042	0.6601307189542485
1599.639892578125	0.004013329224217708	-9.699677178588333	-2.282923523616973	-1.421796915065367	-1.535191220884797	1.116723559489265	0.1728395061728395	-0.4142259414225941	0.6514161220043574
1619.171142578125	0.284368423178205	-9.946996066017894	-2.21167783624083	-0.3384479375298957	-0.7564220948423148	1.501869741315728	0.1975308641975309	-0.399581589958159	0.6492374727668846
1638.702392578125	0.2869045400847474	-9.693384375363653	-2.097961789528952	-0.278132591724621	2.976730649113933	0.7844842876232149	0.1790123456790124	-0.4142259414225941	0.6557734204793029
1658.233642578125	0.1058449906553186	-9.617521136488348	-1.944464071564329	-1.022974457599763	0.715579422988425	1.139231265927998	0.168724279835391	-0.4309623430962343	0.6339869281045752
1677.764892578125	-0.1697490742693349	-9.904200356226418	-1.870644882291388	-1.068245485196472	-0.7783160212723121	0.3695753303533146	0.1769547325102881	-0.4205020920502092	0.6688453159041395
1697.296142578125	0.1565188293393484	-9.600642318590424	-2.175436624605825	-1.414294480671227	0.3307054939380721	-0.374051435626657	0.1831275720164609	-0.4163179916317991	0.6470588235294118
1716.827392578125	0.04200052094468314	-9.94136204694583	-2.133011733501481	0.3988421821757472	1.504502578898108	0.7697620069210566	0.1666666666666667	-0.4205020920502092	0.6579520697167757
1736.358642578125	0.4266718625740692	-9.858066267845613	-2.125000231130177	0.3762263930875373	0.01128679179262612	1.132188339616039	0.168724279835391	-0.4163179916317991	0.6579520697167757
1755.889892578125	0.1631854824665861	-9.944078015967659	-2.162238712640384	0.03772914378228104	1.120534859388095	0.7659223297259565	0.1790123456790124	-0.4288702928870293	0.6470588235294118
1775.421142578125	0.05525501559807886	-9.626013591707268	-1.884788533469787	-1.105984491333825	-1.52571684817285	-0.7699741496138041	0.1707818930041153	-0.4246861924686192	0.6405228758169935
1794.952392578125	0.1449143262829183	-9.750991614132422	-2.082060033403388	-0.714674330617433	-0.767708886634941	0.3696814016996884	0.1872427983539095	-0.4100418410041841	0.6710239651416122
1814.483642578125	0.2549110716669152	-9.862428186843838	-1.894612702665927	-0.3460292707646115	0.3627534502352706	0.003627534502352706	0.1851851851851852	-0.4205020920502092	0.6688453159041395
1834.014892578125	-0.02717080467483339	-9.787787538190413	-2.065418660713845	-0.3083297140475468	2.602690407086036	-0.3513315864951774	0.191358024691358	-0.399581589958159	0.6601307189542485
1853.546142578125	-0.2595670185614759	-9.79508569453143	-2.249925712487944	0.6920684038842951	-1.098640932958098	0.3663720812364568	0.1790123456790124	-0.405857740585774	0.6819172113289761
1873.077392578125	0.3167034085340496	-9.74380056073646	-2.029477539406028	-0.01503445585349419	-2.612391332183067	1.860668539508358	0.1769547325102881	-0.4142259414225941	0.6688453159041395
1892.608642578125	0.337492494331703	-9.685094001173145	-2.177849472085037	0.3384873869501842	-0.7361140351079124	-0.007361140351079124	0.1893004115226338	-0.4267782426778242	0.6535947712418301
1912.139892578125	0.3365831297038591	-9.776030463957534	-2.182405388870535	-0.3007878302331194	2.976050991958678	-0.347597980646451	0.1790123456790124	-0.4288702928870293	0.6448801742919391
1931.671142578125	0.1152255919940993	-9.689562012711283	-2.059083420473199	-0.3158518731518299	1.483061757238281	0.3921891081384206	0.1934156378600823	-0.4163179916317991	0.6470588235294118
1951.202392578125	0.003926434382001507	-9.708366662809951	-2.141944725362334	-0.3158321484416857	0.7367936922631674	1.139443408620745	0.1584362139917695	-0.4142259414225941	0.6514161220043574
1970.733642578125	0.06614314140879639	-9.547302020736527	-2.072663265582335	-0.3384873869501842	0.7361140351079124	0.007361140351079124	0.1707818930041153	-0.4163179916317991	0.6579520697167757
1990.264892578125	0.1154317146430773	-9.668949747813489	-2.017646705597779	0.4063840659901746	1.87786316377075	0.7734956127697831	0.1666666666666667	-0.4225941422594142	0.6470588235294118
2009.796142578125	0.1451012512341973	-9.732299119004519	-2.232638690912632	0.03772914378228104	1.120534859388095	0.7659223297259565	0.1851851851851852	-0.4184100418410042	0.6601307189542485
2029.327392578125	0.07430822536169247	-9.740894635547928	-2.223675386897517	-0.3083001269823305	1.483288309623366	0.7695498642283092	0.1748971193415638	-0.4267782426778242	0.6448801742919391
2048.858642578125	-0.06574201056740302	-9.604504087043333	-1.996034139609356	-0.7071225844479335	-0.7674823342498559	0.7470421577895769	0.1851851851851852	-0.4205020920502092	0.6579520697167757
2068.389892578125	0.3061911534361743	-9.784925060422989	-2.122547977850424	-1.083348977535471	-0.7787691260424821	-0.3851461818264626	0.1707818930041153	-0.4246861924686192	0.6666666666666667
2087.921142578125	0.2166349040758238	-9.649640905548935	-1.904558120479113	-1.04561983375319	0.3417657333456133	0.3807761478994939	0.1769547325102881	-0.4142259414225941	0.6514161220043574
2107.452392578125	-0.09755057484424023	-9.755057484424025	-1.963475854717119	-1.060693739026972	-0.7780894688872271	0.7469360864432033	0.1728395061728395	-0.4121338912133891	0.6644880174291939
2126.983642578125	0.2646897726316632	-9.894659100470051	-2.067843633054762	-1.083329252825327	-1.525037191017595	0.3621081186558618	0.1893004115226338	-0.4121338912133891	0.6535947712418301
2146.514892578125	-0.0383782185104383	-9.898427911649895	-2.040759723222145	-1.060713463737117	-0.0318214039121135	-0.000318214039121135	0.1728395061728395	-0.4372384937238493	0.6601307189542485
2166.046142578125	0.2545645027031925	-9.89708508321611	-2.330692447517612	-0.3309060537154684	-0.383061509969673	1.505603347164454	0.1666666666666667	-0.4184100418410042	0.6557734204793029
2185.577392578125	0.1442757502331434	-9.814849219109904	-2.408491622645083	-0.654329397746942	1.846041759858636	0.7731773987306619	0.1810699588477366	-0.4288702928870293	0.6666666666666667
2205.108642578125	0.01352427282632276	-9.758683828478837	-2.103960564857295	-1.030526203769263	0.7153528706033401	0.7618705098381089	0.1893004115226338	-0.4184100418410042	0.6514161220043574
2224.639892578125	0.09242276874834275	-9.949642317084919	-1.850093241702116	-1.090861274284682	-2.271531808377794	0.7320016630482976	0.191358024691358	-0.4142259414225941	0.6514161220043574
2244.171142578125	0.2731559573168898	-10.0581416420484	-2.237549259902989	0.7599354958590693	2.634738363383235	0.02634738363383235	0.1748971193415638	-0.4184100418410042	0.6710239651416122
2263.702392578125	-0.1796591279025492	-9.885104709446837	-2.001102331801873	-0.6694131653757966	1.099320590113353	0.765710187033209	0.1831275720164609	-0.4393305439330544	0.6535947712418301
2283.233642578125	0.054242589645746	-9.727256186940552	-1.910062807692995	-0.714674330617433	-0.767708886634941	0.3696814016996884	0.1748971193415638	-0.4100418410041841	0.6579520697167757
2302.764892578125	0.0453479931802907	-9.606614823385073	-1.984927766287956	-0.3384479375298957	-0.7564220948423148	1.501869741315728	0.168724279835391	-0.4330543933054393	0.6405228758169935
2322.296142578125	0.1850021502937031	-9.782613253457981	-2.133745287634609	-0.3384577998849678	-0.383288062354758	1.128242591074566	0.1872427983539095	-0.397489539748954	0.6514161220043574
2341.827392578125	0.003712228491887169	-9.729787251821385	-2.264230018083929	-0.3083198516924747	2.229556374598479	0.0222955637459848	0.1769547325102881	-0.4163179916317991	0.6514161220043574
2361.358642578125	0.1772210202947855	-9.550625243248726	-2.182829759030195	0.03017739761278156	1.12030830700301	0.3885615736360679	0.1748971193415638	-0.4205020920502092	0.6623093681917211
2380.889892578125	0.1338998998294447	-9.842333249378772	-2.147343320036301	-0.6995807006335061	-0.3941217493772142	0.7507757636383033	0.1646090534979424	-0.4246861924686192	0.6623093681917211
2400.421142578125	0.03367377216905927	-9.763935914407208	-1.578769148907761	-0.3233838946111852	0.7365671398780824	0.7620826525308564	0.1831275720164609	-0.4163179916317991	0.6579520697167757
2419.952392578125	0.1141090943121355	-9.801211780907671	-2.115182124364889	-0.3309356407806847	0.7363405874929974	0.3847218964409677	0.1851851851851852	-0.4163179916317991	0.6840958605664489
2439.483642578125	0.02464580222485354	-9.656631898726772	-1.977534631863585	-0.6769649115452961	1.099094037728268	0.3883494309433204	0.1851851851851852	-0.4100418410041841	0.6601307189542485
2459.014892578125	0.2157214978274117	-9.740981530390144	-1.949538326187698	-0.3158420107967578	1.109927724750724	0.7658162583795828	0.1851851851851852	-0.4100418410041841	0.6383442265795207
2478.546142578125	0.09462444155286701	-9.729475036632493	-2.051184073072662	-1.045600109043046	-0.4045023316295003	1.128030448381818	0.2016460905349794	-0.4163179916317991	0.6666666666666667
2498.077392578125	0.1658226398873334	-9.68036227389293	-2.048016452952339	0.03019712232292578	0.3740402420278968	1.135815874118392	0.1769547325102881	-0.4205020920502092	0.6514161220043574
2517.608642578125	0.02360710573882741	-9.760501547329383	-2.265566784086859	-0.3384577998849678	-0.383288062354758	1.128242591074566	0.1831275720164609	-0.4246861924686192	0.6557734204793029
2537.139892578125	0.3773034673335665	-9.744400741390837	-1.968295487244691	-0.6996004253436504	0.3521463155978994	0.003521463155978994	0.1934156378600823	-0.4142259414225941	0.6514161220043574
2556.671142578125	0.03351412815661557	-9.779900315651579	-2.16542755126869	-0.3083001269823305	1.483288309623366	0.7695498642283092	0.1851851851851852	-0.4163179916317991	0.6427015250544663
2576.202392578125	0.2247919047875835	-9.844041844473976	-2.13641881964047	-1.068245485196472	-0.7783160212723121	0.3695753303533146	0.191358024691358	-0.4309623430962343	0.6427015250544663
2595.733642578125	0.1332178763585617	-9.910535596467065	-1.898235005100172	-0.6618712815613693	1.472681174985995	0.7694437928819354	0.1851851851851852	-0.4121338912133891	0.6514161220043574
2615.264892578125	0.3586140034210904	-9.593145112436421	-2.031626671143166	-0.7222162144318603	-1.141069471507583	0.3659477958509619	0.191358024691358	-0.4288702928870293	0.6688453159041395
2634.796142578125	0.1321832214931038	-10.01400108301286	-2.145842868400358	0.04526116524163629	1.867029476748294	0.3960287853335207	0.1748971193415638	-0.4100418410041841	0.6448801742919391
2654.327392578125	0.1957366945228292	-9.71925984064638	-1.837540978622444	0.406413653055391	0.7584610663080796	1.89437706349327	0.1728395061728395	-0.4246861924686192	0.6514161220043574
2673.858642578125	0.2974218472083329	-9.651754673106103	-1.954360989930697	0.02266510086357052	-0.3724543753323019	1.505709418510828	0.1851851851851852	-0.4205020920502092	0.6535947712418301
2693.389892578125	0.2248757684143735	-9.835655481794971	-2.307715834587423	-0.692058541529223	0.7255069004705412	0.007255069004705413	0.1954732510288066	-0.403765690376569	0.6535947712418301
2712.921142578125	0.06420518434634685	-9.741097726981479	-2.264190612283389	-0.676955049190224	0.7259600052407112	0.7619765811844826	0.1707818930041153	-0.4079497907949791	0.673202614379085
2732.452392578125	-0.09859331295083457	-9.859331295083459	-2.29193229586348	-1.090861274284682	-2.271531808377794	0.7320016630482976	0.1851851851851852	-0.4205020920502092	0.6557734204793029
2751.983642578125	0.1656417773669067	-9.698448525935602	-1.836801362058465	-1.421796915065367	-1.535191220884797	1.116723559489265	0.1872427983539095	-0.403765690376569	0.6535947712418301
2771.514892578125	0.3234650397446399	-10.07773844977844	-2.076409847849051	-0.3535711545790389	-0.01060713463737117	-0.0001060713463737117	0.1810699588477366	-0.4100418410041841	0.6514161220043574
2791.046142578125	-0.00705970072749472	-9.796879163658568	-1.924257989533638	0.0452710275967084	1.493895444260737	0.7696559355746829	0.1810699588477366	-0.4142259414225941	0.6514161220043574
2810.577392578125	0.418502737000605	-9.664877815091032	-2.014412398738081	-0.6845067953597235	0.7257334528556262	0.384615825094594	0.1831275720164609	-0.4184100418410042	0.673202614379085
2830.108642578125	0.236798549090549	-9.653478424278438	-2.247982703399784	-0.654329397746942	1.846041759858636	0.7731773987306619	0.1954732510288066	-0.403765690376569	0.6492374727668846
2849.639892578125	0.106724043128901	-9.529615889130106	-2.243090321701984	-1.053171579922689	0.3415391809605283	0.003415391809605283	0.1831275720164609	-0.4330543933054393	0.6557734204793029
2869.171142578125	-0.09850035567776609	-9.85003556777661	-2.372274660733487	-0.6467875139325145	2.219402344731279	0.7769110045793883	0.1851851851851852	-0.4142259414225941	0.6514161220043574
2888.702392578125	0.004038589352768927	-9.69715116573321	-2.030271717847679	-0.3459996836993952	-0.7566486472273998	1.124508985225839	0.1872427983539095	-0.4205020920502092	0.6492374727668846
2908.233642578125	0.2456163547652086	-9.781798866913489	-1.931078224242467	-1.414284618316155	-0.04242853854948467	-0.0004242853854948467	0.1851851851851852	-0.4184100418410042	0.6666666666666667
2927.764892578125	0.09279358743547464	-9.91256044837173	-2.181568773412919	-0.669432890085941	1.845588655088467	0.01845588655088467	0.1769547325102881	-0.4142259414225941	0.6535947712418301
2947.296142578125	0.004850955086976136	-9.615914592312489	-1.98579772511526	-1.0682356228414	-1.151450053759869	0.7432024805944768	0.1831275720164609	-0.405857740585774	0.6666666666666667
2966.827392578125	0.1438180367037954	-9.860620572044713	-1.936037292679642	-0.7221964897217161	-1.887337536482696	1.113202096333286	0.1851851851851852	-0.4121338912133891	0.6666666666666667
2986.358642578125	0.1959205882586821	-9.700870467061094	-2.018437852824003	-1.038107537003979	1.834528415680926	-0.7363716969752663	0.1790123456790124	-0.4142259414225941	0.6535947712418301
3005.889892578125	-0.09769102115898502	-9.769102115898505	-2.358118884693384	-1.053171579922689	0.3415391809605283	0.003415391809605283	0.1790123456790124	-0.4121338912133891	0.6579520697167757
3025.421142578125	0.1031078031255085	-9.891239889469357	-2.049086471997768	-0.7221866273666441	-2.260471568970253	1.486829246574449	0.1748971193415638	-0.4225941422594142	0.636165577342048
3044.952392578125	0.3873822586255029	-9.746622622298203	-2.170325995397342	-0.3459996836993952	-0.7566486472273998	1.124508985225839	0.1728395061728395	-0.4351464435146443	0.6601307189542485
3064.483642578125	0.01403351701791533	-9.70775940931958	-2.061005211053376	-1.00038825557677	3.328197307556578	-0.344076517490472	0.1872427983539095	-0.4142259414225941	0.6557734204793029
3084.014892578125	0.004040610163053025	-9.6969490847048	-2.010059573386135	-0.3309257784256125	0.3632065550054406	0.75834904668213	0.1851851851851852	-0.4100418410041841	0.6623093681917211
3103.546142578125	-0.06726267030618641	-9.756570060921673	-2.054157695405711	-0.3384380751748236	-1.129556127329872	1.87549689155689	0.191358024691358	-0.4225941422594142	0.6601307189542485
3123.077392578125	0.4176913816715398	-9.746013347997547	-2.048780319239728	-0.6845166577147956	1.098867485343183	0.01098867485343183	0.1851851851851852	-0.4205020920502092	0.6601307189542485
3142.608642578125	-0.05696664190870947	-9.737068231274989	-2.103584694144453	0.04526116524163629	1.867029476748294	0.3960287853335207	0.1831275720164609	-0.4142259414225941	0.6579520697167757
3162.139892578125	-0.1884506630435155	-9.754157213442459	-2.055248932959124	-1.113496788083036	-3.018479530508163	0.3471736952609561	0.1851851851851852	-0.4205020920502092	0.6557734204793029
3181.671142578125	0.3338792855437366	-10.04641487996978	-1.953527405688507	-1.0606838766719	-1.151223501374784	1.120563236684365	0.1934156378600823	-0.4288702928870293	0.6623093681917211
3201.202392578125	0.3048149816327038	-9.92254224077003	-1.745604214747427	-1.038077949938762	0.715126318218255	0.3845097537482203	0.1666666666666667	-0.4205020920502092	0.6579520697167757
3220.733642578125	0.2680180471695718	-9.561831646679188	-2.1117750382259	-0.3158518731518299	1.483061757238281	0.3921891081384206	0.1769547325102881	-0.4246861924686192	0.6601307189542485
3240.264892578125	0.1364127774177199	-9.591045490551243	-2.266066934632173	0.06034493287049102	2.613750646493577	0.4034959970309736	0.191358024691358	-0.4246861924686192	0.6557734204793029
3259.796142578125	-0.1376687110092865	-9.726467060524612	-2.214972767409051	-0.3158420107967578	1.109927724750724	0.7658162583795828	0.1851851851851852	-0.4184100418410042	0.6557734204793029
3279.327392578125	0.336063781460846	-9.82796528825884	-2.326421464982172	-0.3836893780613878	-3.369719636565722	1.853095256464532	0.1954732510288066	-0.4163179916317991	0.6514161220043574
3298.858642578125	0.05272294031210466	-9.879221120304688	-1.958080291258578	-1.038058225228618	-0.03114174675685855	1.131764054230545	0.1975308641975309	-0.4121338912133891	0.6492374727668846
3318.389892578125	0.3470115211749444	-9.74329232695001	-1.918037935479186	-0.6769846362554405	1.845362102703382	-0.358904869539004	0.1934156378600823	-0.4163179916317991	0.6470588235294118
3337.921142578125	-0.08140935270001119	-10.16113729020314	-2.135133584299784	-0.6920684038842951	1.098640932958098	-0.3663720812364568	0.1810699588477366	-0.4121338912133891	0.6688453159041395
3357.452392578125	0.1861358248630818	-9.669245796520109	-1.905843355819799	-0.3460095460544673	-0.383514614739843	0.7508818349846771	0.1831275720164609	-0.4267782426778242	0.6427015250544663
3376.983642578125	0.204891975514933	-9.813832751537003	-2.185612414791398	-0.3158420107967578	1.109927724750724	0.7658162583795828	0.1707818930041153	-0.4184100418410042	0.6470588235294118
3396.514892578125	0.09382116946493824	-9.80980224542537	-2.004703415728134	-1.459565508267936	-1.163189950322665	-1.14370737120134	0.1893004115226338	-0.4184100418410042	0.6514161220043574
3416.046142578125	0.2133813995184268	-9.974991361288637	-2.122878380331874	-0.6995905629885782	-0.02098771688965735	0.3771486133971412	0.1748971193415638	-0.4100418410041841	0.6644880174291939
3435.577392578125	0.1763167076926518	-9.641056503462091	-2.136855314661835	-0.699560975923362	-1.140389814352328	1.498030064120628	0.1893004115226338	-0.4121338912133891	0.6601307189542485
3455.108642578125	0.4473477829958131	-9.810676245873243	-2.395151243554613	-0.7071324468030056	-0.3943483017622991	0.3734150075484148	0.1954732510288066	-0.4163179916317991	0.6644880174291939
3474.639892578125	-0.08686351965679043	-9.696452975780055	-2.142256940551227	-0.3460391331196837	0.7358874827228274	-0.3699996157388095	0.1851851851851852	-0.397489539748954	0.6448801742919391
3494.171142578125	0.1126864438721308	-9.943476824908139	-2.203117683877393	-0.3309159160705404	-0.009927477482116214	1.131976196923292	0.1851851851851852	-0.4121338912133891	0.6557734204793029
3513.702392578125	0.508984517471072	-9.707608858953416	-2.066149183631546	-1.068215898131255	-1.897718118734982	1.490456781076801	0.1851851851851852	-0.403765690376569	0.6557734204793029
3533.233642578125	0.5306223435880464	-9.564028267458003	-1.806228523270353	-0.3686647845629658	-0.384194271895098	-0.3812004332849888	0.1769547325102881	-0.405857740585774	0.6644880174291939
3552.764892578125	0.2977189063200953	-9.622048761929868	-2.013478784386828	0.4214579712639573	2.99771836600359	0.4073356742260736	0.1666666666666667	-0.4184100418410042	0.673202614379085
3572.296142578125	-0.03890160837401957	-9.95076689800802	-2.225200088256869	-0.6694131653757966	1.099320590113353	0.765710187033209	0.1769547325102881	-0.4372384937238493	0.6601307189542485
3591.827392578125	0.06573594813655073	-9.588021347961091	-2.105006334179316	-0.699560975923362	-1.140389814352328	1.498030064120628	0.1790123456790124	-0.4163179916317991	0.6688453159041395
3611.358642578125	0.3671893118616583	-9.745715278480644	-2.119977507169052	-0.6920388168190788	-0.02076116450457237	0.7545093694870298	0.191358024691358	-0.4205020920502092	0.6579520697167757
3630.889892578125	0.09492453188005551	-9.699466003913646	-2.079983650836478	-1.02300404466498	1.834981520451096	0.01834981520451096	0.1893004115226338	-0.4163179916317991	0.6666666666666667
3650.421142578125	0.0732169878082798	-9.850018390889195	-2.027122285019912	-1.038058225228618	-0.03114174675685855	1.131764054230545	0.1893004115226338	-0.4163179916317991	0.6514161220043574
3669.952392578125	0.1755003003378764	-9.722697238939631	-2.22175359631734	-0.3309257784256125	0.3632065550054406	0.75834904668213	0.1748971193415638	-0.4079497907949791	0.6470588235294118
3689.483642578125	0.1953082827426005	-9.762101018669249	-2.082111564065633	-0.3083297140475468	2.602690407086036	-0.3513315864951774	0.1810699588477366	-0.4225941422594142	0.6775599128540306
3709.014892578125	0.1238140357015139	-9.84081865207084	-2.016055317499053	0.01510349233899894	0.0004531047701699683	0.7547215121797772	0.1769547325102881	-0.4225941422594142	0.6688453159041395
3728.546142578125	-0.01607049378428563	-9.687857459236648	-2.151220244566342	-0.7222063520767882	-1.51420350399514	0.7395749460921242	0.1748971193415638	-0.405857740585774	0.6405228758169935
3748.077392578125	0.4481934920997079	-9.72610533548376	-2.017176867206727	-0.3158222860866136	0.3636596597756105	1.513070558861907	0.1872427983539095	-0.4079497907949791	0.6448801742919391
3767.608642578125	0.2664771793279475	-9.715918430841624	-2.372020038637691	-0.6468072386426589	2.965670409706392	0.02965670409706392	0.1831275720164609	-0.405857740585774	0.6710239651416122
3787.139892578125	-0.2101794256232743	-9.906831451216314	-2.214615083988766	-0.654339260102014	2.219175792346193	0.3995502484894997	0.1810699588477366	-0.4163179916317991	0.6688453159041395
3806.671142578125	0.2246908642733786	-9.854145895894463	-2.136925032616636	-1.105945041913536	-3.018252978123078	0.7245344513508447	0.1790123456790124	-0.401673640167364	0.6535947712418301
3826.202392578125	0.2864933051919335	-9.734507864645037	-2.17072914704902	-0.338477524595112	0.3629800026203556	0.3809882905922413	0.1893004115226338	-0.4142259414225941	0.6557734204793029
3845.733642578125	0.1850152855605497	-9.781299726773318	-2.002366348634576	-0.654339260102014	2.219175792346193	0.3995502484894997	0.1769547325102881	-0.405857740585774	0.6470588235294118
3865.264892578125	-0.09554289982698934	-9.554289982698936	-2.084730534193823	-0.676945186835152	0.3528259727531544	1.135603731425645	0.1769547325102881	-0.4100418410041841	0.6644880174291939
3884.796142578125	0.4771719115736665	-9.858566418390927	-2.074015187662396	-0.7146348811971446	-2.260245016585168	1.864190002664337	0.1646090534979424	-0.4079497907949791	0.6557734204793029
3904.327392578125	0.2766095220924125	-9.712785164496131	-2.038428718559438	0.05282277376620787	1.494121996645822	1.147016691664571	0.1748971193415638	-0.4079497907949791	0.6688453159041395
3923.858642578125	-0.008103449239231097	-9.901254014832206	-2.26282050291077	-1.030536066124335	1.088486903090897	0.3882433595969467	0.1975308641975309	-0.4246861924686192	0.6666666666666667
3943.389892578125	-0.1375676704950817	-9.716363009104125	-2.214466554432885	-1.03806808758369	0.3419922857306982	0.7581369039893825	0.1769547325102881	-0.4079497907949791	0.6514161220043574
3962.921142578125	0.3060759672499807	-9.796443679042344	-2.264539202057395	-1.805565191967331	-1.919838597550065	-0.01919838597550065	0.1790123456790124	-0.4225941422594142	0.6644880174291939
3982.452392578125	0.04583905007932641	-9.557509133481503	-2.123881712637929	-0.7071225844479335	-0.7674823342498559	0.7470421577895769	0.1646090534979424	-0.4330543933054393	0.6666666666666667
4001.983642578125	0.2237764476198245	-9.945587561249878	-2.192011310555993	-0.6618811439164415	1.845815207473552	0.3958166426407733	0.1748971193415638	-0.4288702928870293	0.6666666666666667
4021.514892578125	-0.09755461646480844	-9.755461646480844	-2.003900143640206	0.03771928142720893	1.493668891875652	0.3922951794847943	0.2078189300411523	-0.4225941422594142	0.6492374727668846
4041.046142578125	0.1146941188893817	-9.742709323183048	-2.324372363354097	-0.6769254621250077	-0.3934420922219592	1.882858031907969	0.1893004115226338	-0.405857740585774	0.6623093681917211
4060.577392578125	-0.1185649809885705	-9.83629607865503	-2.048556009298193	-0.338477524595112	0.3629800026203556	0.3809882905922413	0.1872427983539095	-0.4205020920502092	0.6710239651416122
4080.108642578125	-0.1075424712939605	-9.74414611929504	-1.902424144819106	-0.676955049190224	0.7259600052407112	0.7619765811844826	0.1995884773662552	-0.3953974895397489	0.6492374727668846
4099.639892578125	0.1845171558255196	-9.831112700276321	-1.934154907900005	-1.083319390470254	-1.898171223505152	0.735735268897024	0.191358024691358	-0.4121338912133891	0.6557734204793029
4119.171142578125	0.2564155649234259	-9.711978861192776	-1.99818630256192	0.03020698467799789	0.0009062095403399367	1.509443024359554	0.1975308641975309	-0.4225941422594142	0.6557734204793029
4138.702392578125	0.1550274713496844	-9.74977811755682	-1.940484085709799	-1.068245485196472	-0.7783160212723121	0.3695753303533146	0.1831275720164609	-0.401673640167364	0.6666666666666667
4158.233642578125	0.115219529563247	-9.690168255796513	-2.11971985385783	-0.3082902646272583	1.110154277135809	1.143177014469471	0.1748971193415638	-0.4142259414225941	0.6644880174291939
4177.764892578125	0.1466310046192591	-9.579323780498337	-2.08356048503933	-0.3384479375298957	-0.7564220948423148	1.501869741315728	0.2078189300411523	-0.4225941422594142	0.6535947712418301
4197.296142578125	0.3750825968313433	-9.966487791613158	-1.959220028258809	-0.3384873869501842	0.7361140351079124	0.007361140351079124	0.1707818930041153	-0.4246861924686192	0.6579520697167757
4216.827392578125	0.1445172370620931	-9.790700536214938	-2.013342379692651	0.4139358121596741	1.878089716155835	1.150856368859672	0.1790123456790124	-0.4414225941422594	0.6405228758169935
4236.358642578125	0.3259041577575457	-9.833826648487864	-1.922775725190252	-0.7222260767869325	-0.7679354390200259	-0.007679354390200259	0.1872427983539095	-0.4163179916317991	0.6427015250544663
4255.889892578125	-0.01729712562673284	-9.810520643481368	-2.298779811511144	0.03017739761278156	1.12030830700301	0.3885615736360679	0.1831275720164609	-0.4225941422594142	0.6514161220043574
4275.421142578125	0.3048655018898062	-9.917490215059786	-2.250401613309849	-1.421836364485655	-0.04265509093456965	-0.3777850414753834	0.1954732510288066	-0.405857740585774	0.6492374727668846
4294.952392578125	-0.08797799652847023	-9.807900662948034	-2.178143499981374	-0.3158617355069021	1.856195789725838	0.01856195789725838	0.1769547325102881	-0.4163179916317991	0.6601307189542485
4314.483642578125	0.124914366901205	-9.730785532101731	-2.121653769299711	-0.7448320035200703	-2.634285258613065	0.7283741285459449	0.1893004115226338	-0.4142259414225941	0.6535947712418301
4334.014892578125	0.1249032524446424	-9.731896977757984	-2.2328205638382	-1.060693739026972	-0.7780894688872271	0.7469360864432033	0.1810699588477366	-0.4225941422594142	0.6557734204793029
4353.546142578125	0.2643937239250429	-9.924263971132081	-1.998619766367859	-1.030536066124335	1.088486903090897	0.3882433595969467	0.1790123456790124	-0.4288702928870293	0.6797385620915033
4373.077392578125	0.02059710882066413	-10.06150123914571	-2.068525656525645	-0.2932262217085478	2.603143511856206	0.4033899256845999	0.1851851851851852	-0.4288702928870293	0.6514161220043574
4392.608642578125	-0.03737185498895773	-9.797791559501837	-2.076121882383568	-0.3459996836993952	-0.7566486472273998	1.124508985225839	0.1893004115226338	-0.4079497907949791	0.6535947712418301
4412.139892578125	0.1552143963009634	-9.731085622428919	-2.091062743219043	-1.060703601382045	-0.4049554363996703	0.3733089362020411	0.1872427983539095	-0.4246861924686192	0.6492374727668846
4431.671142578125	-0.04635940872748152	-9.686445923253205	-2.070644476108521	-1.421836364485655	-0.04265509093456965	-0.3777850414753834	0.191358024691358	-0.4142259414225941	0.6448801742919391
4451.202392578125	0.2265247496061971	-9.670757362612614	-1.976222115584064	-0.3007582431679031	1.856648894496008	0.7732834700770356	0.1995884773662552	-0.4142259414225941	0.6601307189542485
4470.733642578125	0.155619568762925	-9.690568376232765	-2.078931819083605	0.3988619068858915	0.7582345139229947	1.517016307403381	0.1893004115226338	-0.401673640167364	0.6383442265795207
4490.264892578125	0.2254001686830969	-9.78321545492264	-2.113169397321927	0.02265523850849842	0.0006796571552549525	1.132082268269666	0.2078189300411523	-0.4121338912133891	0.6623093681917211
4509.796142578125	0.2146959366082322	-9.843537652308093	-2.106191539410939	-0.6845265200698678	1.47200151783074	-0.3626384753877304	0.191358024691358	-0.4079497907949791	0.6535947712418301
4529.327392578125	0.07280676332060801	-9.891040839656375	-2.089783570309209	-0.6995905629885782	-0.02098771688965735	0.3771486133971412	0.1831275720164609	-0.4184100418410042	0.6775599128540306
4548.858642578125	0.3140571574670239	-10.00842566743903	-2.234654449171019	-0.7071324468030056	-0.3943483017622991	0.3734150075484148	0.1831275720164609	-0.4163179916317991	0.6448801742919391
4568.389892578125	0.06159328705415079	-10.00228745620108	-2.125761066202139	-1.068245485196472	-0.7783160212723121	0.3695753303533146	0.1851851851851852	-0.4079497907949791	0.6557734204793029
4587.921142578125	0.3441743035360715	-10.0270140908373	-2.01306047665802	-1.060703601382045	-0.4049554363996703	0.3733089362020411	0.1934156378600823	-0.4184100418410042	0.6492374727668846
4607.452392578125	0.2668136442402497	-9.6822719396114	-2.037001016093723	-0.3082804022721863	0.7370202446482523	1.516804164710634	0.1851851851851852	-0.4079497907949791	0.6666666666666667
4626.983642578125	0.2164166565651413	-9.671465656617189	-2.067267702123794	0.04528088995178051	1.12076141177318	1.143283085815845	0.205761316872428	-0.4267782426778242	0.6448801742919391
4646.514892578125	0.2252627535837783	-9.796956964854504	-2.477494210605878	0.02262565144328209	1.120081754617925	0.01120081754617925	0.1934156378600823	-0.4121338912133891	0.6514161220043574
4666.046142578125	0.1861257208116613	-9.670256201662157	-2.006904078127516	-0.3082902646272583	1.110154277135809	1.143177014469471	0.1893004115226338	-0.405857740585774	0.6514161220043574
4685.577392578125	-0.1790448015761835	-9.823672076810272	-1.9172164760987	-1.022994182309908	1.461847487963539	0.3919769654456732	0.1851851851851852	-0.399581589958159	0.6579520697167757
4705.108642578125	-0.01761035122076795	-9.841843202884879	-2.401359172747361	-1.075797231365971	-0.7785425736573971	-0.007785425736573971	0.1810699588477366	-0.4267782426778242	0.6579520697167757
4724.639892578125	0.1156348060766291	-9.648640604458308	-2.006528207414675	-0.361093313683322	-1.130235784485127	0.7434146232872243	0.1872427983539095	-0.4121338912133891	0.6601307189542485
4744.171142578125	0.3173995776769212	-9.674183646449301	-2.137100843111353	-1.436900407404366	-1.535644325654967	0.3620020473094881	0.1728395061728395	-0.397489539748954	0.6535947712418301
4763.702392578125	0.185684173764586	-9.71441090636969	-2.382853602570738	-1.053181442277761	0.7146732134480851	-0.3702117584315569	0.1790123456790124	-0.403765690376569	0.6492374727668846
4783.233642578125	-0.1372453512547681	-9.684131085072771	-2.020932543119722	-0.6920486791741509	0.3523728679829845	0.3808822192458676	0.1851851851851852	-0.399581589958159	0.6601307189542485
4802.764892578125	-0.1276525648361571	-9.734953453312681	-2.033478743768541	-1.090861274284682	-2.271531808377794	0.7320016630482976	0.1954732510288066	-0.4267782426778242	0.6492374727668846
4822.296142578125	0.3046583688356863	-9.938203520471786	-2.301944400416041	-0.7146546059072888	-1.513976951610055	1.116935702182013	0.1934156378600823	-0.4288702928870293	0.6644880174291939
4841.827392578125	0.2482423977293934	-9.519194570495014	-1.928022759092912	-0.3083099893374026	1.856422342110923	0.395922713987147	0.1769547325102881	-0.4163179916317991	0.6666666666666667
4861.358642578125	-0.02716979426969135	-9.787686497676209	-2.055312588483073	-0.3158518731518299	1.483061757238281	0.3921891081384206	0.1769547325102881	-0.4142259414225941	0.6448801742919391
4880.889892578125	0.2950837697096321	-9.885562422976186	-2.107488899613329	-0.676945186835152	0.3528259727531544	1.135603731425645	0.1790123456790124	-0.4100418410041841	0.6688453159041395
4900.421142578125	0.215416355474513	-9.771495765680017	-1.971269109577741	-0.3233740322561131	0.3634331073905256	1.135709802772018	0.2119341563786008	-0.4163179916317991	0.6405228758169935
4919.952392578125	0.2444756073598356	-9.895873607450794	-2.229722661672679	0.4290097174334567	2.997944918388676	0.7846964303159623	0.168724279835391	-0.4142259414225941	0.6492374727668846
4939.483642578125	-0.09586825028272905	-9.586825028272905	-2.308582762199301	0.06790654139506259	2.240843166391106	1.154483903362024	0.1748971193415638	-0.4205020920502092	0.6710239651416122
4959.014892578125	0.003220161187709426	-9.778993982239161	-2.135382143964728	-0.3233740322561131	0.3634331073905256	1.135709802772018	0.1934156378600823	-0.4142259414225941	0.6427015250544663
4978.546142578125	0.02272199083439268	-9.849013037772856	-2.027576967333835	-0.7448320035200703	-2.634285258613065	0.7283741285459449	0.1851851851851852	-0.4163179916317991	0.673202614379085
4998.077392578125	0.2957961053347765	-9.81432886046175	-2.053415047626305	0.007581333234715798	-1.119175545077585	1.498242206813375	0.1646090534979424	-0.4225941422594142	0.6666666666666667
5017.608642578125	0.3769963041703837	-9.775117057709121	-2.010238415096278	-1.007900552325981	1.835434625221265	0.7730713273842882	0.1851851851851852	-0.4163179916317991	0.6579520697167757
5037.139892578125	0.1846939767253782	-9.813430610290469	-2.185794287716967	-0.6845067953597235	0.7257334528556262	0.384615825094594	0.1769547325102881	-0.4225941422594142	0.6557734204793029
5056.671142578125	0.08470529427337428	-9.711288754480757	-2.272596172660092	-0.3082902646272583	1.110154277135809	1.143177014469471	0.1831275720164609	-0.4288702928870293	0.6601307189542485
5076.202392578125	0.05522066182324921	-9.629448969190234	-2.228394989316027	-0.3535317051587504	-1.503143264587598	1.494402529618275	0.2119341563786008	-0.4184100418410042	0.6492374727668846
5095.733642578125	0.3266932841734858	-9.754914006893854	-2.110741393765585	0.05283263612127998	1.120987964158265	1.520643841905734	0.1810699588477366	-0.4121338912133891	0.6514161220043574
5115.264892578125	0.4381884603831411	-9.716507497039439	-2.087504096308747	-0.692058541529223	0.7255069004705412	0.007255069004705413	0.1810699588477366	-0.4142259414225941	0.6601307189542485
5134.796142578125	-0.1181678917677453	-9.796587156572514	-2.117273663008929	-0.3158420107967578	1.109927724750724	0.7658162583795828	0.1975308641975309	-0.4372384937238493	0.6579520697167757
5154.327392578125	0.04250370270542342	-9.891043870871799	-2.150692813082193	-0.6920388168190788	-0.02076116450457237	0.7545093694870298	0.1872427983539095	-0.4225941422594142	0.6688453159041395
5173.858642578125	0.186035794754019	-9.679248807426392	-1.896243496565194	0.4063939283452467	1.504729131283193	1.147122763010945	0.1748971193415638	-0.405857740585774	0.6514161220043574
5193.389892578125	0.01402341296649484	-9.708769814461629	-2.162065933361093	-0.3158617355069021	1.856195789725838	0.01856195789725838	0.1851851851851852	-0.403765690376569	0.6579520697167757
5212.921142578125	0.001597450529579105	-9.941265048052193	-2.204117984968021	-0.3459996836993952	-0.7566486472273998	1.124508985225839	0.191358024691358	-0.4330543933054393	0.6427015250544663
5232.452392578125	0.1739968174865079	-9.873045524076487	-2.108073924190576	0.02266510086357052	-0.3724543753323019	1.505709418510828	0.1893004115226338	-0.4100418410041841	0.6557734204793029
5251.983642578125	0.1245203088958059	-9.770191332641634	-2.022617898896659	-0.3233740322561131	0.3634331073905256	1.135709802772018	0.1975308641975309	-0.4121338912133891	0.6535947712418301
5271.514892578125	0.174102910026423	-9.862436270084975	-2.057037350060551	-0.2856843378941205	2.976504096728848	0.4071235315333263	0.1728395061728395	-0.4267782426778242	0.636165577342048
5291.046142578125	0.003235317264840157	-9.777478374526089	-1.983791060503151	-0.6845067953597235	0.7257334528556262	0.384615825094594	0.1851851851851852	-0.4184100418410042	0.6557734204793029
5310.577392578125	0.02190053145390703	-9.931158975821422	-2.163005610143199	0.03774886849242525	0.3742667944129817	1.513176630208281	0.1769547325102881	-0.4079497907949791	0.6448801742919391
5330.108642578125	0.1643898853959083	-9.823637723035445	-2.237012734772561	-0.3309159160705404	-0.009927477482116214	1.131976196923292	0.1646090534979424	-0.4205020920502092	0.6535947712418301
5349.639892578125	0.305606128858928	-9.84342751814761	-1.913357738861216	-1.060723326092188	0.3413126285754433	-0.3739453642802834	0.1584362139917695	-0.4246861924686192	0.6557734204793029
5369.171142578125	-0.0985751256582777	-9.85751256582777	-2.110022995709588	0.04528088995178051	1.12076141177318	1.143283085815845	0.1790123456790124	-0.4079497907949791	0.6623093681917211
5388.702392578125	0.02169845042549728	-9.951367078662397	-2.164018036095532	-0.7071028597377893	-1.513750399224969	1.494296458271901	0.1728395061728395	-0.4100418410041841	0.6688453159041395
5408.233642578125	0.1947859032841613	-9.814338964513171	-2.256445856869585	-0.3158222860866136	0.3636596597756105	1.513070558861907	0.1934156378600823	-0.405857740585774	0.6666666666666667
5427.764892578125	0.1037989202426698	-9.822128177753223	-2.207240136856952	-0.3309356407806847	0.7363405874929974	0.3847218964409677	0.1810699588477366	-0.4246861924686192	0.6579520697167757
5447.296142578125	0.2871136939491514	-9.672468988923244	-2.026206857961216	-0.6844969330046514	0.3525994203680694	0.7582429753357562	0.1934156378600823	-0.4142259414225941	0.6579520697167757
5466.827392578125	0.3471014472325868	-9.734299721185776	-2.028698517041509	-0.6392259054079431	1.846494864628807	1.527898910910439	0.191358024691358	-0.4142259414225941	0.6448801742919391
5486.358642578125	0.1242656868000097	-9.795653542221261	-2.549146080849124	-1.083368702245615	-0.03250106106736846	-1.132400482308787	0.1810699588477366	-0.4100418410041841	0.6492374727668846
5505.889892578125	-0.1171726427028273	-9.697062250080711	-2.263802616708842	-0.353581016934111	0.3625268978501856	-0.3737332215875359	0.1707818930041153	-0.4121338912133891	0.6339869281045752
5525.421142578125	0.1362177692253045	-9.610546309792785	-2.196336854969104	-0.7523640249794257	-3.380779875973263	1.098267672938381	0.1707818930041153	-0.4079497907949791	0.6557734204793029
5544.952392578125	0.5286823657153127	-9.758026054731365	-2.017968014432951	-0.2931966346433316	1.483741414393536	1.524271376408086	0.1810699588477366	-0.4225941422594142	0.6557734204793029
5564.483642578125	0.5798927295297703	-9.687494723790651	-1.933121263439689	0.413925949804602	2.251223748643392	0.7772292186185095	0.1604938271604938	-0.4330543933054393	0.6557734204793029
5584.014892578125	0.08492758340462501	-9.689059841355684	-2.069462302092324	-0.3007779678780473	2.602916959471121	0.02602916959471122	0.1790123456790124	-0.4225941422594142	0.6557734204793029
5603.546142578125	-0.3506439276606098	-9.811867513535718	-2.090059410912988	-0.3309257784256125	0.3632065550054406	0.75834904668213	0.1769547325102881	-0.4079497907949791	0.6514161220043574
5623.077392578125	0.1635724676359908	-9.905379499027191	-2.332017088658838	-0.6995708382784341	-0.7672557818647709	1.124402913879466	0.1769547325102881	-0.4246861924686192	0.6448801742919391
5642.608642578125	0.04349288933948917	-9.792125207465228	-2.357858200166735	-0.3384676622400399	-0.0101540298672012	0.7546154408334035	0.1790123456790124	-0.403765690376569	0.6579520697167757
5662.139892578125	0.1647202878773582	-9.790597474890451	-1.962630145613224	-0.7071324468030056	-0.3943483017622991	0.3734150075484148	0.1851851851851852	-0.4309623430962343	0.6492374727668846
5681.671142578125	0.1956114042852151	-9.731788864407786	-2.080592925137133	-0.3384577998849678	-0.383288062354758	1.128242591074566	0.1810699588477366	-0.399581589958159	0.6448801742919391
5701.202392578125	0.416679966124349	-9.847154902716628	-2.063948521232164	-1.376565336888947	1.451240353326168	0.3918708940992994	0.2016460905349794	-0.4184100418410042	0.673202614379085
5720.733642578125	-0.07645533628854609	-9.665735649056632	-2.080010931775313	0.0905321928383447	3.360924921009031	1.165684720908204	0.1810699588477366	-0.4163179916317991	0.6514161220043574
5740.264892578125	0.1045506616683541	-9.746954035184794	-1.759029467869829	-0.714674330617433	-0.767708886634941	0.3696814016996884	0.1769547325102881	-0.4121338912133891	0.6535947712418301
5759.796142578125	0.01402139215621074	-9.708971895490039	-2.182278077822637	-0.6995807006335061	-0.3941217493772142	0.7507757636383033	0.1810699588477366	-0.4267782426778242	0.6623093681917211
5779.327392578125	0.3071975169576548	-9.684288708274931	-2.157910137011847	-1.421826502130583	-0.4157891234221265	-0.004157891234221264	0.1728395061728395	-0.4100418410041841	0.6492374727668846
5798.858642578125	0.1644131247141754	-9.821313791208732	-2.00457307346481	-0.3309159160705404	-0.009927477482116214	1.131976196923292	0.1934156378600823	-0.4121338912133891	0.6644880174291939
5818.389892578125	0.3053696940556885	-9.867070998471553	-2.257976620659789	-0.3384676622400399	-0.0101540298672012	0.7546154408334035	0.1851851851851852	-0.4267782426778242	0.673202614379085
5837.921142578125	0.4600071490205421	-9.554840653501353	-2.038798526841428	-0.3233740322561131	0.3634331073905256	1.135709802772018	0.1769547325102881	-0.4184100418410042	0.6514161220043574
5857.452392578125	0.2555941055429402	-9.794124799241342	-2.133614945371284	-0.654339260102014	2.219175792346193	0.3995502484894997	0.1872427983539095	-0.4330543933054393	0.6579520697167757
5876.983642578125	-0.05813770146834399	-9.854174187238442	-1.695310288396808	-0.3083297140475468	2.602690407086036	-0.3513315864951774	0.1872427983539095	-0.4205020920502092	0.6557734204793029
5896.514892578125	-0.07987555769438118	-10.00775778964014	-1.945631089503395	-0.02259606437806577	-2.239483852080596	1.109680633177307	0.1790123456790124	-0.4163179916317991	0.6427015250544663
5916.046142578125	0.3767487549105817	-9.799871983689316	-2.46602409143334	-0.676955049190224	0.7259600052407112	0.7619765811844826	0.191358024691358	-0.4205020920502092	0.636165577342048
5935.577392578125	-0.01758913271278493	-9.839721352086578	-2.189131655901154	-1.030545928479407	1.461620935578454	0.01461620935578454	0.191358024691358	-0.4142259414225941	0.6557734204793029
5955.108642578125	-0.01617860713448484	-9.698668794256569	-2.222468963157911	-1.068225760486328	-1.524584086247426	1.116829630835639	0.1934156378600823	-0.4205020920502092	0.673202614379085
5974.639892578125	0.1451174177164701	-9.730682470777241	-2.070941535220284	-0.7221866273666441	-2.260471568970253	1.486829246574449	0.1954732510288066	-0.4184100418410042	0.6492374727668846
5994.171142578125	0.4884844075440445	-9.737417831454138	-2.057743623254842	-1.068265209906616	-0.03204795629719848	-0.3776789701290098	0.1769547325102881	-0.4205020920502092	0.6448801742919391
6013.702392578125	0.08505489445252316	-9.676328736565869	-1.806198211116092	0.09049274341805627	4.853461050959258	-0.3288238800564452	0.1893004115226338	-0.4267782426778242	0.6427015250544663
6033.233642578125	-0.1575383281276755	-9.693226752161493	-1.960984195636826	0.01507390527378262	1.11985520223284	-0.3661599385437094	0.2016460905349794	-0.4163179916317991	0.6557734204793029
6052.764892578125	0.05492360271148688	-9.659154880366467	-2.169277194859895	1.972471014421648e-05	-0.7462680649751136	0.7472543004823244	0.1769547325102881	-0.4288702928870293	0.6535947712418301
6072.296142578125	-0.05577537424623397	-9.617941465027439	-2.309737655276663	0.007551746169499472	0.0002265523850849842	0.3773607560898886	0.191358024691358	-0.4100418410041841	0.6623093681917211
6091.827392578125	0.06533380689001532	-9.628235472614634	-2.086819041622438	-1.105964766623681	-2.271984913147964	-0.02271984913147964	0.1790123456790124	-0.4205020920502092	0.6557734204793029
6111.358642578125	0.002803874269185333	-9.82062267409157	-2.258679862638655	-0.7222063520767882	-1.51420350399514	0.7395749460921242	0.1707818930041153	-0.4288702928870293	0.6427015250544663
6130.889892578125	0.2458891641535618	-9.754517928078171	-2.232741752237121	-0.6920289544640067	-0.3938951969921292	1.128136519728192	0.1728395061728395	-0.4288702928870293	0.6448801742919391
6150.421142578125	0.3666810780752078	-9.796538657125698	-2.1528267887422	-0.3007385184577589	1.110380829520894	1.52053777055936	0.1810699588477366	-0.4225941422594142	0.6535947712418301
6169.952392578125	0.2269380053092951	-9.629431792302819	-1.883242613602452	-0.3083395764026189	2.975824439573593	-0.7249587367363396	0.1831275720164609	-0.4121338912133891	0.6557734204793029
6189.483642578125	-0.2977906450851808	-9.577044306497873	-1.734355374300998	-0.3083099893374026	1.856422342110923	0.395922713987147	0.191358024691358	-0.4142259414225941	0.6557734204793029
6209.014892578125	-0.03747794752887286	-9.80840081349335	-2.127158456513593	-0.3535317051587504	-1.503143264587598	1.494402529618275	0.1872427983539095	-0.4121338912133891	0.6710239651416122
6228.546142578125	0.1880626674689688	-9.476561535931408	-1.825482803657234	-0.7071225844479335	-0.7674823342498559	0.7470421577895769	0.1954732510288066	-0.4121338912133891	0.6601307189542485
6248.077392578125	0.3766739849300701	-9.807348981740477	-2.20377242640944	-0.3158518731518299	1.483061757238281	0.3921891081384206	0.1851851851851852	-0.4121338912133891	0.6557734204793029
6267.608642578125	0.112876400038836	-9.924481208237621	-2.323378124694321	-1.075797231365971	-0.7785425736573971	-0.007785425736573971	0.1769547325102881	-0.4205020920502092	0.636165577342048
6287.139892578125	-0.02861770483824723	-9.932477554531797	-2.395899953764872	-0.699560975923362	-1.140389814352328	1.498030064120628	0.1810699588477366	-0.401673640167364	0.6383442265795207
6306.671142578125	0.5787580445552496	-9.800963221242728	-2.171129267485271	-0.3309159160705404	-0.009927477482116214	1.131976196923292	0.1872427983539095	-0.4225941422594142	0.6797385620915033
6326.202392578125	0.2058104337890554	-9.721986924124769	-2.090101847928954	-0.2932459464186921	3.34941157683132	-0.3438643747977246	0.1748971193415638	-0.4121338912133891	0.6579520697167757
6345.733642578125	-0.1404665228476196	-10.00624824435792	-1.915858491587786	-0.3309257784256125	0.3632065550054406	0.75834904668213	0.191358024691358	-0.4100418410041841	0.6405228758169935
6365.264892578125	0.2126963448321177	-10.04349682991955	-1.90408828208806	-0.6844870706495794	-0.02053461211948738	1.131870125576918	0.1810699588477366	-0.3953974895397489	0.6710239651416122
6384.796142578125	0.064829614724133	-9.678654689202867	-2.079244034272498	-0.6844969330046514	0.3525994203680694	0.7582429753357562	0.1810699588477366	-0.4142259414225941	0.6623093681917211
6404.327392578125	0.06270271190012033	-9.891344971604131	-2.140404867925852	-0.3535711545790389	-0.01060713463737117	-0.0001060713463737117	0.1604938271604938	-0.405857740585774	0.6405228758169935
6423.858642578125	0.2055204475132874	-9.750985551701568	-1.96024154785742	-0.3384676622400399	-0.0101540298672012	0.7546154408334035	0.191358024691358	-0.405857740585774	0.6557734204793029
6443.389892578125	0.2049091524023479	-9.812115062795518	-2.013809186868278	-0.6618614192062973	1.099547142498438	1.143070943123098	0.1831275720164609	-0.4121338912133891	0.6492374727668846
6462.921142578125	-0.07766782245900461	-9.786984266102484	-2.08608548748931	-1.075797231365971	-0.7785425736573971	-0.007785425736573971	0.1934156378600823	-0.4142259414225941	0.6427015250544663
6482.452392578125	0.2243968363770424	-9.883548685528082	-2.04748902146819	-0.3233937569662573	1.109701172365639	0.3884555022896942	0.1872427983539095	-0.4246861924686192	0.6557734204793029
6501.983642578125	-0.02837823881958167	-9.90853095266524	-2.020962855273983	-0.3007582431679031	1.856648894496008	0.7732834700770356	0.1748971193415638	-0.403765690376569	0.6579520697167757
6521.514892578125	-0.09665333507810094	-9.665333507810097	-2.080192804700882	-2.121397340409017	-1.183044905286897	1.120245022645244	0.1872427983539095	-0.4372384937238493	0.6514161220043574
6541.046142578125	0.3881319792409031	-9.671650560758186	-1.742327470871763	-1.068225760486328	-1.524584086247426	1.116829630835639	0.1810699588477366	-0.4121338912133891	0.6383442265795207
6560.577392578125	0.3793262984279481	-9.542117631952676	-1.937959083259819	-0.3233838946111852	0.7365671398780824	0.7620826525308564	0.1769547325102881	-0.4100418410041841	0.6405228758169935
6580.108642578125	-0.04686663210879	-9.737168261384053	-2.093387685450897	-0.3233937569662573	1.109701172365639	0.3884555022896942	0.1893004115226338	-0.4079497907949791	0.6535947712418301
6599.639892578125	0.1954133648773735	-9.75159280519194	-2.041181062166379	-0.714674330617433	-0.767708886634941	0.3696814016996884	0.1954732510288066	-0.4225941422594142	0.6579520697167757
6619.171142578125	0.1255347556584229	-9.668746656379938	-1.977131480211908	-0.338477524595112	0.3629800026203556	0.3809882905922413	0.1893004115226338	-0.4205020920502092	0.6492374727668846
6638.702392578125	0.07392831302828214	-9.778885868888963	-1.98315450526366	-0.3158715978619742	2.229329822213395	-0.3550651923439038	0.1728395061728395	-0.4163179916317991	0.6492374727668846
6658.233642578125	-0.188356695365305	-9.744760445621406	-2.12548522559836	-0.6920486791741509	0.3523728679829845	0.3808822192458676	0.1851851851851852	-0.4267782426778242	0.627450980392157
6677.764892578125	0.5489581657008054	-9.750648076384126	-2.249719589838966	-1.782929678168977	-1.172890875419696	0.3656295818118408	0.1872427983539095	-0.4267782426778242	0.6383442265795207
6697.296142578125	0.1667390773511716	-9.588718527509107	-1.972718030551439	-0.3535612922239668	-0.383741167124928	0.3735210788947885	0.2078189300411523	-0.4267782426778242	0.6427015250544663
6716.827392578125	0.224118974962979	-9.911334826934425	-1.796355854627395	-0.3082804022721863	0.7370202446482523	1.516804164710634	0.2016460905349794	-0.4079497907949791	0.6557734204793029
6736.358642578125	0.5287763333935233	-9.748629286910312	-2.088204307072187	-1.053171579922689	0.3415391809605283	0.003415391809605283	0.191358024691358	-0.4205020920502092	0.6470588235294118
6755.889892578125	0.0852418194038022	-9.657636241437968	-1.956776868625335	-0.9928266470521981	2.955289827454106	0.4069113888405788	0.1851851851851852	-0.4142259414225941	0.6339869281045752
6775.421142578125	0.2557123229445599	-9.782303059079371	-1.961305504471998	-0.3460292707646115	0.3627534502352706	0.003627534502352706	0.1975308641975309	-0.405857740585774	0.6775599128540306
6794.952392578125	-0.1482607881133838	-9.775573760833327	-2.096321901983406	0.01509362998392684	0.3735871372577268	0.381094361938615	0.1872427983539095	-0.4121338912133891	0.6470588235294118
6814.483642578125	0.1253862261025417	-9.683599611968054	-2.452623088034347	-0.6995905629885782	-0.02098771688965735	0.3771486133971412	0.1934156378600823	-0.4163179916317991	0.6470588235294118
6834.014892578125	0.1676332859018848	-9.499297672437791	-2.119753197227517	-1.0606838766719	-1.151223501374784	1.120563236684365	0.1872427983539095	-0.397489539748954	0.6492374727668846
6853.546142578125	0.2535581391817119	-9.997721435364168	-2.295330288356189	-1.075767644300755	-1.897944671120067	1.113096024986913	0.1954732510288066	-0.4225941422594142	0.6514161220043574
6873.077392578125	0.3842661691674246	-10.05823156810604	-2.024321441966153	-1.384097358348302	0.7047457359659689	0.7617644384917353	0.1810699588477366	-0.401673640167364	0.6601307189542485
6892.608642578125	0.1249376062194721	-9.728461600275018	-1.88921410799196	-0.6845067953597235	0.7257334528556262	0.384615825094594	0.1851851851851852	-0.4205020920502092	0.6535947712418301
6912.139892578125	0.03353231544917245	-9.778081586395892	-1.983518251114798	-0.6694230277308688	1.47245462260091	0.3920830367920469	0.2016460905349794	-0.4225941422594142	0.6601307189542485
6931.671142578125	0.1765309135827662	-9.619635914450656	-2.014570021940241	0.07545828756456208	2.241069718776191	1.531844659451913	0.1831275720164609	-0.4142259414225941	0.6383442265795207
6951.202392578125	0.05282802244687772	-9.86871290682738	-1.917149789359325	0.06037451993570735	1.494348549030907	1.52437744775446	0.1831275720164609	-0.4163179916317991	0.6427015250544663
6970.733642578125	-0.006680798799226432	-9.758988970831737	-2.174884943398266	-0.3837386898367483	-1.504049474127938	-0.01504049474127938	0.1728395061728395	-0.4142259414225941	0.6601307189542485
6990.264892578125	0.06269563906412599	-9.892052255203565	-2.211147373541254	0.007551746169499472	0.0002265523850849842	0.3773607560898886	0.1954732510288066	-0.4267782426778242	0.6840958605664489
7009.796142578125	0.04380712533866633	-9.760701607547508	-2.245172766699747	-0.3309159160705404	-0.009927477482116214	1.131976196923292	0.1831275720164609	-0.4184100418410042	0.6557734204793029
7029.327392578125	0.5483347457281612	-9.812990073648535	-2.424560095619085	-0.6467579268672983	1.100000247268608	1.897792455302875	0.1728395061728395	-0.4142259414225941	0.6557734204793029
7048.858642578125	0.417591351562477	-9.756016358903828	-2.039180459985122	-1.376565336888947	1.451240353326168	0.3918708940992994	0.1975308641975309	-0.4184100418410042	0.6492374727668846
7068.389892578125	0.09372012895073337	-9.819906296845858	-2.005209628704301	-1.406742734501728	0.3309320463231571	0.003309320463231571	0.1790123456790124	-0.4205020920502092	0.6535947712418301
7087.921142578125	0.06231774754099975	-9.929841407516189	-1.950414347445854	-0.6920289544640067	-0.3938951969921292	1.128136519728192	0.1769547325102881	-0.4142259414225941	0.6514161220043574
7107.452392578125	0.07623304715729537	-9.548412455987638	-2.163526979196496	-0.3082902646272583	1.110154277135809	1.143177014469471	0.1851851851851852	-0.401673640167364	0.6514161220043574
7126.983642578125	0.1049194595452019	-9.710074247500014	-2.110717144042175	-0.3007582431679031	1.856648894496008	0.7732834700770356	0.1810699588477366	-0.4121338912133891	0.6252723311546842
7146.514892578125	0.03351412815661557	-9.779900315651579	-2.16542755126869	-0.338477524595112	0.3629800026203556	0.3809882905922413	0.1872427983539095	-0.403765690376569	0.6427015250544663
7166.046142578125	0.1331734185323116	-9.91498137909208	-2.34290218325413	-1.421806777420439	-1.16205718839724	0.7430964092481032	0.1707818930041153	-0.4142259414225941	0.6383442265795207
7185.577392578125	0.115321580482594	-9.679963163861819	-2.109107568650892	-0.6995708382784341	-0.7672557818647709	1.124402913879466	0.1831275720164609	-0.4205020920502092	0.6448801742919391
7205.108642578125	0.2661932554830317	-9.744310815333195	-2.181523305181527	-1.053161717567617	-0.03159485152702852	0.3770425420507675	0.1851851851851852	-0.4351464435146443	0.6492374727668846
7224.639892578125	0.2956091803834975	-9.833021355589651	-1.902836390117062	-0.3083001269823305	1.483288309623366	0.7695498642283092	0.1707818930041153	-0.4225941422594142	0.6470588235294118
7244.171142578125	0.1540382847156186	-9.848696780963396	-1.733318698625256	-0.3083198516924747	2.229556374598479	0.0222955637459848	0.1769547325102881	-0.4121338912133891	0.6383442265795207
7263.702392578125	0.1747788710664537	-9.794840166081913	-2.36678209838131	0.4214678336190293	2.624584333516034	0.7809628244672359	0.1851851851851852	-0.4351464435146443	0.6448801742919391
7283.233642578125	0.2062883554212444	-9.674194760905863	-2.36043473327896	0.03018725996785367	0.7471742745154536	0.76218872387723	0.1851851851851852	-0.4121338912133891	0.6252723311546842
7302.764892578125	0.1653113748854567	-9.731488774080596	-2.111183951217802	-0.7297679606013598	-1.141296023892668	-0.01141296023892668	0.1810699588477366	-0.4246861924686192	0.636165577342048
7322.296142578125	0.2052122739449625	-9.781802908534056	-2.012290547939779	-0.6845067953597235	0.7257334528556262	0.384615825094594	0.191358024691358	-0.4184100418410042	0.6383442265795207
7341.827392578125	0.2238845609700237	-9.934776226229955	-2.120762591964424	0.7750389881980683	2.635191468153405	0.7810688958136096	0.1954732510288066	-0.4163179916317991	0.6339869281045752
7361.358642578125	0.1949010894703548	-9.802820345893814	-2.114454632662614	-0.6920388168190788	-0.02076116450457237	0.7545093694870298	0.2078189300411523	-0.4267782426778242	0.6470588235294118
7380.889892578125	0.08474874169448239	-9.706944012369947	-1.838035066736906	-1.038077949938762	0.715126318218255	0.3845097537482203	0.1893004115226338	-0.405857740585774	0.6470588235294118
7400.421142578125	0.06272797202867154	-9.88881895874901	-1.887753062156558	-0.7071225844479335	-0.7674823342498559	0.7470421577895769	0.1831275720164609	-0.4079497907949791	0.6230936819172114
7419.952392578125	-0.119050985861896	-9.884896565987576	-1.859071701794362	-1.04561983375319	0.3417657333456133	0.3807761478994939	0.191358024691358	-0.4121338912133891	0.6296296296296297
7439.483642578125	0.268042296892981	-9.559406674338272	-1.869229304687378	-0.323364169901041	-0.009700925097031229	1.509336953013181	0.191358024691358	-0.405857740585774	0.6514161220043574
7459.014892578125	0.1848920161332198	-9.793626669506313	-2.225206150687721	-0.6996102876987225	0.7252803480854563	-0.3701056870851832	0.1954732510288066	-0.4267782426778242	0.6470588235294118
7478.546142578125	0.02391628971229432	-9.729583149982691	-2.203411711773729	0.007551746169499472	0.0002265523850849842	0.3773607560898886	0.1995884773662552	-0.4142259414225941	0.6448801742919391
7498.077392578125	0.02367985490905491	-9.753226630306632	-2.548030593572302	-0.6844870706495794	-0.02053461211948738	1.131870125576918	0.2016460905349794	-0.4184100418410042	0.6427015250544663
7517.608642578125	0.3874731950882873	-9.737528976019764	-2.270880504728893	-1.429348661234866	-1.535417773269882	0.7393628033993768	0.2078189300411523	-0.4163179916317991	0.6601307189542485
7537.139892578125	0.3166983565083393	-9.744305763307485	-2.080007900559887	-0.6920289544640067	-0.3938951969921292	1.128136519728192	0.205761316872428	-0.4205020920502092	0.636165577342048
7556.671142578125	0.3653756346316808	-9.927083001478398	-2.078558979586189	-1.053161717567617	-0.03159485152702852	0.3770425420507675	0.1934156378600823	-0.4184100418410042	0.6492374727668846
7576.202392578125	0.1041444788012505	-9.787572321895155	-1.781266464236038	-0.962688698859705	5.568134264407344	-0.6990356384880021	0.1872427983539095	-0.403765690376569	0.6535947712418301
7595.733642578125	-0.180960529725508	-10.01524489174272	-1.886410233722775	0.4365614636029562	2.998171470773761	1.162057186405851	0.1893004115226338	-0.4121338912133891	0.6405228758169935
7615.264892578125	0.0944334749810198	-9.748571693817214	-1.941029704486505	-0.3535415675138225	-1.130009232100041	1.120775379377113	0.1872427983539095	-0.4184100418410042	0.6535947712418301
7634.796142578125	0.0938120758186598	-9.810711610053215	-2.09565806580508	-1.038077949938762	0.715126318218255	0.3845097537482203	0.2016460905349794	-0.405857740585774	0.6405228758169935
7654.327392578125	-0.06920264817892004	-9.950567848195037	-2.265897186568309	-0.02261578908820999	-1.493215787105482	0.3624263326949829	0.1872427983539095	-0.4100418410041841	0.6383442265795207
7673.858642578125	0.09077984998737144	-10.11393419318205	-2.120950527320845	-0.7146546059072888	-1.513976951610055	1.116935702182013	0.1769547325102881	-0.4205020920502092	0.636165577342048
7693.389892578125	0.2880240689821374	-9.58143148562465	-2.011544868944947	0.05283263612127998	1.120987964158265	1.520643841905734	0.1831275720164609	-0.4142259414225941	0.6448801742919391
7712.921142578125	0.2153042005037456	-9.782711262756759	-2.082942117092397	-0.3158518731518299	1.483061757238281	0.3921891081384206	0.1810699588477366	-0.4142259414225941	0.6383442265795207
7732.452392578125	0.2064156664691426	-9.661463656116048	-2.097170642302727	-0.3007779678780473	2.602916959471121	0.02602916959471122	0.1728395061728395	-0.4184100418410042	0.6579520697167757
7751.983642578125	-0.2877310514909432	-9.581185957175132	-2.128401254838313	0.0452710275967084	1.493895444260737	0.7696559355746829	0.168724279835391	-0.4142259414225941	0.6644880174291939
7771.514892578125	0.06500643562399153	-9.660972599217013	-2.33088341408946	0.007601057944860016	-1.865443610052699	2.2454965072957	0.1893004115226338	-0.4163179916317991	0.6470588235294118
7791.046142578125	-0.04707376516290999	-9.757881566796051	-2.144930472557089	-1.120999222477175	-4.884376245331032	1.837948690376878	0.191358024691358	-0.397489539748954	0.6470588235294118
7810.577392578125	0.5071748818616627	-9.88857241989435	-1.984306367125596	-0.7297186488259992	-3.006966186330451	1.856722790966884	0.1790123456790124	-0.4079497907949791	0.6557734204793029
7830.108642578125	0.2879523302170519	-9.588605362133196	-1.718974987228732	-1.474629551186647	-2.656179185043062	-0.4039202824164684	0.1810699588477366	-0.3933054393305439	0.6492374727668846
7849.639892578125	-0.1961792519750465	-9.516915096494554	-1.578817648354579	-1.805545467257187	-2.666106662525178	0.7280559145068237	0.191358024691358	-0.4372384937238493	0.6405228758169935
7869.171142578125	0.1052549140523621	-9.676528796783996	-1.785804193728979	-1.128541106291602	-5.257736830203673	1.834215084528152	0.1975308641975309	-0.4142259414225941	0.6514161220043574
7888.702392578125	0.19500718201027	-9.792211091902303	-2.063418058532589	-0.3836992404164599	-2.996585604078166	1.479468106223369	0.1934156378600823	-0.405857740585774	0.6448801742919391
7908.233642578125	0.2262256696841507	-9.700665354817255	-1.937316465589476	-0.3460194084095394	-0.01038058225228618	0.3772546847435149	0.1934156378600823	-0.4163179916317991	0.6318082788671024
7927.764892578125	0.04597646517864503	-9.543767623549639	-1.759556899353979	0.05280304905606366	2.240390061620936	0.3997623911822471	0.1954732510288066	-0.401673640167364	0.6296296296296297
7947.296142578125	0.206237835164142	-9.679246786616106	-1.855637334716538	1.113555962213469	0.779675335582822	1.894589206186017	0.1831275720164609	-0.401673640167364	0.6318082788671024
7966.827392578125	0.2282303134859755	-9.500200974634781	-2.088889361758496	1.8508855313394	1.548063879373018	2.656990072755995	0.1810699588477366	-0.4288702928870293	0.6470588235294118
7986.358642578125	-0.01582900695533598	-9.663708776341682	-1.75607100161391	1.436929994469582	0.4162422281922964	0.7588794034139985	0.1934156378600823	-0.4246861924686192	0.6535947712418301
8005.889892578125	0.2835429221771511	-10.02954616612328	-1.377429757872271	5.41672516296721	4.640113695187523	1.178476608649988	0.2181069958847737	-0.4393305439330544	0.6165577342047931
8025.421142578125	-0.1394864298598323	-9.908238945579187	-1.203877518648265	4.957577497341259	-0.9706756601543891	1.499727205662607	0.1893004115226338	-0.4267782426778242	0.6448801742919391
8044.952392578125	0.05349590024577196	-9.801925126937958	-1.297642105425248	9.411663273224125	7.371902137002695	3.847303927030405	0.1851851851851852	-0.4288702928870293	0.6252723311546842
8064.483642578125	-0.2800519724113726	-9.823379059319079	-1.079828058548653	11.06640065125798	1.451395004612366	4.165457346272539	0.191358024691358	-0.4330543933054393	0.6209150326797386
8084.014892578125	0.1958084332879146	-9.712085964137835	-1.120009850237649	12.44292653872664	1.492690781236426	2.279077851208591	0.1872427983539095	-0.4351464435146443	0.6100217864923748
8103.546142578125	0.2233712751578629	-9.986104807446033	-1.19404122459042	14.27865926595168	4.905971718277058	2.313210660578997	0.1872427983539095	-0.4476987447698744	0.5991285403050109
8123.077392578125	0.4155574060115328	-9.959410913998246	-1.170582648407474	17.96523807509583	11.35985266464094	3.509824941740749	0.1995884773662552	-0.4748953974895397	0.5838779956427016
8142.608642578125	0.4280359095158351	-9.72166157366903	-0.6030148408004143	21.65178729717477	18.93313570846748	3.585557772179015	0.2160493827160494	-0.4581589958158995	0.5642701525054467
8162.139892578125	0.6621669890313752	-9.540876854438238	-0.2380989405083657	27.79825083367812	25.83394752501034	3.654565890344443	0.205761316872428	-0.4623430962343096	0.5708061002178649
8181.671142578125	-0.2213706729766064	-10.01585517644852	-0.008056970602696879	31.70260743932133	27.07048120825426	3.289572736610845	0.191358024691358	-0.4769874476987447	0.5577342047930284
8201.202392578125	0.1086832186993336	-10.34379934218786	0.1808665620472975	38.31488286527615	21.67183454565978	3.612944760550937	0.2139917695473251	-0.4916317991631799	0.533769063180828
8220.733642578125	0.5607657601907872	-10.59009064758796	0.6983253474447325	46.53757133814255	24.53045549835323	5.528323422908061	0.1975308641975309	-0.5292887029288702	0.5206971677559913
8240.264892578125	0.3195961984557352	-10.46462257866891	0.6415809946672738	55.49847690247883	46.06793938170123	8.007849205137768	0.2160493827160494	-0.5376569037656903	0.5315904139433552
8259.796142578125	-1.006575706560402	-10.7585807570503	0.9166516697283461	55.04696974421803	37.09917028635639	12.06910491041073	0.2139917695473251	-0.5523012552301255	0.5119825708061002
8279.327392578125	-0.9740285361247272	-10.53416674378584	1.200925114823199	58.4536113298844	11.82823520556817	13.325829521867	0.2119341563786008	-0.5774058577405857	0.5098039215686275
8298.858642578125	0.06696257997899793	-10.47545917381738	1.072856263068517	60.77017067770425	6.300717060629636	11.00640339702139	0.2283950617283951	-0.608786610878661	0.485838779956427
8318.389892578125	0.2516282653603987	-10.19070881749548	0.6242939730919614	65.19403960655406	15.01552268073393	11.47090994378847	0.2304526748971193	-0.6380753138075314	0.4836601307189543
8337.921142578125	-0.7976299856155694	-10.06602886458723	0.892762660954887	66.39054642837115	20.27529848240338	13.03294166406932	0.2489711934156379	-0.6652719665271966	0.4945533769063181
8357.452392578125	-1.253568233129081	-10.20530816139295	1.20447163687179	65.37417702046648	5.319434265837875	12.50602453133762	0.2222222222222222	-0.6757322175732217	0.485838779956427
8376.983642578125	-0.5596795746630848	-10.51341201176302	1.074793209725825	67.27688931732231	-5.44437988764451	12.3983863898028	0.2304526748971193	-0.7154811715481171	0.4814814814814815
8396.514892578125	-0.6207706903616373	-10.56191752101221	1.15256510391446	67.62293831279709	-6.553401402854893	13.14201315578277	0.2510288065843622	-0.7301255230125523	0.4923747276688454
8416.046142578125	-0.4089715852956589	-10.59412822653558	1.385395792012184	70.27902050523718	-0.5035696833503474	16.22137939750612	0.2633744855967078	-0.7552301255230125	0.5010893246187365
8435.577392578125	-0.8500851685650311	-10.26104210902836	1.488548052963943	72.12988631186644	1.790762260997784	18.13111516977979	0.2366255144032922	-0.7782426778242677	0.5119825708061002
8455.108642578125	-1.123006711888966	-10.28046916869453	2.03030203000194	69.8727449251528	-6.485907204484221	19.55778243738912	0.2469135802469136	-0.8284518828451882	0.5163398692810458
8474.639892578125	-0.7217546218785593	-10.5593005716943	2.222393182772257	69.63892680219541	-17.313817270561	18.69478635559628	0.2469135802469136	-0.8200836820083681	0.5228758169934641
8494.171142578125	-0.2544573997581353	-10.29422482429838	2.391835093878409	72.07624505224177	-20.22577234992528	19.79774227650075	0.2386831275720165	-0.8347280334728032	0.5468409586056645
8513.702392578125	-0.2969651440841269	-10.5045952164935	2.481901597835494	74.67947488385043	-14.55066052960389	20.60921037583604	0.2489711934156379	-0.8535564853556484	0.5599128540305012
8533.233642578125	-0.3875358402070943	-10.47075573788114	2.654405036522054	77.27514310693455	-8.502641229180025	20.66969056884028	0.2551440329218107	-0.8493723849372384	0.5708061002178649
8552.764892578125	-0.03345451425323467	-10.41615849603054	2.761685812884224	79.55495945686683	-0.9715601715178758	21.12235986998294	0.2325102880658436	-0.8828451882845187	0.6034858387799565
8572.296142578125	-0.8514451738862288	-10.39704264114812	3.037289981860298	79.62283641119667	2.3886850923359	21.15596232262147	0.2489711934156379	-0.8744769874476986	0.6187363834422659
8591.827392578125	-1.255088892867864	-10.35737413527129	3.166550101277455	79.53234366777862	-2.464775958623358	21.48478620267792	0.2427983539094651	-0.8870292887029287	0.6710239651416122
8611.358642578125	-1.109718873865882	-9.961786376487204	3.622126623750113	80.0886680253583	-10.65704145177656	22.15758052887846	0.2407407407407408	-0.8807531380753137	0.6623093681917211
8630.889892578125	-0.7648595156435017	-9.819284897683497	3.4104780690503	81.7811444095295	-15.83014775726635	23.61528342808771	0.2181069958847737	-0.8891213389121339	0.6840958605664489
8650.421142578125	-0.559310776786237	-9.466431213977227	3.753408563856509	82.64670572821085	-9.460897335616362	25.18840989456837	0.2283950617283951	-0.8577405857740585	0.7102396514161221
8669.952392578125	-0.987887253053068	-9.89983641641791	4.00017981169908	80.85620457916224	-9.88774669844603	24.42942441980799	0.2181069958847737	-0.8577405857740585	0.7298474945533769
8689.483642578125	-0.782580001024753	-9.571131415606606	3.947961063552857	81.21731761755571	-9.503778978936015	24.43326409700309	0.2222222222222222	-0.8661087866108785	0.758169934640523
8709.014892578125	-1.023491909448583	-9.419898015565314	4.448063109420179	80.54032311894517	-7.285282843745078	23.70073207722293	0.2016460905349794	-0.8577405857740585	0.766884531590414
8728.546142578125	-0.9896696077236421	-9.067970873374303	4.354886578435868	79.1033931244756	-7.701525071937373	22.94185267380893	0.1995884773662552	-0.8389121338912133	0.8169934640522877
8748.077392578125	-1.007813452859412	-8.862153366749252	4.698329348649096	76.9367148941148	-10.00533138899745	22.91881461063833	0.2037037037037037	-0.8493723849372384	0.8562091503267975
8767.608642578125	-1.016669653929469	-8.737672463653988	5.007495134823461	76.2295429978915	-8.907143560809523	21.79772101722209	0.1872427983539095	-0.8263598326359832	0.8540305010893247
8787.139892578125	-1.124904252745733	-8.450021234169263	5.273320602834787	77.07998109952369	-1.792078178954587	21.86887167104064	0.2139917695473251	-0.805439330543933	0.8758169934640524
8806.671142578125	-1.161542553601564	-8.073447279348258	5.483702109486472	77.83237471156833	0.4692995995560058	21.89148544882575	0.1954732510288066	-0.809623430962343	0.9193899782135078
8826.202392578125	-1.505507703273231	-8.126527903080646	5.548315497510206	78.26894603752638	3.09433703784221	23.42716978547276	0.191358024691358	-0.7552301255230125	0.9477124183006537
8845.733642578125	-1.584534520648291	-7.948401559778587	6.031179021249033	81.12021982444254	1.314203609658649	26.42823637571923	0.168724279835391	-0.7719665271966527	0.962962962962963
8865.264892578125	-2.058277117169844	-7.84791373718641	6.041566996514437	79.78137376898081	4.259112854860469	27.21240244930332	0.1872427983539095	-0.7447698744769874	0.9803921568627452
8884.796142578125	-2.016797965278458	-7.740402588451853	5.764529062641795	78.07294581954693	-9.971244461234489	26.69274038557634	0.1604938271604938	-0.7259414225941422	1.006535947712418
8904.327392578125	-1.428723985313519	-7.518863177816525	5.862294853781292	77.59871438629212	-16.32875498632169	27.0065237708915	0.1646090534979424	-0.7092050209205021	1.010893246187364
8923.858642578125	-1.272690150442354	-7.066994842215184	5.906650629112091	76.66621294740027	-10.01344644739889	27.06967685628073	0.1502057613168724	-0.6861924686192468	1.045751633986928
8943.389892578125	-1.542897745554746	-6.815027080727058	6.320587345275777	74.2967913763939	-4.487514169155944	26.74757768849712	0.154320987654321	-0.6589958158995816	1.054466230936819
8962.921142578125	-1.388581599425063	-6.534927619274009	6.356337500011747	71.40028601130132	-5.693812315183349	24.47136376364062	0.1378600823045268	-0.6297071129707112	1.095860566448802
8982.452392578125	-1.803354931046366	-6.598119367262881	6.27832310858902	68.1427169195906	-9.149748343158551	24.05944591279483	0.1440329218106996	-0.612970711297071	1.106753812636166
9001.983642578125	-1.355148303679812	-6.221901075051875	6.412727200584347	64.46366026955074	-14.48400063967467	22.11931093699948	0.1584362139917695	-0.5815899581589957	1.087145969498911
9021.514892578125	-1.250714849007935	-5.879565708874332	6.511696384248023	61.26638679893517	-13.46051585871851	20.24275333197885	0.1522633744855967	-0.5732217573221757	1.14161220043573
9041.046142578125	-1.088405387799506	-5.810235749647514	6.698604158639631	58.49809345868785	-8.319684061911005	18.0300107065507	0.1460905349794239	-0.5627615062761506	1.135076252723312
9060.577392578125	-1.348739303863796	-5.581001093450342	6.879179724006018	56.82074029156579	-3.892392716626161	18.07428362000355	0.154320987654321	-0.5251046025104602	1.152505446623094
9080.108642578125	-1.752386054060858	-5.541635709116122	6.978121626730859	53.9619542079004	-3.605021970777913	16.19036487463184	0.1522633744855967	-0.50836820083682	1.159041394335512
9099.639892578125	-1.616932151122943	-5.12755854663769	7.242604266308402	52.11864014744065	-5.89912736274096	14.65798985844806	0.1563786008230453	-0.4769874476987447	1.176470588235294
9119.171142578125	-1.264771605344118	-5.265039322290556	7.330160923892638	51.07300058897731	-4.811093564420233	14.29151170586523	0.139917695473251	-0.4686192468619246	1.191721132897604
9138.702392578125	-1.28242843520142	-5.010520287818756	7.494225458832807	48.65830799037424	-0.7790567304380265	13.19975660250694	0.154320987654321	-0.4769874476987447	1.178649237472767
9158.233642578125	-1.817339948617463	-4.966318094069549	7.81431877661843	48.05676191697322	4.05364315601666	13.62544209193753	0.1316872427983539	-0.4267782426778242	1.215686274509804
9177.764892578125	-1.826423490844482	-4.86457130667038	7.869820331071169	46.61983192250364	3.637400927824363	12.86656268852353	0.1440329218106996	-0.4121338912133891	1.224400871459695
9197.296142578125	-1.771856561148138	-4.458383387541065	8.193705699354901	47.22891001736402	-0.4488043412701243	12.07098365470051	0.1378600823045268	-0.3765690376569037	1.222222222222222
9216.827392578125	-1.97979086654578	-4.03969271518404	8.232762910120796	45.75428046617737	-3.104983526313187	11.66706337228404	0.1440329218106996	-0.3723849372384937	1.233115468409586
9236.358642578125	-1.759206288769688	-4.203457159797019	8.45910376599114	45.36301961723634	-5.72866165028888	12.39554357217636	0.1419753086419753	-0.3556485355648535	1.230936819172114
9255.889892578125	-1.444322619896468	-4.028221585606359	8.430610340985366	45.48370948297732	-0.5011603573017251	13.20253556623831	0.1584362139917695	-0.3451882845188284	1.24400871459695
9275.421142578125	-1.675758948898164	-3.939531253452745	8.755962817535352	45.16029600130092	1.354808880039028	12.84373676804567	0.1296296296296297	-0.3284518828451883	1.261437908496732
9294.952392578125	-1.754653403199616	-3.748168602789844	8.542519783303261	44.83690224433466	2.464510052404667	13.23219227033537	0.1213991769547325	-0.3138075313807531	1.281045751633987
9314.483642578125	-1.821718034097961	-3.383924621917258	8.469152245128816	43.72337586918641	0.5654326193591745	12.45848451487284	0.1378600823045268	-0.2740585774058577	1.270152505446623
9334.014892578125	-1.934503497674012	-3.551359868411302	8.671773840289564	42.20346542804798	-3.211507977457068	10.91128114664052	0.1378600823045268	-0.2635983263598326	1.263616557734205
9353.546142578125	-1.74981255216406	-3.26408349923428	8.475863356082304	42.51177541738538	-5.067930319567991	10.51535843265338	0.1316872427983539	-0.2552301255230126	1.28322440087146
9373.077392578125	-1.061895388087572	-3.159235778454164	8.215257641034801	42.63995785516543	2.39860172072959	9.45794828135824	0.1193415637860082	-0.2447698744769874	1.28322440087146
9392.608642578125	-1.564402198192969	-2.904866283943387	8.404769229477468	41.74522500947615	8.341908989090255	11.78153229743807	0.139917695473251	-0.2301255230125523	1.291938997821351
9412.139892578125	-1.927139664998761	-2.814976600886161	8.587454520780453	40.27059545828951	5.685729804047193	11.3776120150216	0.1255144032921811	-0.1945606694560669	1.289760348583878
9431.671142578125	-1.843925728715051	-2.574391053323212	8.570012907218407	40.22534415540294	3.445566294811342	11.35521037992925	0.1275720164609054	-0.1589958158995816	1.289760348583878
9451.202392578125	-1.549645231093347	-2.439270584082173	8.529206685151626	37.76542984097853	4.118037522095028	11.36193509220208	0.1234567901234568	-0.1506276150627615	1.28322440087146
9470.733642578125	-1.658632581740437	-2.226894537680085	8.336715411945057	36.66698723345912	2.965681258794819	10.59569454843701	0.1234567901234568	-0.1527196652719665	1.305010893246187
9490.264892578125	-1.709139703576029	-2.227101670734204	8.214987862861875	35.23760898515905	2.549665582987607	10.2141759011129	0.1234567901234568	-0.1108786610878661	1.318082788671024
9509.796142578125	-2.211726335687648	-1.980714376845613	8.616220755174581	31.5887494574421	-2.410546471500618	9.409856799435937	0.1090534979423868	-0.104602510460251	1.287581699346405
9529.327392578125	-1.708195985173356	-2.132729830466849	8.563150235493612	29.63232686447608	-11.0513287015284	8.568731996003585	0.1049382716049383	-0.100418410041841	1.309368191721133
9548.858642578125	-1.797465279473364	-1.968750169558613	8.620961576101074	27.46564863411528	-13.35513501858848	8.545693932832984	0.1152263374485597	-0.0899581589958159	1.309368191721133
9568.389892578125	-1.664974894817077	-1.851024835243085	8.537263655754323	26.77359009258606	-12.62962811811794	8.552949001837689	0.1378600823045268	-0.07740585774058577	1.311546840958606
9587.921142578125	-1.288168546813399	-1.544127408612619	8.667487701676993	24.42679417302298	-5.983614085257073	8.242050651600261	0.1358024691358025	-0.06485355648535564	1.30718954248366
9607.452392578125	-1.442404870936859	-1.816244669443483	8.420016243070984	24.47958735972397	-3.370089991148579	8.268185892541345	0.1358024691358025	-0.03347280334728033	1.309368191721133
9626.983642578125	-1.589437006397512	-1.367943063993575	8.511668072695944	22.77206665734419	-0.436240985354301	8.297524382599288	0.1131687242798354	-0.05857740585774058	1.313725490196079
9646.514892578125	-1.459166481838306	-1.472203739386162	8.447151683565846	20.25179754769421	-2.004386372076636	7.527125947599989	0.154320987654321	-0.03765690376569037	1.324618736383442
9666.046142578125	-1.698616334021591	-1.174764715290414	8.419225095844761	17.70138062749667	-5.812242163264653	7.489047389688109	0.1255144032921811	-0.02928870292887029	1.320261437908497
9685.577392578125	-1.518010456500942	-1.295995145043709	8.778605996768665	14.72193426515552	-11.87177480786623	5.919018100977942	0.1337448559670782	0.002092050209205021	1.315904139433551
9705.108642578125	-1.265880019784945	-1.335476725969265	8.365011807948132	13.00686181660624	-8.938152354457038	5.570995834945996	0.1213991769547325	0	1.326797385620915
9724.639892578125	-1.224378638980434	-1.2257426859222	8.310307463152471	12.05173472627111	-3.742925570152165	5.622948102789045	0.1604938271604938	0.02301255230125523	1.313725490196079
9744.171142578125	-1.284047104238982	-1.131983151170927	8.476014916853611	9.245791141082082	-2.707700892633209	5.633300349564235	0.1584362139917695	0.03138075313807531	1.311546840958606
9763.702392578125	-1.695167821271779	-0.8299134403091696	8.567815276034452	6.402118412110775	-2.793011074502349	4.877730266613468	0.1502057613168724	0.02301255230125523	1.320261437908497
9783.233642578125	-1.686473285024449	-0.9705608256772158	8.661879953138623	4.935060331803771	-6.19523177213544	5.598425040769212	0.1522633744855967	0	1.326797385620915
9802.764892578125	-1.425092589232996	-1.095117509158136	8.850185117841685	3.483095881480696	-9.223865332510805	6.700214176863572	0.139917695473251	0.02928870292887029	1.309368191721133
9822.296142578125	-1.336112270803613	-1.287994757128967	8.932340149536527	3.137086335426228	-9.607379947250646	7.451096011848249	0.1460905349794239	0.002092050209205021	1.331154684095861
9841.827392578125	-1.382061455043423	-0.8324081306048879	8.944558978919323	2.874017786620317	-5.137660063416316	7.495793210686593	0.1481481481481482	0.01673640167364017	1.289760348583878
9861.358642578125	-1.300560155475485	-0.7630862546192063	8.969042105916307	1.850984154890121	-2.18327644550255	6.393261575167617	0.1316872427983539	0.01673640167364017	1.318082788671024
9880.889892578125	-1.221669742794601	-0.9548530673389257	9.142060851225311	1.850944705469833	-0.690740315552323	4.898752974202968	0.1502057613168724	0.01882845188284519	1.320261437908497
9900.421142578125	-1.078075005627199	-0.7367934920128132	9.01298563594915	1.121166882513401	-1.458902306957434	4.513712863722879	0.1707818930041153	0.008368200836820083	1.313725490196079
9919.952392578125	-1.403555803630226	-0.9616409690832094	9.109599565226711	-1.083260216339822	-4.136975418430493	2.977498170343997	0.1522633744855967	0	1.305010893246187
9939.483642578125	-1.332650622786954	-0.9418299554630591	9.212309268726251	-1.391570205677224	-2.28055307631957	3.373420884331144	0.1625514403292181	0.02092050209205021	1.305010893246187
9959.014892578125	-1.453855792411698	-0.9411347967253296	9.039414803249718	-2.843613554840877	-2.32411437679448	1.486192818496206	0.1604938271604938	0.02719665271966527	1.313725490196079
9978.546142578125	-1.38220796378902	-0.8470590051645952	9.499380525659436	-4.303198787818958	-2.741036262142031	-0.4047688531874581	0.168724279835391	0.01673640167364017	1.300653594771242
9998.077392578125	-1.149460128912944	-0.8045987498802797	9.16039667333807	-3.95718924176449	-2.357521647402189	-1.155650688172135	0.1625514403292181	0.02301255230125523	1.302832244008715
10017.60864257812	-1.090055379396471	-0.9247298588390259	9.387307397708529	-2.813485469003456	0.6618640926463142	0.006618640926463143	0.1769547325102881	0.02092050209205021	1.311546840958606
10037.13989257812	-1.525422788623012	-1.027127347149674	9.387934859301742	-2.474968494988055	-1.193652039924268	1.120138951298871	0.1707818930041153	0.006276150627615062	1.32244008714597
10056.67114257812	-1.504007251637288	-0.905775668779333	9.444721649095166	-2.535333152568691	-3.061134621442732	-0.03061134621442732	0.1748971193415638	0.02510460251046025	1.315904139433551
10076.20239257812	-1.342933515917584	-0.9600182584250789	9.393115206465026	-2.204407374143078	-3.424341176448173	-0.7889603928965573	0.1666666666666667	0.0104602510460251	1.313725490196079
10095.73364257812	-1.442103770204529	-0.7760335861094191	9.411423747638949	-2.505195204376198	-0.4482901844894949	-1.136558373543008	0.1666666666666667	0.002092050209205021	1.320261437908497
10115.26489257812	-1.424219599190266	-1.007818504885122	9.501023444420408	-2.843682591326382	0.2878238506184175	-1.129197233191929	0.1872427983539095	0.0104602510460251	1.298474945533769
10134.79614257812	-1.514309342465618	-0.9258837415112456	9.433512214449278	-3.189731586801138	1.396845365828802	-1.872823999171901	0.1810699588477366	0.01673640167364017	1.289760348583878
10154.32739257812	-1.698094964968294	-1.122627809960697	9.59355432651895	-3.581012160452314	-0.4805646931717784	-1.891598099761907	0.1584362139917695	0.01255230125523012	1.32244008714597
10173.85864257812	-1.234159360755466	-1.193713853324396	9.473427259180772	-1.4067525968568	0.7040660788107139	-0.3703178297779307	0.1563786008230453	-0.02510460251046025	1.313725490196079
10193.38989257812	-1.474897479494863	-1.025101484839867	9.691571708538817	-1.02300404466498	1.834981520451096	0.01834981520451096	0.1666666666666667	0.02510460251046025	1.287581699346405
10212.92114257812	-1.576200699036673	-1.054413338010701	9.588082982674756	-1.384117083058446	1.451013800941082	0.01451013800941083	0.1728395061728395	0.02301255230125523	1.315904139433551
10232.45239257812	-1.483915345387649	-0.9167870640173805	9.393866947890711	-1.429397973010226	0.3302523891679021	-1.128772947806434	0.1872427983539095	0.02092050209205021	1.300653594771242
10251.98364257812	-1.615691373608507	-0.9630767547900608	9.551850864686029	-1.045639558463334	1.088033798320727	-0.3664781525828305	0.1563786008230453	0.0104602510460251	1.318082788671024
10271.51489257812	-1.516428162048494	-1.137765699798872	9.453199958642099	-1.429388110655154	-0.04288164331965463	-0.7551457975652721	0.1666666666666667	0.002092050209205021	1.30718954248366
10291.04614257812	-1.484112374390348	-0.9364899642873314	9.443384883092236	-1.820678546661402	-1.547157669832678	-1.14754704839644	0.1934156378600823	0.02092050209205021	1.298474945533769
10310.57739257812	-1.303029585642652	-1.010029271335925	9.522326826435364	-1.467107392082363	-1.536550535195307	-1.147440977050066	0.1790123456790124	0.004184100418410041	1.315904139433551
10330.10864257812	-1.708599136825033	-1.162943985533585	9.581332465920729	-1.04561983375319	0.3417657333456133	0.3807761478994939	0.1707818930041153	0.004184100418410041	1.315904139433551
10349.63989257812	-1.605024526523898	-0.9064930564301876	9.170948334236485	-0.3460194084095394	-0.01038058225228618	0.3772546847435149	0.1851851851851852	0.0104602510460251	1.315904139433551
10369.17114257812	-1.464707543637302	-1.016208909184695	9.59110813567005	0.0226355137983542	0.7469477221303685	0.3848279677873415	0.1728395061728395	0.008368200836820083	1.302832244008715
10388.70239257812	-1.424409555356971	-1.026814121555639	9.621283885237336	-0.361093313683322	-1.130235784485127	0.7434146232872243	0.1748971193415638	0.01255230125523012	1.318082788671024
10408.23364257812	-1.212052706652581	-1.00325046323792	9.372060384115015	0.3385071116603284	-1.482382100083026	0.7398931601312453	0.1707818930041153	0.006276150627615062	1.302832244008715
10427.76489257812	-1.52472156745443	-0.9570052302914897	9.330841916750277	0.01510349233899894	0.0004531047701699683	0.7547215121797772	0.1851851851851852	-0.01255230125523012	1.309368191721133
10447.29614257812	-1.363122421060861	-0.9587067525506997	9.483887983616404	0.3611426254586826	-0.7354343779526574	1.124721127918587	0.1666666666666667	0.01464435146443514	1.311546840958606
10466.82739257812	-1.505553171504623	-1.060367655512794	9.133946287529518	-0.3912608489410315	-2.623678123975694	0.7284801998923186	0.1707818930041153	0.01882845188284519	1.30718954248366
10486.35864257812	-1.547342517774618	-1.198898242108249	9.338723076858257	-0.04521185346627575	-3.732699639186078	1.47210696587229	0.1810699588477366	0.01255230125523012	1.313725490196079
10505.88989257812	-1.123262344389904	-1.215123327879267	9.574475856626785	0.6468269633528031	-3.711938474681506	0.7175975963852604	0.1728395061728395	0.03138075313807531	1.30718954248366
10525.42114257812	-1.393243608750476	-0.940522491209248	9.221869722180317	0.3385071116603284	-1.482382100083026	0.7398931601312453	0.1769547325102881	0.008368200836820083	1.305010893246187
10544.95239257812	-1.233043873478644	-1.082165125642213	9.519419890841691	0.3460391331196837	-0.7358874827228274	0.3699996157388095	0.1790123456790124	0.01255230125523012	1.305010893246187
10564.48364257812	-1.483438434160602	-0.8690959413126788	9.113427990309933	0.7146841929725051	0.3945748541473841	0.003945748541473841	0.1831275720164609	0.006276150627615062	1.318082788671024
10584.01489257812	-1.375226064257463	-1.158970062109907	9.635369943322639	0.3460292707646115	-0.3627534502352706	-0.003627534502352706	0.1707818930041153	-0.0104602510460251	1.318082788671024
10603.54614257812	-1.603186599570511	-0.7227003610915169	9.372075540192144	0	0	0	0.1831275720164609	0.0104602510460251	1.326797385620915
10623.07739257812	-1.495440026437857	-1.059154158937194	9.275522235223107	0.3535908792891831	-0.7356609303377424	0.7473603718286981	0.1666666666666667	0.004184100418410041	1.309368191721133
10642.60864257812	-1.403356753817243	-0.9417359877848487	9.080293774486728	-0.3912608489410315	-2.623678123975694	0.7284801998923186	0.1769547325102881	-0.004184100418410041	1.315904139433551
10662.13989257812	-1.324670442975053	-1.153912984373954	9.232087949381857	-0.007522159104283147	-1.119628649847755	0.7435206946335979	0.1790123456790124	0.008368200836820083	1.326797385620915
10681.67114257812	-1.182069944467426	-1.03527727502544	9.259647760036378	0.3460588578298279	-1.482155547697941	1.117253916221134	0.1831275720164609	0.01882845188284519	1.285403050108933
10701.20239257812	-0.808190740160263	-1.021094218046501	9.405509846342538	-1.053161717567617	-0.03159485152702852	0.3770425420507675	0.1790123456790124	0.0104602510460251	1.309368191721133
10720.73364257812	-1.382015986812031	-0.8278613074656685	9.399332229304052	-1.053151855212545	-0.4047288840145853	0.7506696922919297	0.1666666666666667	0.02092050209205021	1.326797385620915
10740.26489257812	-1.707401806731705	-1.043210976200806	9.43581593817315	-1.053151855212545	-0.4047288840145853	0.7506696922919297	0.1790123456790124	0.02510460251046025	1.32244008714597
10759.79614257812	-1.292349603291197	-0.9521320462913885	9.272803234985853	-1.098422882809253	-1.898624328275322	-0.01898624328275322	0.1934156378600823	0.01673640167364017	1.318082788671024
10779.32739257812	-1.171675906771171	-1.005974515500883	9.180408757581487	-1.053161717567617	-0.03159485152702852	0.3770425420507675	0.1851851851851852	0	1.315904139433551
10798.85864257812	-1.383014267092375	-0.9276893355000868	9.515542966311649	-1.053151855212545	-0.4047288840145853	0.7506696922919297	0.1790123456790124	0.004184100418410041	1.315904139433551
10818.38989257812	-1.425123911792399	-1.098249765098487	9.54699788878877	-0.6920289544640067	-0.3938951969921292	1.128136519728192	0.1893004115226338	0.0104602510460251	1.313725490196079
10837.92114257812	-1.546101740260182	-1.07482049066466	9.627767655033864	-0.3233838946111852	0.7365671398780824	0.7620826525308564	0.1790123456790124	0.01255230125523012	1.320261437908497
10857.45239257812	-1.393419419245193	-0.9581035406808965	9.483615174228051	-1.053151855212545	-0.4047288840145853	0.7506696922919297	0.1851851851851852	0.01882845188284519	1.313725490196079
10876.98364257812	-1.161455658759347	-0.9940507244195657	9.383127351635874	-1.068215898131255	-1.897718118734982	1.490456781076801	0.1934156378600823	0.02510460251046025	1.318082788671024
10896.51489257812	-1.18172640671913	-1.000923500195781	9.665409288195749	-1.09085141192961	-2.644665840865351	1.10562881328946	0.1831275720164609	0.01255230125523012	1.324618736383442
10916.04614257812	-1.163056140504352	-1.15409889892009	9.53672509970956	0.308349438757691	-3.34895847206115	1.098585886977502	0.1831275720164609	0.01255230125523012	1.318082788671024
10935.57739257812	-1.394031724761275	-1.019334092289052	9.41994146298642	0.6543787095223025	-3.711711922296421	1.094958352475149	0.1810699588477366	0.0104602510460251	1.32244008714597
10955.10864257812	-1.474922739623415	-1.027627497694988	9.438919902769523	0.9325113012469234	-6.688442571410354	0.3104740648519342	0.1975308641975309	0.004184100418410041	1.305010893246187
10974.63989257812	-1.272550714532751	-0.9924451906488503	9.321490617160615	-0.1659115815623299	-8.587066899685675	0.291487821569181	0.1851851851851852	0.01255230125523012	1.30718954248366
10994.17114257812	-0.8995919893099945	-1.070310042110554	9.351629992142788	-1.136142164236462	-3.392293220150974	-0.4112814227675475	0.2098765432098766	0.02092050209205021	1.320261437908497
11013.70239257812	-0.9274559319122734	-0.8264012720354081	9.444354872028603	-1.752781867621412	1.066819529045985	-0.3666902952755779	0.2098765432098766	0.01464435146443514	1.300653594771242
11033.23364257812	-1.303638859943308	-1.070956701401466	9.48897133188605	-0.9777428794233434	3.702010997199389	0.4143786005380317	0.2098765432098766	0.008368200836820083	1.311546840958606
11052.76489257812	-1.404628853891082	-1.068945995168789	9.488061967258206	-0.654339260102014	2.219175792346193	0.3995502484894997	0.1748971193415638	0.02092050209205021	1.30718954248366
11072.29614257812	-1.474924760433699	-1.027829578723398	9.418707758307979	-0.3535711545790389	-0.01060713463737117	-0.0001060713463737117	0.1934156378600823	0.03765690376569037	1.302832244008715
11091.82739257812	-1.109947225427985	-0.8937124417884128	9.418962380403777	-0.3384577998849678	-0.383288062354758	1.128242591074566	0.1893004115226338	0.02301255230125523	1.294117647058824
11111.35864257812	-1.17173956229512	-1.01234006789579	9.553827217143876	-1.361451982194875	1.078559425608781	1.520219556520239	0.2160493827160494	0.01882845188284519	1.311546840958606
11130.88989257812	-1.536524109918702	-1.127158466617644	9.463630370923468	-1.030506479059119	-0.03091519437177356	1.509124810320433	0.2037037037037037	0	1.294117647058824
11150.42114257812	-1.191431348108508	-0.9613166290326116	9.566282481329912	-0.6995708382784341	-0.7672557818647709	1.124402913879466	0.2037037037037037	0.01255230125523012	1.302832244008715
11169.95239257812	-1.222535660001337	-1.041444788012505	9.572066040363	-1.444442291218793	-1.909004910527609	0.3582684414607617	0.2037037037037037	0.006276150627615062	1.30718954248366
11189.48364257812	-1.201964821714366	-1.004562979517441	9.260984526039309	-1.391639242162729	0.3313851510933271	0.7580308326430089	0.1934156378600823	0.01673640167364017	1.320261437908497
11209.01489257812	-1.172452908325406	-1.083674670924433	9.489647292926081	-0.6844969330046514	0.3525994203680694	0.7582429753357562	0.1975308641975309	-0.004184100418410041	1.318082788671024
11228.54614257812	-1.262019261737177	-0.9494009211924307	9.606576427989674	0.4516255065216667	4.491160705494157	0.4222700976209793	0.205761316872428	0.02510460251046025	1.313725490196079
11248.07739257812	-1.119812821234949	-0.8701710123838187	9.733172109047249	0.4667191365055935	4.864747842751884	0.8033644595595943	0.1934156378600823	0.008368200836820083	1.315904139433551
11267.60864257812	-1.565002378847346	-0.9446823291790628	9.47246939510611	0.790132618181995	3.008778605411131	1.162163257752225	0.1975308641975309	0.004184100418410041	1.313725490196079
11287.13989257812	-1.303931877434502	-1.10025845052088	9.588513415265268	1.106014078399041	0.4063147507101803	1.890855600337291	0.1934156378600823	0.0104602510460251	1.309368191721133
11306.67114257812	-1.338686783105553	-0.5353449772219823	9.444694368156332	0.3762362554426094	-0.3618472406949307	1.505815489857202	0.1851851851851852	0.006276150627615062	1.320261437908497
11326.20239257812	-1.182033569882312	-1.031639816514064	9.623466360344162	0.3762263930875373	0.01128679179262612	1.132188339616039	0.2016460905349794	0.008368200836820083	1.30718954248366
11345.73364257812	-1.202448805777408	-1.052961385821577	9.470680978004683	0.7222458014970767	0.0216673740449123	0.7549336548725246	0.205761316872428	0.01673640167364017	1.300653594771242
11365.26489257812	-1.252752836179448	-1.032859375520517	9.360071927104606	0.3837682769019647	0.3846473766652679	1.135921945464766	0.1934156378600823	0.01673640167364017	1.311546840958606
11384.79614257812	-1.344137918846906	-1.080458551357292	9.467889228597203	0.7222260767869325	0.7679354390200259	0.007679354390200259	0.205761316872428	0.01673640167364017	1.302832244008715
11404.32739257812	-1.191534409432997	-0.9716227614815092	9.545564123892202	-0.03018725996785367	-0.7471742745154536	-0.76218872387723	0.1954732510288066	0.01255230125523012	1.333333333333333
11423.85864257812	-1.183765404295784	-1.204823257861223	9.473375728518528	1.068275072261688	-0.3410860761903583	0.751306120370172	0.1851851851851852	0.01255230125523012	1.318082788671024
11443.38989257812	-1.303244801937909	-1.031550900861564	9.389935461482999	1.053171579922689	-0.3415391809605283	-0.003415391809605283	0.191358024691358	0.006276150627615062	1.311546840958606
11462.92114257812	-1.432296777895803	-0.8054353653378962	9.521162839711725	1.767855772895194	0.05303567318685583	0.0005303567318685583	0.2263374485596708	0.02301255230125523	1.311546840958606
11482.45239257812	-1.362418168676853	-0.8882815141499006	9.457113257757253	0.7071324468030056	0.3943483017622991	-0.3734150075484148	0.191358024691358	0.02301255230125523	1.311546840958606
11501.98364257812	-1.101054649772814	-1.014555886372303	9.473615194537194	1.421836364485655	0.04265509093456965	0.3777850414753834	0.1934156378600823	0.02301255230125523	1.300653594771242
11521.51489257812	-1.38394889184877	-1.021151811139598	9.258335243756857	1.045629696108262	-0.7148997658331701	-0.007148997658331701	0.1975308641975309	0.02510460251046025	1.320261437908497
11541.04614257812	-1.332837547738233	-0.9605224505909613	9.362887926235496	1.02300404466498	-1.834981520451096	-0.01834981520451096	0.2160493827160494	0.01882845188284519	1.328976034858388
11560.57739257812	-1.422629221496681	-0.8487807355266462	9.246364974039006	0.3007681055229752	-2.229782926983564	-0.3996563198358734	0.2037037037037037	0.02092050209205021	1.311546840958606
11580.10864257812	-0.9998585331760618	-0.9959543277071854	9.515961274040457	-0.03769955671706471	-2.239936956850766	0.3549591209975301	0.1954732510288066	0.02928870292887029	1.300653594771242
11599.63989257812	-1.161786061240797	-1.02709097256456	9.108744762476537	0.3007878302331194	-2.976050991958678	0.347597980646451	0.2078189300411523	0.0104602510460251	1.305010893246187
11619.17114257812	-1.342528343455623	-0.9195010122289234	9.405246130600464	0.007551746169499472	0.0002265523850849842	0.3773607560898886	0.1954732510288066	0.02092050209205021	1.300653594771242
11638.70239257812	-1.412927311322729	-0.8886907282324304	9.315173564212527	-0.7297679606013598	-1.141296023892668	-0.01141296023892668	0.2016460905349794	0.02092050209205021	1.309368191721133
11658.23364257812	-1.050258552066596	-0.9854511662555886	9.455376371318071	0.3762263930875373	0.01128679179262612	1.132188339616039	0.1893004115226338	0.01882845188284519	1.318082788671024
11677.76489257812	-1.233359119882964	-1.113689766074134	9.396628385143929	0.3611229007485384	0.01083368702245615	0.3774668274362623	0.1810699588477366	0.02928870292887029	1.318082788671024
11697.29614257812	-1.292328384783214	-0.9500101954930861	9.48503075183206	0.3837584145468925	0.7577814091528248	0.7622947952236038	0.1893004115226338	0.01464435146443514	1.291938997821351
11716.82739257812	-1.282225343767868	-0.9498071040595343	9.525545977217933	0.02264537615342631	0.3738136896428118	0.7584551180285036	0.2037037037037037	0.02719665271966527	1.320261437908497
11736.35864257812	-1.251940470445241	-0.951622802099796	9.404545919837023	0.353581016934111	-0.3625268978501856	0.3737332215875359	0.1831275720164609	0.02092050209205021	1.32244008714597
11755.88989257812	-1.341730123393404	-0.8396790060070709	9.308235112102077	0.3762362554426094	-0.3618472406949307	1.505815489857202	0.1707818930041153	0.0397489539748954	1.32244008714597
11775.42114257812	-1.179746012640714	-0.802884092354223	9.271290658488207	-0.01506404291871051	-1.492989234720397	0.7397870887848715	0.2078189300411523	0.01255230125523012	1.291938997821351
11794.95239257812	-1.020870918510108	-1.076990840909781	9.451093263920926	0.01511335469407105	-0.3726809277173868	1.128348662420939	0.2098765432098766	0.02301255230125523	1.320261437908497
11814.48364257812	-0.9592836938868096	-0.9788744391859933	9.284897784536177	0.3837682769019647	0.3846473766652679	1.135921945464766	0.2139917695473251	0.03347280334728033	1.305010893246187
11834.01489257812	-1.243781448923197	-1.145821659996427	9.192897365137211	-0.3384479375298957	-0.7564220948423148	1.501869741315728	0.1975308641975309	0.03765690376569037	1.313725490196079
11853.54614257812	-1.313139699493992	-1.010939646368911	9.41106909543409	-1.030496616704047	-0.4040492268593304	1.882751960561595	0.1954732510288066	0.03556485355648535	1.311546840958606
11873.07739257812	-1.098457908557749	-0.7548817648657702	9.183594564994367	-1.797993721087688	-2.665880110140094	1.105416670596712	0.2222222222222222	0.02092050209205021	1.305010893246187
11892.60864257812	-1.100046265441049	-0.9137174531958364	9.458465179837315	-1.399171263622085	-0.4151094662668715	1.127924377035445	0.2016460905349794	0.02092050209205021	1.302832244008715
11912.13989257812	-1.058054838142645	-0.7549787637594069	9.254700816460907	-1.361461844549948	1.451693458096337	1.146592406279077	0.2016460905349794	0.01255230125523012	1.300653594771242
11931.67114257812	-1.099449116002098	-0.8540025093007543	9.370547807617367	-0.9777330170682712	3.328876964711833	0.7880057507791939	0.205761316872428	0.02301255230125523	1.298474945533769
11951.20239257812	-1.120945485399186	-0.9834374288074854	9.515376249463211	-2.091259392216524	1.42979953166634	0.0142979953166634	0.1893004115226338	0.01673640167364017	1.287581699346405
11970.73364257812	-1.445635136175989	-1.129170183255463	9.444236654626984	-1.045609971398118	-0.03136829914194354	0.7544032981406561	0.1995884773662552	0.01673640167364017	1.311546840958606
11990.26489257812	-1.169925885065142	-0.8309723448980367	9.512408689561013	-2.091229805151307	0.3103974342036698	1.13517944604015	0.2098765432098766	0.01464435146443514	1.313725490196079
12009.79614257812	-1.282021241929174	-0.9293969201901493	9.546770547631809	-1.737658650572269	0.3210045688410409	1.135285517386524	0.2078189300411523	0.03347280334728033	1.313725490196079
12029.32739257812	-1.079534030652317	-0.8826959945246552	9.571332486229872	-2.452362568254918	0.6726977796687704	0.3840854683627254	0.2037037037037037	0.03765690376569037	1.309368191721133
12048.85864257812	-1.273445933488607	-1.081967086234371	9.458419711605922	-1.015442436140408	1.462074040348624	0.7693377215355618	0.2098765432098766	0.02301255230125523	1.311546840958606
12068.38989257812	-1.303428695673762	-1.049940274446851	9.570832335684559	-0.3082902646272583	1.110154277135809	1.143177014469471	0.205761316872428	0.01882845188284519	1.318082788671024
12087.92114257812	-1.251823263448763	-0.9399021024520302	9.566749288505539	-0.3158321484416857	0.7367936922631674	1.139443408620745	0.1975308641975309	0.02510460251046025	1.313725490196079
12107.45239257812	-1.242534608977909	-1.021137665467609	9.542578376697447	0.02265523850849842	0.0006796571552549525	1.132082268269666	0.2098765432098766	0.03138075313807531	1.300653594771242
12126.98364257812	-1.31202421221717	-0.8993909186867269	9.457061727095009	0.7448911776505029	0.3954810636877241	1.513388772901028	0.2098765432098766	0.01673640167364017	1.313725490196079
12146.51489257812	-1.362108984703386	-0.8573631168032084	9.519268330070384	0.01510349233899894	0.0004531047701699683	0.7547215121797772	0.191358024691358	0.02301255230125523	1.318082788671024
12166.04614257812	-1.162745946125743	-1.123079461059193	9.608986244253462	0.353581016934111	-0.3625268978501856	0.3737332215875359	0.1995884773662552	0.008368200836820083	1.318082788671024
12185.57739257812	-1.200628055711436	-0.8708863792243892	9.500004956037223	0.3686647845629658	0.384194271895098	0.3812004332849888	0.2016460905349794	0.02719665271966527	1.309368191721133
12205.10864257812	-1.263759179391785	-1.123392686653228	9.375637218317866	0.7222458014970767	0.0216673740449123	0.7549336548725246	0.2016460905349794	0.02719665271966527	1.326797385620915
12224.63989257812	-0.9193757219913095	-1.028481290040019	9.454533693429603	1.083358839890543	0.4056350935549253	0.7587733320676248	0.2098765432098766	0.01255230125523012	1.311546840958606
12244.17114257812	-1.081379030441698	-1.06719597346276	9.29946277465881	0.7448714529403588	1.141749128662838	0.7661344724187039	0.2016460905349794	0.0397489539748954	1.309368191721133
12263.70239257812	-1.149562179832291	-0.8148038418149723	9.149784388131131	-0.01509362998392684	-0.3735871372577268	-0.381094361938615	0.2078189300411523	0.008368200836820083	1.320261437908497
12283.23364257812	-1.222145643616506	-1.002443149529423	9.43260588103686	0	0	0	0.2037037037037037	0.01882845188284519	1.320261437908497
12302.76489257812	-1.202537721429908	-1.061852951071606	9.591447631797779	-0.007561608524571581	0.3729074801024718	-0.7509879063310508	0.1975308641975309	0.02928870292887029	1.302832244008715
12322.29614257812	-1.080358521248229	-0.9651450541158345	9.405585626728191	-0.3535908792891831	0.7356609303377424	-0.7473603718286981	0.1995884773662552	0.02092050209205021	1.300653594771242
12341.82739257812	-1.333161887788831	-0.9929564556507268	9.149141770460789	-9.862355072108239e-06	0.3731340324875568	-0.3736271502411622	0.2181069958847737	0.02092050209205021	1.291938997821351
12361.35864257812	-1.33079450854101	-0.7562185308687007	9.595345774835803	0.01509362998392684	0.3735871372577268	0.381094361938615	0.2078189300411523	0.01673640167364017	1.305010893246187
12380.88989257812	-1.211347443863431	-0.9327241843229158	9.355391730486636	0.3686549222078936	0.7573283043826547	0.007573283043826548	0.191358024691358	0.02510460251046025	1.305010893246187
12400.42114257812	-1.03794575500559	-0.7642724702559714	9.375649343179571	0.007541883814427364	0.3733605848726418	0.003733605848726418	0.2119341563786008	0.01882845188284519	1.315904139433551
12419.95239257812	-1.340605542470304	-0.7272209136970432	9.445182393839941	-1.068275072261688	0.3410860761903583	-0.751306120370172	0.205761316872428	0.01882845188284519	1.302832244008715
12439.48364257812	-1.222159789288495	-1.003857716728291	9.291120869806056	-0.3611031760383941	-0.7571017519975698	0.3697874730460621	0.2181069958847737	0.01882845188284519	1.305010893246187
12459.01489257812	-1.362234274941	-0.8698921405646132	9.276216383555694	-1.075797231365971	-0.7785425736573971	-0.007785425736573971	0.1975308641975309	0.02301255230125523	1.296296296296297
12478.54614257812	-1.241748513777395	-0.9425281454162149	9.3242944914298	-1.045609971398118	-0.03136829914194354	0.7544032981406561	0.1954732510288066	0.02301255230125523	1.300653594771242
12498.07739257812	-1.24106547990137	-0.8742247578137183	9.085292248724443	-1.038058225228618	-0.03114174675685855	1.131764054230545	0.2160493827160494	0.02092050209205021	1.305010893246187
12517.60864257812	-1.15064634454971	-0.9232203135568051	9.417079995624139	-0.7146644682623609	-1.140842919122498	0.7433085519408505	0.2098765432098766	0.04184100418410042	1.30718954248366
12537.13989257812	-1.161592063453524	-1.007691193837224	9.028908610582697	-0.6543096730367978	1.099773694883523	1.520431699212986	0.1975308641975309	0.02301255230125523	1.320261437908497
12556.67114257812	-1.222139581185654	-1.001836906444193	9.49324231442149	-1.030526203769263	0.7153528706033401	0.7618705098381089	0.2016460905349794	0.01464435146443514	1.315904139433551
12576.20239257812	-1.310617728259438	-0.7587425229135385	9.383300130915165	-1.030516341414191	0.3422188381157832	1.135497660079271	0.2119341563786008	0.03765690376569037	1.305010893246187
12595.73364257812	-0.9792755700273865	-0.9578600330416631	9.326152626486028	-0.7071127220928615	-1.140616366737413	1.120669308030739	0.1995884773662552	0.03765690376569037	1.32244008714597
12615.26489257812	-1.200497713448112	-0.85785215289196	9.793587263705771	-0.7146644682623609	-1.140842919122498	0.7433085519408505	0.1831275720164609	0.002092050209205021	1.300653594771242
12634.79614257812	-1.140654448099989	-0.9341316786857897	9.356028285726126	0.01509362998392684	0.3735871372577268	0.381094361938615	0.2181069958847737	0.03138075313807531	1.313725490196079
12654.32739257812	-1.273649024922158	-1.102276229589551	9.447301213422817	-1.053191304632833	1.087807245935642	-0.7438389086727191	0.1954732510288066	0.03556485355648535	1.302832244008715
12673.85864257812	-1.391301610067459	-0.7463226229074751	9.453821357804458	-2.4749882196982	-0.4473839749491549	0.3728846508165462	0.1975308641975309	0.02510460251046025	1.309368191721133
12693.38989257812	-1.101275928498923	-1.036683758983171	9.280587396200197	-0.7373098444157872	-1.514656608765309	-0.0151465660876531	0.205761316872428	0.02510460251046025	1.309368191721133
12712.92114257812	-1.141124286491042	-0.9811155177910574	9.707209748922306	-0.7448714529403588	-1.141749128662838	-0.7661344724187039	0.2119341563786008	0.01882845188284519	1.32244008714597
12732.45239257812	-1.030469767359571	-1.026774715755099	9.403003031185115	-1.060723326092188	0.3413126285754433	-0.3739453642802834	0.2139917695473251	0.02301255230125523	1.315904139433551
12751.98364257812	-1.201830437830474	-0.9911245911281925	9.594991122630944	-1.060733188447261	0.714446661063	-0.7475725145214456	0.1995884773662552	0.04811715481171547	1.302832244008715
12771.51489257812	-1.19184662462189	-1.002844280370816	9.453090834886757	-0.353581016934111	0.3625268978501856	-0.3737332215875359	0.2016460905349794	0.01255230125523012	1.300653594771242
12791.04614257812	-1.273361059456674	-1.073479683041161	9.29722876888974	-0.707162033868222	0.7250537957003712	-0.7474664431750718	0.2119341563786008	0.02301255230125523	1.272331154684096
12810.57739257812	-1.141040422864252	-0.9727291551120525	9.535912733975353	0.0226355137983542	0.7469477221303685	0.3848279677873415	0.2037037037037037	0.02301255230125523	1.300653594771242
