Time Stamp	Accelerometer X	Accelerometer Y	Accelerometer Z	Gyroscope X	Gyroscope Y	Gyroscope Z	Magnetometer X	Magnetometer Y	Magnetometer Z
251.007080078125	-2.159031686719521	-3.781956550739955	8.395372461656414	45.64132973135226	-15.42180488417884	18.33634798889406	0.06584362139917696	-0.4518828451882845	0.6296296296296297
270.538330078125	-0.3891989670709066	-9.626967414161362	-1.858977734116151	0.9852453138174824	-1.83611428237652	-1.905153595653954	0.04938271604938272	-0.4518828451882845	0.6034858387799565
290.069580078125	-0.1889720320968127	-9.806294118772175	-2.219477153532305	-1.399190988332229	0.3311585987082421	0.3806700765531202	0.05761316872427984	-0.4539748953974895	0.627450980392157
309.600830078125	-0.4722320408341901	-9.849466709681636	-2.052751211447979	-1.02300404466498	1.834981520451096	0.01834981520451096	0.06790123456790124	-0.4435146443514644	0.6318082788671024
329.132080078125	-0.7122941985335566	-9.613258237194044	-2.144351510410694	-0.6995708382784341	-0.7672557818647709	1.124402913879466	0.07613168724279835	-0.4581589958158995	0.6100217864923748
348.663330078125	-0.2985252096234502	-9.650500760324819	-2.010762815365001	-1.752742418201124	-0.4257166009042426	1.127818305689071	0.06995884773662552	-0.4476987447698744	0.6252723311546842
368.194580078125	-0.3415361357101822	-9.91118932859397	-1.903015231827204	-0.6845166577147956	1.098867485343183	0.01098867485343183	0.09053497942386832	-0.4476987447698744	0.6165577342047931
387.725830078125	-0.5922954526484189	-9.734595769892396	-1.916895167263528	-1.015472023205624	2.581476137811294	-0.3515437291879248	0.0720164609053498	-0.4497907949790795	0.6165577342047931
407.257080078125	-0.5934058878995305	-9.845639295003556	-1.912357437770587	-0.3233740322561131	0.3634331073905256	1.135709802772018	0.05555555555555556	-0.4560669456066945	0.6252723311546842
426.788330078125	-0.4012359235281335	-9.820562049783048	-2.05059601727999	-0.3233838946111852	0.7365671398780824	0.7620826525308564	0.05967078189300412	-0.4560669456066945	0.6427015250544663
446.319580078125	-0.2583262410470401	-9.671007943087842	-1.960881134312337	-0.2856843378941205	2.976504096728848	0.4071235315333263	0.06790123456790124	-0.4497907949790795	0.6296296296296297
465.850830078125	-0.6930884175934936	-9.712882163389768	-1.967322467092898	-1.030555790834479	1.83475496806601	-0.3590109408853777	0.07818930041152264	-0.4435146443514644	0.6165577342047931
485.382080078125	-0.5209052773369633	-9.666285309453905	-2.01377584349859	-0.7146546059072888	-1.513976951610055	1.116935702182013	0.0617283950617284	-0.4644351464435146	0.6165577342047931
504.913330078125	-0.1887396389141415	-9.783054800505054	-1.915282560656819	-0.3610735889731778	-1.87650384946024	1.490668923769549	0.06790123456790124	-0.4560669456066945	0.6296296296296297
524.444580078125	-0.08070105869543502	-10.09030788974552	-2.121484021235847	-0.6618811439164415	1.845815207473552	0.3958166426407733	0.0720164609053498	-0.4539748953974895	0.6252723311546842
543.975830078125	-0.4316036500724092	-9.827031673907586	-1.748192872721356	-0.6468072386426589	2.965670409706392	0.02965670409706392	0.0720164609053498	-0.4330543933054393	0.6143790849673203
563.507080078125	-0.6847768248950006	-9.891823903641464	-1.663055125047185	-0.2931966346433316	1.483741414393536	1.524271376408086	0.05967078189300412	-0.4665271966527196	0.6405228758169935
583.038330078125	-0.2087416191061388	-9.763050799502775	-1.975088441014685	1.972471014421648e-05	-0.7462680649751136	0.7472543004823244	0.06790123456790124	-0.4435146443514644	0.6143790849673203
602.569580078125	-0.4403355713099946	-9.690122787565119	-2.216182222364083	-0.7297580982462877	-1.514430056380224	0.3622141900022355	0.0720164609053498	-0.4518828451882845	0.6209150326797386
622.100830078125	-0.2686485399782103	-9.693136826103851	-2.174212013573662	-1.790491286693549	-0.7999833953172244	-0.38535832451921	0.06995884773662552	-0.4476987447698744	0.6187363834422659
641.632080078125	-0.2394276232701599	-9.801348185601849	-1.825795018846127	0.02261578908820999	1.493215787105482	-0.3624263326949829	0.07613168724279835	-0.4560669456066945	0.6230936819172114
661.163330078125	-0.4221604036148214	-9.89280803824982	-2.246336753423387	-0.3083001269823305	1.483288309623366	0.7695498642283092	0.06995884773662552	-0.4435146443514644	0.607843137254902
680.694580078125	-0.4389917324710698	-9.555738903672633	-1.906419286750767	-0.6995807006335061	-0.3941217493772142	0.7507757636383033	0.06584362139917696	-0.4476987447698744	0.627450980392157
700.225830078125	-0.4001982374472495	-9.716793441694639	-1.772669937287487	-0.7146644682623609	-1.140842919122498	0.7433085519408505	0.06790123456790124	-0.4288702928870293	0.6209150326797386
719.757080078125	-0.5218914327556029	-9.764900851317865	-1.776292239721732	-0.3308961913603962	-0.7561955424572299	1.879230497405616	0.05349794238683128	-0.4225941422594142	0.6230936819172114
739.288330078125	-0.4695039469506585	-9.576657321328469	-2.039083461091486	-1.022974457599763	0.715579422988425	1.139231265927998	0.0720164609053498	-0.4351464435146443	0.6427015250544663
758.819580078125	-0.4793857092398954	-9.554732540151154	-1.886570888140361	-1.4067525968568	0.7040660788107139	-0.3703178297779307	0.051440329218107	-0.4351464435146443	0.6013071895424837
778.350830078125	-0.5412841386469449	-9.683969420250042	-1.802742625530285	-0.3384676622400399	-0.0101540298672012	0.7546154408334035	0.0617283950617284	-0.4267782426778242	0.6013071895424837
797.882080078125	-0.522802818193731	-9.856039395130663	-1.801060300968774	-0.7297482358912155	-1.887564088867781	0.7358413402433978	0.04320987654320988	-0.4539748953974895	0.6122004357298475
817.413330078125	-0.3009420987232309	-9.892189670302885	-1.942063348946821	0.3988619068858915	0.7582345139229947	1.517016307403381	0.05349794238683128	-0.4456066945606694	0.6405228758169935
836.944580078125	-0.2607461613622468	-9.912999974608521	-1.922499884586473	0.08299030902391732	2.987564336136389	1.161951115059477	0.05967078189300412	-0.4560669456066945	0.5991285403050109
856.475830078125	-0.5801796845901123	-9.53311997416273	-1.947104260200502	-0.3158617355069021	1.856195789725838	0.01856195789725838	0.06995884773662552	-0.4497907949790795	0.6165577342047931
876.007080078125	-0.5314134908142705	-9.707005647083612	-2.066421993019899	-1.429328936524722	-2.281685838244996	1.486617103881701	0.0617283950617284	-0.4560669456066945	0.6143790849673203
895.538330078125	-0.1687669604712635	-9.805988976419277	-2.148552774991333	-1.068255347551544	-0.4051819887847553	-0.004051819887847552	0.04320987654320988	-0.4539748953974895	0.6405228758169935
915.069580078125	-0.4201385829255818	-9.690625969325861	-2.226106421669286	-1.406762459211872	1.077200111298271	-0.7439449800190928	0.06378600823045268	-0.4330543933054393	0.6230936819172114
934.600830078125	-0.4519289599098622	-9.839360637450865	-2.011638836623157	-0.6845067953597235	0.7257334528556262	0.384615825094594	0.04732510288065844	-0.4435146443514644	0.6296296296296297
954.132080078125	-0.5111144515105108	-9.69730373690966	-2.065733907118164	-1.429358523589938	-1.162283740782325	0.3657356531582145	0.08230452674897121	-0.4581589958158995	0.6165577342047931
973.663330078125	-0.4307377328656735	-9.740439953234006	-2.178198061859044	0.01510349233899894	0.0004531047701699683	0.7547215121797772	0.06790123456790124	-0.4539748953974895	0.6252723311546842
993.194580078125	-0.4800030667816871	-9.616468294330334	-2.000774960535849	-1.444442291218793	-1.909004910527609	0.3582684414607617	0.06995884773662552	-0.4414225941422594	0.6339869281045752
1012.725830078125	-0.1988386383089189	-9.782853729881788	-1.915373497119603	-1.068255347551544	-0.4051819887847553	-0.004051819887847552	0.06995884773662552	-0.4456066945606694	0.6165577342047931
1032.257080078125	-0.3080280699844188	-9.590685786320673	-2.108877196278504	0.0452710275967084	1.493895444260737	0.7696559355746829	0.04938271604938272	-0.4456066945606694	0.6296296296296297
1051.788330078125	-0.1890488228876084	-9.813973197851746	-1.977437632969949	0.06790654139506259	2.240843166391106	1.154483903362024	0.05761316872427984	-0.4288702928870293	0.6034858387799565
1071.319580078125	-0.3603266401368631	-9.770037751060041	-1.966852628701846	-0.3309455031357568	1.109474619980554	0.01109474619980554	0.07407407407407408	-0.4435146443514644	0.6209150326797386
1090.850830078125	-0.5328230059874286	-9.847957164399414	-2.02297861353237	0.007561608524571581	-0.3729074801024718	0.7509879063310508	0.0617283950617284	-0.4435146443514644	0.6143790849673203
1110.382080078125	-0.3882997064944831	-9.537041356519021	-1.955482539638371	-0.7071324468030056	-0.3943483017622991	0.3734150075484148	0.06378600823045268	-0.4560669456066945	0.6209150326797386
1129.913330078125	-0.259859025647528	-9.824286403136639	-2.140277556877954	-1.060693739026972	-0.7780894688872271	0.7469360864432033	0.04938271604938272	-0.4309623430962343	0.6252723311546842
1149.444580078125	-0.5014984257736327	-9.745802173322858	-1.845840446459233	-0.6844969330046514	0.3525994203680694	0.7582429753357562	0.05349794238683128	-0.4539748953974895	0.6405228758169935
1168.975830078125	-0.5132383231190973	-9.909690897768312	-2.096576524079202	-0.6996102876987225	0.7252803480854563	-0.3701056870851832	0.05761316872427984	-0.4497907949790795	0.6318082788671024
1188.507080078125	-0.3803154850620138	-9.748720223373095	-1.895279570059679	-0.6694230277308688	1.47245462260091	0.3920830367920469	0.06790123456790124	-0.4497907949790795	0.6230936819172114
1208.038330078125	-0.4023413067535349	-9.931100372323185	-1.99552792663319	-1.022974457599763	0.715579422988425	1.139231265927998	0.06995884773662552	-0.4456066945606694	0.6122004357298475
1227.569580078125	-0.1882435299893955	-9.733443908030459	-2.003706145852932	-1.075787369010899	-1.151676606144954	0.3658417245045882	0.07407407407407408	-0.4497907949790795	0.6230936819172114
1247.100830078125	-0.2493487913599368	-9.783363984478523	-2.067419262895101	-0.676955049190224	0.7259600052407112	0.7619765811844826	0.05761316872427984	-0.4393305439330544	0.6230936819172114
1266.632080078125	-0.3694950563958135	-9.676778366854082	-1.750160131532925	-0.3233838946111852	0.7365671398780824	0.7620826525308564	0.07407407407407408	-0.4518828451882845	0.6165577342047931
1286.163330078125	-0.3801982780655361	-9.736999523725329	-1.733076201391164	0.4215072830393178	1.132048203565806	2.275471425431885	0.07818930041152264	-0.4288702928870293	0.6187363834422659
1305.694580078125	-0.7129691491684452	-9.680753300682902	-1.824500689859163	-1.02300404466498	1.834981520451096	0.01834981520451096	0.06378600823045268	-0.4372384937238493	0.6122004357298475
1325.225830078125	-0.3293132647068182	-9.699003238358586	-1.872081678403382	-0.3384972493052563	1.109248067595469	-0.3662660098900831	0.06790123456790124	-0.4225941422594142	0.6187363834422659
1344.757080078125	-0.5824258152208867	-9.757733037240172	-2.190680606983915	0.0226355137983542	0.7469477221303685	0.3848279677873415	0.08024691358024692	-0.4435146443514644	0.6230936819172114
1364.288330078125	-0.5407071973108351	-9.626275286639059	-2.092781442365668	0.01510349233899894	0.0004531047701699683	0.7547215121797772	0.05761316872427984	-0.4393305439330544	0.6383442265795207
1383.819580078125	-0.3402529211797802	-9.782867875553777	-2.199616630060194	-0.6920388168190788	-0.02076116450457237	0.7545093694870298	0.05967078189300412	-0.4497907949790795	0.5991285403050109
1403.350830078125	-0.3730718905986662	-10.03446178713935	-2.172120474929621	-1.07583668078626	0.7139935562928301	-1.502294026701223	0.0617283950617284	-0.4748953974895397	0.6230936819172114
1422.882080078125	-0.4315460569793125	-9.821272364597908	-2.182247765668376	-0.01506404291871051	-1.492989234720397	0.7397870887848715	0.051440329218107	-0.4393305439330544	0.6056644880174292
1442.413330078125	-0.2269258804475905	-9.561274913445919	-2.035888560032328	-1.038038500518474	-0.7774098117319722	1.879018354712869	0.04938271604938272	-0.4351464435146443	0.6143790849673203
1461.944580078125	-0.08857918758798924	-9.868019768899936	-2.130650416684513	-1.038077949938762	0.715126318218255	0.3845097537482203	0.05349794238683128	-0.4351464435146443	0.6187363834422659
1481.475830078125	-0.6448223743629661	-9.936782890842066	-2.038640903639268	-1.060733188447261	0.714446661063	-0.7475725145214456	0.06995884773662552	-0.4497907949790795	0.6230936819172114
1501.007080078125	-0.6829823453627218	-9.712375950413602	-1.896489025014712	-1.444462015928937	-1.162736845552495	-0.3889858590215627	0.08024691358024692	-0.4456066945606694	0.6252723311546842
1520.538330078125	-0.3894101417455947	-9.648084881630181	-1.95094481014543	-0.3082902646272583	1.110154277135809	1.143177014469471	0.06584362139917696	-0.4330543933054393	0.6122004357298475
1540.069580078125	-0.4689845987076454	-9.524722497027163	-1.895067384979849	-0.3309356407806847	0.7363405874929974	0.3847218964409677	0.06790123456790124	-0.4414225941422594	0.6187363834422659
1559.600830078125	-0.3147563578253216	-9.253413560309939	-1.728444504220013	1.972471014421648e-05	-0.7462680649751136	0.7472543004823244	0.05761316872427984	-0.4456066945606694	0.6187363834422659
1579.132080078125	-0.3995162139763665	-9.648591094606349	-2.021778252223617	0.7524133367547862	1.515109713535479	0.7698680782674303	0.05761316872427984	-0.4581589958158995	0.6122004357298475
1598.663330078125	-0.4926119125493137	-9.867251860991978	-1.851824065710446	0.4516649559419552	2.998624575543931	1.916778698585628	0.05349794238683128	-0.4518828451882845	0.6209150326797386
1618.194580078125	-0.6424004332374752	-9.694588778292976	-2.056810008903589	0.3837682769019647	0.3846473766652679	1.135921945464766	0.05967078189300412	-0.4539748953974895	0.6143790849673203
1637.725830078125	-0.5022208654501975	-9.818046140979346	-2.000975020753974	-0.7146940553275772	-0.02144082165982732	-0.3775728987826361	0.05967078189300412	-0.4623430962343096	0.6034858387799565
1657.257080078125	-0.4510438450054275	-9.750849147007392	-2.249628653376182	-1.467087667372219	-2.28281860017042	-0.400186676567742	0.05761316872427984	-0.4497907949790795	0.6318082788671024
1676.788330078125	-0.3616240003392537	-9.899773771299103	-1.811736241699661	-1.098403158099109	-2.644892393250436	0.7282680571995712	0.08230452674897121	-0.4539748953974895	0.6165577342047931
1696.319580078125	-0.2097510138430456	-9.863990273193446	-1.970044498545578	-0.699560975923362	-1.140389814352328	1.498030064120628	0.05967078189300412	-0.4581589958158995	0.6143790849673203
1715.850830078125	-0.1572402586107711	-9.663419800471054	-2.009995917862186	-1.038087812293834	1.088260350705812	0.01088260350705812	0.06584362139917696	-0.4456066945606694	0.6252723311546842
1735.382080078125	-0.1275393994602476	-9.723636915721734	-1.911699664023114	-1.045659283173478	1.834301863295841	-1.113732453065155	0.06584362139917696	-0.4456066945606694	0.6296296296296297
1754.913330078125	-0.7865145186478909	-9.964583177920396	-2.071750869739065	-0.3233838946111852	0.7365671398780824	0.7620826525308564	0.06584362139917696	-0.4414225941422594	0.6187363834422659
1774.444580078125	-0.4310469168391404	-9.7713583505807	-2.240353134172174	-0.7297383735361436	-2.260698121355338	1.10946849048456	0.06584362139917696	-0.4518828451882845	0.6034858387799565
1793.975830078125	-0.1776524632904403	-9.684438248235953	-2.132463083509349	-0.6694131653757966	1.099320590113353	0.765710187033209	0.07407407407407408	-0.4602510460251046	0.6143790849673203
1813.507080078125	-0.2680079431181513	-9.62907714009796	-1.827568279870423	-0.6467875139325145	2.219402344731279	0.7769110045793883	0.05967078189300412	-0.4456066945606694	0.6056644880174292
1833.038330078125	-0.411024728544302	-9.789341541298883	-1.978425809198872	-0.6694131653757966	1.099320590113353	0.765710187033209	0.04938271604938272	-0.4665271966527196	0.6339869281045752
1852.569580078125	-0.1587508142981341	-9.814475369207345	-1.967058751350824	0.02266510086357052	-0.3724543753323019	1.505709418510828	0.06790123456790124	-0.4351464435146443	0.607843137254902
1872.100830078125	-0.1393469939502295	-9.894295354618915	-1.829441571003781	-1.053171579922689	0.3415391809605283	0.003415391809605283	0.05967078189300412	-0.4623430962343096	0.6013071895424837
1891.632080078125	-0.2986141252759505	-9.659392325574849	-1.889996161571906	-0.6241914495544488	4.458886196811874	-0.332769628597919	0.05761316872427984	-0.4414225941422594	0.6339869281045752
1911.163330078125	-0.5630179532524139	-9.837148860594919	-2.012639137713785	-0.3309455031357568	1.109474619980554	0.01109474619980554	0.0720164609053498	-0.4330543933054393	0.6230936819172114
1930.694580078125	-0.3489191660831325	-9.639391355787993	-2.010711284702757	-0.7222063520767882	-1.51420350399514	0.7395749460921242	0.06995884773662552	-0.4351464435146443	0.6034858387799565
1950.225830078125	-0.3711248398899382	-9.839756716266548	-1.889638478151621	-0.7071423091580777	-0.02121426927474233	-0.0002121426927474233	0.07407407407407408	-0.4351464435146443	0.6339869281045752
1969.757080078125	-0.4189948043047826	-9.57624810724594	-1.897143767546759	-1.000368530866625	2.581929242581464	0.4031777829918524	0.0720164609053498	-0.4435146443514644	0.6252723311546842
1989.288330078125	-0.4319178860715864	-9.858455273825303	-1.860878306188345	-0.6694033030207246	0.7261865576257962	1.139337337274371	0.06790123456790124	-0.4539748953974895	0.6252723311546842
2008.819580078125	-0.2567884044208418	-9.517224280468019	-1.730954350592862	-0.6844772082945072	-0.3936686446070442	1.505497275818081	0.0617283950617284	-0.4602510460251046	0.6122004357298475
2028.350830078125	-0.2192558950142983	-9.804377380217712	-2.088371023920625	0.05282277376620787	1.494121996645822	1.147016691664571	0.05349794238683128	-0.4309623430962343	0.6296296296296297
2047.882080078125	-0.4926230270058763	-9.868363306648233	-1.962990860248935	-0.3460194084095394	-0.01038058225228618	0.3772546847435149	0.04938271604938272	-0.4351464435146443	0.607843137254902
2067.413330078125	-0.6557094897685416	-10.0153934212986	-1.840660099295949	-0.3309356407806847	0.7363405874929974	0.3847218964409677	0.0617283950617284	-0.4497907949790795	0.6122004357298475
2086.944580078125	-0.644012029439043	-9.855748398449753	-2.014379055368393	0.03775873084749736	0.001132761925424921	1.886803780449443	0.06584362139917696	-0.4497907949790795	0.6165577342047931
2106.475830078125	-0.4209378133929425	-9.770549016061919	-2.139201475401672	-0.6694033030207246	0.7261865576257962	1.139337337274371	0.05349794238683128	-0.4539748953974895	0.6209150326797386
2126.007080078125	-0.3807560217039471	-9.792773887566423	-2.261123022272129	-0.6920289544640067	-0.3938951969921292	1.128136519728192	0.06584362139917696	-0.4644351464435146	0.607843137254902
2145.538330078125	-0.3212775126121044	-9.905529038988213	-2.30657003515634	-1.068245485196472	-0.7783160212723121	0.3695753303533146	0.06584362139917696	-0.4435146443514644	0.6056644880174292
2165.069580078125	-0.3919533314881315	-9.902403855883856	-2.135403362472711	-0.6543195353918699	1.47290772737108	1.146804548971824	0.05349794238683128	-0.4581589958158995	0.6230936819172114
2184.600830078125	-0.2982968580613472	-9.627665604114519	-1.746992511412602	-0.654329397746942	1.846041759858636	0.7731773987306619	0.06790123456790124	-0.4435146443514644	0.5925925925925927
2204.132080078125	-0.5516842387740528	-9.713878422859827	-1.784140056460025	-0.3233838946111852	0.7365671398780824	0.7620826525308564	0.07613168724279835	-0.4414225941422594	0.6230936819172114
2223.663330078125	-0.391445097701681	-9.851580477238802	-2.102554080899563	-0.361093313683322	-1.130235784485127	0.7434146232872243	0.06378600823045268	-0.4414225941422594	0.6056644880174292
2243.194580078125	-0.3994212358930139	-9.639093286271091	-2.081908472632081	-0.3158420107967578	1.109927724750724	0.7658162583795828	0.07407407407407408	-0.4497907949790795	0.6100217864923748
2262.725830078125	-0.3803265995185763	-9.749831669029348	-2.006446364598168	-0.323364169901041	-0.009700925097031229	1.509336953013181	0.06378600823045268	-0.4456066945606694	0.6013071895424837
2282.257080078125	-0.6115911596461243	-9.643964449460908	-1.983263629019002	-1.421836364485655	-0.04265509093456965	-0.3777850414753834	0.05761316872427984	-0.4351464435146443	0.6122004357298475
2301.788330078125	-0.5428250064885692	-9.83805620441248	-2.062987625942076	-0.3611031760383941	-0.7571017519975698	0.3697874730460621	0.08024691358024692	-0.4623430962343096	0.6209150326797386
2321.319580078125	-0.5007264762451074	-9.668607220470333	-2.205609342957685	-0.6618614192062973	1.099547142498438	1.143070943123098	0.06790123456790124	-0.4393305439330544	0.6339869281045752
2340.850830078125	-0.3198184875869859	-9.759626536476372	-1.854815875336052	-0.6844870706495794	-0.02053461211948738	1.131870125576918	0.05761316872427984	-0.4602510460251046	0.6165577342047931
2360.382080078125	-0.683792690286645	-9.793410442805913	-1.920750873285586	-0.669442752441013	2.218722687576024	-0.3551712636902775	0.06790123456790124	-0.4581589958158995	0.6252723311546842
2379.913330078125	-0.3400225488073931	-9.759830638315064	-1.915634181646252	0.0452710275967084	1.493895444260737	0.7696559355746829	0.05967078189300412	-0.4456066945606694	0.6296296296296297
2399.444580078125	-0.4179864199730179	-9.475409674069473	-1.912293782246638	-0.6694131653757966	1.099320590113353	0.765710187033209	0.06584362139917696	-0.4414225941422594	0.6122004357298475
2418.975830078125	-0.3697203767424904	-9.699310401521769	-1.983612218793009	-1.098413020454181	-2.271758360762879	0.354640906958409	0.06790123456790124	-0.4560669456066945	0.6296296296296297
2438.507080078125	-0.2305683909846763	-9.925525967154501	-2.104642588328178	0.7373295691259315	0.7683885437901959	0.7624008665699775	0.05349794238683128	-0.4435146443514644	0.6100217864923748
2458.038330078125	-0.3605398356218354	-9.791357299557269	-2.079031849192668	0.05282277376620787	1.494121996645822	1.147016691664571	0.06995884773662552	-0.4560669456066945	0.627450980392157
2477.569580078125	-0.4802253559129379	-9.638697207455406	-2.203908831103617	0.782620321432784	1.516015923075819	2.279311102626985	0.05761316872427984	-0.4518828451882845	0.6187363834422659
2497.100830078125	-0.1282648703522387	-9.796184004920837	-2.09715245501017	1.972471014421648e-05	-0.7462680649751136	0.7472543004823244	0.05761316872427984	-0.4330543933054393	0.607843137254902
2516.632080078125	-0.105418599685374	-9.531758958436392	-1.871581527858067	-0.7071521715131499	0.3519197632128144	-0.3738392929339096	0.07818930041152264	-0.4456066945606694	0.6470588235294118
2536.163330078125	-0.573193743437987	-9.844626869051222	-1.770690553614214	-1.045629696108262	0.7148997658331701	0.007148997658331701	0.06790123456790124	-0.4309623430962343	0.6209150326797386
2555.694580078125	-0.7858961507009571	-9.902746383227012	-1.947440725112805	-0.6844870706495794	-0.02053461211948738	1.131870125576918	0.05349794238683128	-0.4560669456066945	0.6209150326797386
2575.225830078125	-0.1492631100142961	-9.875805950924562	-2.020535453898896	-0.7373098444157872	-1.514656608765309	-0.0151465660876531	0.07818930041152264	-0.4330543933054393	0.6209150326797386
2594.757080078125	-0.5812810261949453	-9.643254134646046	-1.851611880630616	-1.083348977535471	-0.7787691260424821	-0.3851461818264626	0.05967078189300412	-0.4435146443514644	0.6056644880174292
2614.288330078125	-0.3008461102347362	-9.882590821453421	-1.992087497124513	-0.3309159160705404	-0.009927477482116214	1.131976196923292	0.05967078189300412	-0.4476987447698744	0.6165577342047931
2633.819580078125	-0.2584474896640859	-9.683132804792427	-2.163508791903939	0.03774886849242525	0.3742667944129817	1.513176630208281	0.05349794238683128	-0.4435146443514644	0.6296296296296297
2653.350830078125	-0.1756063928777916	-9.479831206971078	-1.869687018216726	0.0678966790399905	2.613977198878663	0.7808567531208621	0.0720164609053498	-0.4246861924686192	0.6252723311546842
2672.882080078125	-0.1786335666833697	-9.782548587528888	-1.844449118578632	0.01506404291871051	1.492989234720397	-0.7397870887848715	0.0617283950617284	-0.4497907949790795	0.6143790849673203
2692.413330078125	-0.582723884737791	-9.787539988930609	-2.141668884758555	0.007541883814427364	0.3733605848726418	0.003733605848726418	0.07613168724279835	-0.4435146443514644	0.6034858387799565
2711.944580078125	-0.6033270559893074	-9.82765509388023	-2.153981681819561	0.04529075230685262	0.7476273792856235	1.516910236057007	0.06378600823045268	-0.4518828451882845	0.6100217864923748
2731.475830078125	-0.3000206092336824	-9.800040721348036	-1.816234565392062	-0.3082902646272583	1.110154277135809	1.143177014469471	0.07613168724279835	-0.4435146443514644	0.6143790849673203
2751.007080078125	-0.4223442973506743	-9.911197411835108	-2.065439879221828	-0.6769944986105125	2.218496135190938	-0.7325320197801661	0.07818930041152264	-0.4456066945606694	0.6143790849673203
2770.538330078125	-0.6432208822128188	-9.776633675827336	-2.182132579482182	0.3686549222078936	0.7573283043826547	0.007573283043826548	0.04320987654320988	-0.4581589958158995	0.6034858387799565
2790.069580078125	-0.339233422391453	-9.680917996721055	-2.103599850221584	0.03020698467799789	0.0009062095403399367	1.509443024359554	0.0720164609053498	-0.4330543933054393	0.6318082788671024
2809.600830078125	-0.04776690309035545	-9.827195359540598	-2.006988952159449	-0.6618515568512251	0.7264131100108812	1.51669809336426	0.04938271604938272	-0.4456066945606694	0.6252723311546842
2829.132080078125	-0.2892264511011754	-9.730725918198349	-1.933873004865374	-0.676955049190224	0.7259600052407112	0.7619765811844826	0.06378600823045268	-0.4560669456066945	0.6318082788671024
2848.663330078125	-0.4408296594244565	-9.739531599011304	-2.107546492706426	-0.3234036193213294	1.482835204853196	0.01482835204853196	0.07818930041152264	-0.4581589958158995	0.6209150326797386
2868.194580078125	-0.6635057758445899	-9.78492101880242	-2.041335654153113	0.0679164037501347	1.867709133903549	1.528111053603187	0.06584362139917696	-0.4476987447698744	0.636165577342048
2887.725830078125	-0.4707416932496682	-9.700431951229444	-2.297809822574777	-1.075787369010899	-1.151676606144954	0.3658417245045882	0.05349794238683128	-0.4476987447698744	0.6165577342047931
2907.257080078125	-0.5007224346245391	-9.668203058413514	-2.165185054034598	-0.3233937569662573	1.109701172365639	0.3884555022896942	0.04320987654320988	-0.4456066945606694	0.627450980392157
2926.788330078125	-0.4302001973301035	-9.686686399677013	-1.852272685593515	-1.068255347551544	-0.4051819887847553	-0.004051819887847552	0.05555555555555556	-0.4456066945606694	0.6187363834422659
2946.319580078125	-0.2685121352840336	-9.679496356686194	-1.819993272520483	-0.7071127220928615	-1.140616366737413	1.120669308030739	0.08024691358024692	-0.4644351464435146	0.6013071895424837
2965.850830078125	-0.2183970506435569	-9.718492943143564	-1.579017708572705	0.03774886849242525	0.3742667944129817	1.513176630208281	0.05555555555555556	-0.4518828451882845	0.627450980392157
2985.382080078125	-0.3811238091756528	-9.829552634736997	-1.899329273869011	-0.007532021459355256	-0.7464946173601986	0.3698935443924358	0.06584362139917696	-0.4686192468619246	0.6318082788671024
3004.913330078125	-0.2904298436253555	-9.851065170616357	-1.848992910502425	0.376196806022321	1.130688889255296	0.01130688889255296	0.06995884773662552	-0.4518828451882845	0.6122004357298475
3024.444580078125	-0.3405206785424231	-9.809643611818068	-1.847422740911681	0.3762165307324652	0.3844208242801829	0.7585611893748774	0.07613168724279835	-0.4476987447698744	0.6187363834422659
3043.975830078125	-0.4329343536444874	-9.960102031115408	-1.92657686933464	-0.3082902646272583	1.110154277135809	1.143177014469471	0.06378600823045268	-0.4456066945606694	0.6165577342047931
3063.507080078125	-0.4901859298032546	-9.624653586386071	-1.82956888205168	-0.7146546059072888	-1.513976951610055	1.116935702182013	0.06378600823045268	-0.4539748953974895	0.607843137254902
3083.038330078125	-0.05937746857763783	-9.978150898167826	-1.974248794341642	-1.105974628978753	-1.898850880660407	-0.3963469993726418	0.0617283950617284	-0.4539748953974895	0.6230936819172114
3102.569580078125	-0.3291313917812494	-9.680815945801708	-2.073190697066484	-0.3083198516924747	2.229556374598479	0.0222955637459848	0.06995884773662552	-0.4414225941422594	0.6187363834422659
3122.100830078125	-0.705320382243136	-9.925977618252995	-2.089210670593667	-1.015432573785336	1.088940007861067	1.142964871776724	0.04732510288065844	-0.4539748953974895	0.5969498910675382
3141.632080078125	-0.5218995159967392	-9.765709175431505	-1.857140817567906	-1.414255031250939	-1.161830636012155	1.120457165337992	0.07818930041152264	-0.4539748953974895	0.6209150326797386
3161.163330078125	0.006896015094482842	-9.41140859156182	-1.733127732053409	-1.045629696108262	0.7148997658331701	0.007148997658331701	0.05555555555555556	-0.4497907949790795	0.6209150326797386
3180.694580078125	-0.1464157883240027	-9.59107378189522	-1.824452190412345	-1.790481424338477	-1.173117427804781	-0.01173117427804781	0.05967078189300412	-0.4539748953974895	0.6252723311546842
3200.225830078125	-0.349489034583248	-9.696378205799544	-1.649929962251971	-1.414294480671227	0.3307054939380721	-0.374051435626657	0.04732510288065844	-0.4539748953974895	0.6143790849673203
3219.757080078125	-0.5825591886996371	-9.771070385115214	-1.504480121243767	0.4064037907003188	1.131595098795636	1.520749913252107	0.06584362139917696	-0.4560669456066945	0.6187363834422659
3239.288330078125	-0.2987970086066614	-9.677680658645931	-1.698993215139575	0.7674971043836409	2.261830883280763	0.7773352899648832	0.0617283950617284	-0.4435146443514644	0.6230936819172114
3258.819580078125	-0.439285760367406	-9.585141693306253	-1.81698327560232	1.497255202629928	3.776260939660987	0.4151210999626476	0.0720164609053498	-0.4518828451882845	0.6209150326797386
3278.350830078125	-0.3287191464832936	-9.63959141600612	-1.990317267315644	0.7599354958590693	2.634738363383235	0.02634738363383235	0.04938271604938272	-0.4435146443514644	0.6143790849673203
3297.882080078125	-0.4935606829776976	-9.962128903830358	-2.250516799496042	0.03015767290263735	1.866576371978124	-0.3586927268462565	0.06584362139917696	-0.4497907949790795	0.6252723311546842
3317.413330078125	-0.6843029448833796	-9.844435902479375	-1.973812299320278	-0.7599354958590693	-2.634738363383235	-0.02634738363383235	0.06995884773662552	-0.4456066945606694	0.6100217864923748
3336.944580078125	-0.1387912711221027	-9.838723071806232	-2.331707904685371	0.03772914378228104	1.120534859388095	0.7659223297259565	0.04938271604938272	-0.4330543933054393	0.627450980392157
3356.475830078125	-0.1376444612858773	-9.724042088183696	-1.972427033870529	-1.376555474533874	1.078106320838611	0.7654980443404616	0.05555555555555556	-0.4560669456066945	0.6165577342047931
3376.007080078125	-0.6037312180461268	-9.86807129956218	-2.156006533724227	-1.353910098380448	1.451920010481422	1.523953162368965	0.08230452674897121	-0.4497907949790795	0.636165577342048
3395.538330078125	-0.1282274853619829	-9.792445505895257	-1.723227782471615	-1.098393295744037	-3.018026425737993	1.101895207440733	0.06584362139917696	-0.4560669456066945	0.6230936819172114
3415.069580078125	0.1860347843488769	-9.679349847940596	-1.906349568795966	-1.030506479059119	-0.03091519437177356	1.509124810320433	0.05349794238683128	-0.4393305439330544	0.6318082788671024
3434.600830078125	0.003267650229385718	-9.774245078071532	-1.660396749118455	0.1357736333698368	5.974222462732438	0.8144592057593999	0.06378600823045268	-0.4330543933054393	0.6143790849673203
3454.132080078125	-0.8552372243843377	-9.766146680858013	-1.557465766892805	-0.6392554924731594	2.965896962091477	0.4070174601869525	0.04732510288065844	-0.4518828451882845	0.6230936819172114
3473.663330078125	-0.4301658435552738	-9.683251022194046	-1.508666229747275	0.0679164037501347	1.867709133903549	1.528111053603187	0.05967078189300412	-0.4435146443514644	0.6165577342047931
3493.194580078125	-0.4824118726403314	-9.857348880194758	-1.851226916271495	0.3988619068858915	0.7582345139229947	1.517016307403381	0.05349794238683128	-0.4602510460251046	0.6209150326797386
3512.725830078125	-0.3815340336633246	-9.870575083504177	-1.961990559158307	0.4365713259580283	2.625037438286204	1.535684336647013	0.05349794238683128	-0.4267782426778242	0.636165577342048
3532.257080078125	-0.579159175396643	-9.431069054815804	-1.84098140813112	3.944942028843296e-05	-1.492536129950227	1.494508600964649	0.06584362139917696	-0.4456066945606694	0.6405228758169935
3551.788330078125	-0.3295436370792053	-9.722040475597298	-2.156064126817324	0.01513307940421527	-1.1189489926925	1.875602962903264	0.04320987654320988	-0.4560669456066945	0.636165577342048
3571.319580078125	-0.6416749623454842	-9.622041689093875	-1.871357217916533	-1.0682356228414	-1.151450053759869	0.7432024805944768	0.06378600823045268	-0.4372384937238493	0.627450980392157
3590.850830078125	-0.1993610177673581	-9.83509167572571	-2.089707789923555	-1.075787369010899	-1.151676606144954	0.3658417245045882	0.05761316872427984	-0.4456066945606694	0.6318082788671024
3610.382080078125	-0.10753236724254	-9.743135714152992	-1.801363422511388	-1.068245485196472	-0.7783160212723121	0.3695753303533146	0.05555555555555556	-0.4435146443514644	0.6122004357298475
3629.913330078125	-0.4108327515673127	-9.770143843599957	-2.078474105554257	-0.376196806022321	-1.130688889255296	-0.01130688889255296	0.06995884773662552	-0.4246861924686192	0.6209150326797386
3649.444580078125	-0.5207234044113945	-9.648098016897027	-2.214884862161693	-0.7222162144318603	-1.141069471507583	0.3659477958509619	0.07818930041152264	-0.4435146443514644	0.6034858387799565
3668.975830078125	-0.2692204292886098	-9.750325757143811	-1.83364283558442	-1.083309528115182	-2.271305255992709	1.109362419138186	0.06995884773662552	-0.4372384937238493	0.6339869281045752
3688.507080078125	-0.1179213529130854	-9.771933271106525	-1.671594058902639	-0.3459996836993952	-0.7566486472273998	1.124508985225839	0.07613168724279835	-0.4539748953974895	0.627450980392157
3708.038330078125	-0.2074341548523277	-9.632304374121665	-2.029144105709152	0.06033507051541891	2.986884678981134	0.02986884678981134	0.05555555555555556	-0.4581589958158995	0.6122004357298475
3727.569580078125	-0.5821954428484996	-9.734695800001457	-1.906698158569972	0.3912509865859594	2.996812156463251	-1.102107350133481	0.04938271604938272	-0.4267782426778242	0.6100217864923748
3747.100830078125	-0.583323054987026	-9.8474570138541	-2.073963657000151	0.03768969436199261	2.613070989338322	-0.7285862712386924	0.06790123456790124	-0.4414225941422594	0.6318082788671024
3766.632080078125	-0.6851132898073027	-9.925470394871688	-1.998074147591153	0.01508376762885473	0.7467211697452836	0.007467211697452836	0.04938271604938272	-0.4518828451882845	0.6209150326797386
3786.163330078125	-0.2900489208868031	-9.812972896761119	-2.07940771990551	0.3912904360062478	1.504276026513023	0.392401250831168	0.06790123456790124	-0.4456066945606694	0.6165577342047931
3805.694580078125	-0.3997900337698617	-9.67597307395587	-1.730220796459735	-0.3535711545790389	-0.01060713463737117	-0.0001060713463737117	0.0617283950617284	-0.4393305439330544	0.6209150326797386
3825.225830078125	-0.3064680044450956	-9.434679232388344	-1.65661682348205	-1.098442607519398	-1.152356263300209	-0.7662405437650777	0.04732510288065844	-0.4476987447698744	0.6383442265795207
3844.757080078125	-0.3989786784407966	-9.594837541049353	-1.695852875958088	0.03018725996785367	0.7471742745154536	0.76218872387723	0.0617283950617284	-0.4414225941422594	0.6405228758169935
3864.288330078125	-0.3888038986603655	-9.587460573107254	-1.947907532288431	-0.3082804022721863	0.7370202446482523	1.516804164710634	0.051440329218107	-0.4539748953974895	0.6209150326797386
3883.819580078125	-0.5229341708621972	-9.869174661977297	-2.104748680868093	0.3611327631036104	-0.3623003454651006	0.7510939776774245	0.05967078189300412	-0.4602510460251046	0.6187363834422659
3903.350830078125	-0.2779190071565077	-9.610082533832584	-1.968131801611679	0.3535612922239668	0.383741167124928	-0.3735210788947885	0.0720164609053498	-0.4644351464435146	0.6165577342047931
3922.882080078125	-0.5421924928696468	-9.774804842520227	-1.797192470085011	-0.7373197067708593	-1.141522576277753	-0.3887737163288153	0.06995884773662552	-0.4476987447698744	0.636165577342048
3942.413330078125	-0.4009206771238143	-9.789037409351128	-1.927804511582229	-0.7448221411649982	-3.007419291100621	1.102001278787107	0.0617283950617284	-0.4330543933054393	0.6296296296296297
3961.944580078125	-0.2891516811206638	-9.723248920147189	-2.196124669889274	-1.083309528115182	-2.271305255992709	1.109362419138186	0.06378600823045268	-0.4476987447698744	0.6296296296296297
3981.475830078125	-0.3727718002714777	-10.0044527544205	-2.200920052693437	-1.083358839890543	-0.4056350935549253	-0.7587733320676248	0.07407407407407408	-0.4393305439330544	0.6165577342047931
4001.007080078125	-0.5933038369801835	-9.835434203068864	-1.901745152563649	-2.181771860344724	-2.677393454317804	-0.4041324251092158	0.05967078189300412	-0.4476987447698744	0.6209150326797386
4020.538330078125	-0.5610991938876633	-9.645272924119858	-2.013127163397395	-2.174180664754936	-4.169703031882946	1.467736931945322	0.06584362139917696	-0.4497907949790795	0.6405228758169935
4040.069580078125	-0.09489421972579402	-9.489421972579406	-1.65723822264441	-1.850786907788679	-5.279404204248586	1.079281429655627	0.05555555555555556	-0.4330543933054393	0.627450980392157
4059.600830078125	-0.1671169688742979	-9.640989816722714	-1.806952983757202	0.03772914378228104	1.120534859388095	0.7659223297259565	0.05555555555555556	-0.4581589958158995	0.6209150326797386
4079.132080078125	-0.6122964224352743	-9.71449072837591	-1.966594975390623	0.4214776959741015	2.251450301028477	1.154589974708398	0.06995884773662552	-0.4476987447698744	0.6187363834422659
4098.663330078125	-0.5027432449086366	-9.870284086823267	-2.175309313557927	1.527462187307926	3.777167149201328	1.924564124322202	0.06378600823045268	-0.4393305439330544	0.6296296296296297
4118.194580078125	-0.5234545295103523	-9.921210526792809	-2.258870829210502	0.4516649559419552	2.998624575543931	1.916778698585628	0.06584362139917696	-0.4330543933054393	0.6209150326797386
4137.725830078125	-0.6419851567240932	-9.653061126954771	-1.943618362460434	-1.053171579922689	0.3415391809605283	0.003415391809605283	0.06790123456790124	-0.4560669456066945	0.6209150326797386
4157.257080078125	-0.1882152386454181	-9.730614773632723	-1.720736123391323	-1.053141992857473	-0.7778629165021421	1.124296842533092	0.04732510288065844	-0.4518828451882845	0.6230936819172114
4176.788330078125	-0.1388609890769041	-9.845694867286367	-2.018925878507613	-1.053171579922689	0.3415391809605283	0.003415391809605283	0.05761316872427984	-0.4560669456066945	0.6252723311546842
4196.319580078125	-0.4524240584294661	-9.888870489411255	-1.913109179196272	0.436541738892812	3.744439535748874	0.4148028859235265	0.05761316872427984	-0.4456066945606694	0.6296296296296297
4215.850830078125	-0.3922463489793256	-9.93170560500327	-2.035861279093492	-0.3309159160705404	-0.009927477482116214	1.131976196923292	0.0411522633744856	-0.4518828451882845	0.6427015250544663
4235.382080078125	-0.3299275910331839	-9.760435870995153	-1.955967534106554	-0.3309060537154684	-0.383061509969673	1.505603347164454	0.07613168724279835	-0.4456066945606694	0.6318082788671024
4254.913330078125	-0.320627822105767	-9.840559988354476	-1.868971651376155	-0.3611130383934663	-0.383967719510013	-0.003839677195100129	0.06790123456790124	-0.4539748953974895	0.6427015250544663
4274.444580078125	-0.3610319029260131	-9.840564029975043	-1.950183975073467	-0.007551746169499472	-0.0002265523850849842	-0.3773607560898886	0.05761316872427984	-0.4518828451882845	0.627450980392157
4293.975830078125	-0.4913256668034857	-9.738627286409169	-2.11810724725112	0.03018725996785367	0.7471742745154536	0.76218872387723	0.04938271604938272	-0.4414225941422594	0.6296296296296297
4313.507080078125	-0.3011472109670668	-9.912700894686475	-1.973393991591469	-1.414274755961084	-0.4155625710370415	0.3732028648556673	0.05967078189300412	-0.4560669456066945	0.6296296296296297
4333.038330078125	-0.4490008058082049	-9.546545227285133	-2.017170804775874	-0.2856744755390484	2.603370064241291	0.7807506817744885	0.06378600823045268	-0.4372384937238493	0.6296296296296297
4352.569580078125	-0.4811104708173726	-9.727208697898877	-1.965919014350592	-0.7146546059072888	-1.513976951610055	1.116935702182013	0.0617283950617284	-0.4414225941422594	0.6296296296296297
4372.100830078125	-0.361712915991754	-9.908665336549131	-1.690969587906566	-1.436890545049293	-1.908778358142524	0.7356291975506503	0.04526748971193416	-0.4602510460251046	0.6405228758169935
4391.632080078125	-0.3990009073539216	-9.597060432361861	-1.918186465035067	-0.7071127220928615	-1.140616366737413	1.120669308030739	0.06584362139917696	-0.4644351464435146	0.6296296296296297
4411.163330078125	-0.4420229478972161	-9.858860446287263	-1.92160567603576	-0.3309159160705404	-0.009927477482116214	1.131976196923292	0.05349794238683128	-0.4414225941422594	0.6296296296296297
4430.694580078125	-0.6414678292913641	-9.601328383681874	-1.819814430810341	-0.7071324468030056	-0.3943483017622991	0.3734150075484148	0.05555555555555556	-0.4414225941422594	0.6296296296296297
4450.225830078125	-0.51018689959011	-9.604548544869584	-1.879268690178774	-1.060693739026972	-0.7780894688872271	0.7469360864432033	0.0720164609053498	-0.4644351464435146	0.6122004357298475
4469.757080078125	-0.4023271610815462	-9.929685805124315	-1.854042915402385	-0.7146447435522166	-1.887110984097611	1.490562852423175	0.06790123456790124	-0.4476987447698744	0.6165577342047931
4489.288330078125	-0.169876385317233	-9.916931461016233	-2.133908973267621	0.02265523850849842	0.0006796571552549525	1.132082268269666	0.06378600823045268	-0.4393305439330544	0.627450980392157
4508.819580078125	-0.3209349852689498	-9.871276304672758	-1.910914579227742	-0.3384676622400399	-0.0101540298672012	0.7546154408334035	0.05555555555555556	-0.4435146443514644	0.6383442265795207
4528.350830078125	-0.4308993976884012	-9.756606435506788	-1.774967598580506	0.0678966790399905	2.613977198878663	0.7808567531208621	0.05761316872427984	-0.4246861924686192	0.6143790849673203
4547.882080078125	-0.4199940949902689	-9.676177175794564	-1.791039102769934	-0.3460292707646115	0.3627534502352706	0.003627534502352706	0.07407407407407408	-0.4497907949790795	0.6252723311546842
4567.413330078125	-0.4343559936793501	-10.10226603460167	-2.004406356616372	0.413925949804602	2.251223748643392	0.7772292186185095	0.05761316872427984	-0.4330543933054393	0.6143790849673203
4586.944580078125	-0.5120197745177865	-9.787836037637231	-2.029865534980575	-0.6769846362554405	1.845362102703382	-0.358904869539004	0.05761316872427984	-0.4372384937238493	0.6296296296296297
4606.475830078125	-0.400831761471314	-9.780145844101098	-2.048571165375324	-0.692058541529223	0.7255069004705412	0.007255069004705413	0.06378600823045268	-0.4414225941422594	0.6230936819172114
4626.007080078125	-0.4305396934578319	-9.72063601244985	-2.217609924829798	-1.068265209906616	-0.03204795629719848	-0.3776789701290098	0.05967078189300412	-0.4602510460251046	0.6252723311546842
4645.538330078125	-0.4320189265857913	-9.868559325245791	-1.861384519164511	-0.3233838946111852	0.7365671398780824	0.7620826525308564	0.05555555555555556	-0.4497907949790795	0.6252723311546842
4665.069580078125	-0.3299215286023316	-9.759829627909923	-1.895331100721924	-0.6920486791741509	0.3523728679829845	0.3808822192458676	0.06790123456790124	-0.4456066945606694	0.6100217864923748
4684.600830078125	-0.2287334952467158	-9.742036393358443	-1.933833599064834	-1.782939540524049	-0.7997568429321394	-0.007997568429321394	0.06378600823045268	-0.4497907949790795	0.6143790849673203
4704.132080078125	-0.3002994810528878	-9.827927903268582	-1.575207470782039	-1.04561983375319	0.3417657333456133	0.3807761478994939	0.04320987654320988	-0.4539748953974895	0.6318082788671024
4723.663330078125	-0.2580099842375788	-9.639382262141716	-1.827983556383805	-0.3234036193213294	1.482835204853196	0.01482835204853196	0.06378600823045268	-0.4330543933054393	0.6100217864923748
4743.194580078125	-0.2700287534022489	-9.831158168507713	-1.837692539393752	0.007532021459355256	0.7464946173601986	-0.3698935443924358	0.0617283950617284	-0.4456066945606694	0.627450980392157
4762.725830078125	-0.6650203731525209	-9.93638074959553	-2.038822776564837	0.01510349233899894	0.0004531047701699683	0.7547215121797772	0.06995884773662552	-0.4393305439330544	0.627450980392157
4782.257080078125	-0.6347142813219103	-9.936074596837489	-1.947595317099538	-1.828190843410613	-3.03992035216799	-0.0303992035216799	0.05555555555555556	-0.4581589958158995	0.6165577342047931
4801.788330078125	-0.1770280329126542	-9.621995210457341	-1.947516505498458	-0.6920486791741509	0.3523728679829845	0.3808822192458676	0.05555555555555556	-0.4456066945606694	0.607843137254902
4821.319580078125	-0.1993468720953694	-9.833677108526841	-1.94822277869275	-0.3611031760383941	-0.7571017519975698	0.3697874730460621	0.06790123456790124	-0.4372384937238493	0.6339869281045752
4840.850830078125	-0.3556717036474444	-9.304544102118173	-1.872824326182787	0.3912904360062478	1.504276026513023	0.392401250831168	0.05967078189300412	-0.4330543933054393	0.627450980392157
4860.382080078125	-0.1585436812440141	-9.793762063795345	-1.915515964244632	0.04525130288656418	2.240163509235851	0.02240163509235851	0.04938271604938272	-0.4351464435146443	0.6100217864923748
4879.913330078125	-0.4448369262178219	-10.14025827834785	-1.784188555906843	0.4214481089088852	3.370852398491147	0.03370852398491148	0.0617283950617284	-0.4497907949790795	0.607843137254902
4899.444580078125	-0.4224160361157598	-9.918371288343653	-1.772869997505613	-0.3837485521918205	-1.130915441640381	-0.3886676449824416	0.05967078189300412	-0.4623430962343096	0.6187363834422659
4918.975830078125	-0.3684331205915203	-9.570584786424755	-2.239789328102911	0.01509362998392684	0.3735871372577268	0.381094361938615	0.05967078189300412	-0.4476987447698744	0.6165577342047931
4938.507080078125	-0.2385475603914354	-9.7133418977294	-2.114315196753011	0.04528088995178051	1.12076141177318	1.143283085815845	0.07613168724279835	-0.4435146443514644	0.6187363834422659
4958.038330078125	-0.4508943050444043	-9.735895150905071	-1.76403097332297	0.04528088995178051	1.12076141177318	1.143283085815845	0.08230452674897121	-0.4456066945606694	0.6187363834422659
4977.569580078125	-0.3317362162374511	-9.941298391421881	-1.864018645369832	0.3611426254586826	-0.7354343779526574	1.124721127918587	0.0617283950617284	-0.4393305439330544	0.6122004357298475
4997.100830078125	-0.1356054637092229	-9.520142330518256	-1.780393474193308	0.04530061466192473	0.3744933467980667	1.89053738629817	0.05761316872427984	-0.4414225941422594	0.6143790849673203
5016.632080078125	-0.1777322852966622	-9.692420448858138	-1.920741779639308	-0.3384676622400399	-0.0101540298672012	0.7546154408334035	0.05967078189300412	-0.4267782426778242	0.6100217864923748
5036.163330078125	-0.2277210692943829	-9.640793798125157	-1.908559324841626	0.3988619068858915	0.7582345139229947	1.517016307403381	0.04526748971193416	-0.4351464435146443	0.6165577342047931
5055.694580078125	-0.4012096529944403	-9.817934996413721	-1.787838139279923	-0.3309455031357568	1.109474619980554	0.01109474619980554	0.06790123456790124	-0.4539748953974895	0.6209150326797386
5075.225830078125	-0.5631988157728407	-9.855235112637592	-1.801424046819911	-0.6467973762875867	2.592536377218835	0.4032838543382261	0.04938271604938272	-0.4435146443514644	0.6209150326797386
5094.757080078125	-0.4816954953946189	-9.785711155623503	-1.756728775361384	-1.0682356228414	-1.151450053759869	0.7432024805944768	0.0617283950617284	-0.4476987447698744	0.6034858387799565
5114.288330078125	-0.3798123033012735	-9.698402047299066	-1.912960649640391	0.3611524878137546	-1.108568410440214	1.498348278159749	0.05967078189300412	-0.4309623430962343	0.6209150326797386
5133.819580078125	-0.2380474098461213	-9.663326843197988	-2.162314493026038	0.05278332434591944	2.986658126596049	-0.3474919093000773	0.06378600823045268	-0.4372384937238493	0.607843137254902
5153.350830078125	0.01363440698680606	-9.747670412430505	-2.012499701804183	-0.3762165307324652	-0.3844208242801829	-0.7585611893748774	0.05967078189300412	-0.4602510460251046	0.6209150326797386
5172.882080078125	-0.3801103728181779	-9.728208998989505	-1.863948927415031	0.007571470879643689	-0.7460415125900286	1.124615056572213	0.051440329218107	-0.4393305439330544	0.6165577342047931
5192.413330078125	-0.5228280783222822	-9.858565407985784	-2.053712106738068	0.3762362554426094	-0.3618472406949307	1.505815489857202	0.05761316872427984	-0.4456066945606694	0.6209150326797386
5211.944580078125	-0.2598620568629542	-9.824589524679254	-2.170595773570269	-0.6920486791741509	0.3523728679829845	0.3808822192458676	0.05967078189300412	-0.4351464435146443	0.607843137254902
5231.475830078125	-0.5301737237049767	-9.583028936154228	-1.787483487075064	-0.376196806022321	-1.130688889255296	-0.01130688889255296	0.05761316872427984	-0.4456066945606694	0.607843137254902
5251.007080078125	-0.5000111094045369	-9.59707053641328	-2.121217274278346	-0.6995807006335061	-0.3941217493772142	0.7507757636383033	0.08024691358024692	-0.4456066945606694	0.6252723311546842
5270.538330078125	-0.1788457517631999	-9.803767095511912	-1.946522266838682	-0.3384479375298957	-0.7564220948423148	1.501869741315728	0.06995884773662552	-0.4393305439330544	0.6230936819172114
5290.069580078125	-0.1878302742862976	-9.692118337720665	-1.910726643871321	-1.045609971398118	-0.03136829914194354	0.7544032981406561	0.08436213991769548	-0.4560669456066945	0.6209150326797386
5309.600830078125	-0.2502197605923828	-9.870460907723125	-1.687944434911272	-0.6694230277308688	1.47245462260091	0.3920830367920469	0.06995884773662552	-0.4456066945606694	0.6013071895424837
5329.132080078125	-0.3830466101609716	-10.02183273326888	-1.939265537108488	-2.12896881128866	-0.4370033926968688	-0.004370033926968688	0.05555555555555556	-0.4414225941422594	0.6165577342047931
5348.663330078125	-0.03623919082472107	-9.68452514307817	-1.85832602279953	-0.6920388168190788	-0.02076116450457237	0.7545093694870298	0.05967078189300412	-0.4309623430962343	0.6230936819172114
5368.194580078125	-0.2100268544468249	-9.891574333571379	-1.698699187243239	-0.6618811439164415	1.845815207473552	0.3958166426407733	0.05967078189300412	-0.4539748953974895	0.6209150326797386
5387.725830078125	-0.450701317662273	-9.71659641269194	-1.853973197447583	0.03769955671706471	2.239936956850766	-0.3549591209975301	0.06378600823045268	-0.4330543933054393	0.6013071895424837
5407.257080078125	-0.4991815667829148	-9.514116274251077	-1.904940053622807	0.3761869436672488	1.503822921742853	-0.3623202613486092	0.051440329218107	-0.4665271966527196	0.6165577342047931
5426.788330078125	-0.4226464084881469	-9.941408525582364	-2.056852445919556	-0.3762066683773931	-0.7575548567677397	-0.3849340391337152	0.06995884773662552	-0.4435146443514644	0.6100217864923748
5446.319580078125	-0.4530565720483887	-9.952121851303508	-2.178904335053336	-0.3610834513282499	-1.503369816972683	1.117041773528386	0.06790123456790124	-0.4476987447698744	0.6122004357298475
5465.850830078125	-0.2408694714078635	-9.945532999372208	-2.105745950743295	-0.676945186835152	0.3528259727531544	1.135603731425645	0.06584362139917696	-0.4414225941422594	0.6187363834422659
5485.382080078125	-0.3198285916384064	-9.76063694161842	-1.95587659764377	-1.015432573785336	1.088940007861067	1.142964871776724	0.0617283950617284	-0.4414225941422594	0.6209150326797386
5504.913330078125	-0.1956881950760108	-9.467809406590982	-1.717771594704552	0.04523157817641997	2.986431574210964	-0.7248526653899658	0.0720164609053498	-0.4539748953974895	0.6143790849673203
5524.444580078125	-0.4507053592828412	-9.717000574748759	-1.894397486370671	-1.030555790834479	1.83475496806601	-0.3590109408853777	0.06584362139917696	-0.4435146443514644	0.6165577342047931
5543.975830078125	-0.715409277586493	-9.924766142487679	-1.988240884748734	-0.6920190921089346	-0.767029229479686	1.501763669969354	0.07407407407407408	-0.4560669456066945	0.6230936819172114
5563.507080078125	-0.2308351379421772	-9.952200662904588	-1.742342626948894	-1.767816323474906	-1.545571803137083	1.49397824423278	0.0617283950617284	-0.4414225941422594	0.6100217864923748
5583.038330078125	-0.1990255632601979	-9.801546225009691	-1.764794839610359	-0.3233740322561131	0.3634331073905256	1.135709802772018	0.07613168724279835	-0.4497907949790795	0.6209150326797386
5602.569580078125	-0.3186150950628059	-9.639287284058362	-1.939695969699001	-0.29323608406362	2.976277544343763	0.02976277544343763	0.06584362139917696	-0.4393305439330544	0.6230936819172114
5622.100830078125	-0.6121751738182284	-9.702365866671325	-1.763967317799021	0.03018725996785367	0.7471742745154536	0.76218872387723	0.051440329218107	-0.4372384937238493	0.6034858387799565
5641.632080078125	-0.4622189258764869	-9.858256224012319	-1.901575404499785	-0.7071028597377893	-1.513750399224969	1.494296458271901	0.05555555555555556	-0.4518828451882845	0.5991285403050109
5661.163330078125	-0.3318423087773663	-9.951907645413392	-1.915055219499858	-0.3912805736511757	-1.87741005900058	-0.0187741005900058	0.051440329218107	-0.4456066945606694	0.6230936819172114
5680.694580078125	-0.2996346344694198	-9.761443244921775	-1.996119013641288	-0.6769944986105125	2.218496135190938	-0.7325320197801661	0.06995884773662552	-0.4393305439330544	0.6013071895424837
5700.225830078125	-0.3208096950313358	-9.858747280911354	-1.667862632713053	-0.6920486791741509	0.3523728679829845	0.3808822192458676	0.05967078189300412	-0.4351464435146443	0.6122004357298475
5719.757080078125	-0.2808552444993014	-9.903706268111957	-2.043448411305136	0.3988520445308194	1.131368546410551	1.143389157162219	0.05967078189300412	-0.4351464435146443	0.6165577342047931
5739.288330078125	-0.3678824497891037	-9.515517706183099	-1.782485012837349	0.04524144053149207	2.613297541723408	-0.3512255151488037	0.06378600823045268	-0.4184100418410042	0.627450980392157
5758.819580078125	-0.6728914292090808	-9.713385345150508	-1.977246666398101	0.09049274341805627	4.853461050959258	-0.3288238800564452	0.06378600823045268	-0.4497907949790795	0.6165577342047931
5778.350830078125	-0.5530240359924096	-9.847858144695493	-2.053478703150255	-1.444452153573865	-1.535870878040052	-0.01535870878040052	0.05967078189300412	-0.4372384937238493	0.627450980392157
5797.882080078125	-0.4723229772969745	-9.858560355960075	-1.952196702116428	-1.451994037388292	-1.909231462912694	-0.01909231462912694	0.06584362139917696	-0.4539748953974895	0.6165577342047931
5817.413330078125	-0.1960074831008982	-9.499738209079725	-1.880987389325399	-0.7146348811971446	-2.260245016585168	1.864190002664337	0.0720164609053498	-0.4456066945606694	0.5991285403050109
5836.944580078125	-0.189869271862952	-9.896018095386108	-2.102760203548541	-1.023013907020052	2.208115552938652	-0.3552773350366513	0.06790123456790124	-0.4560669456066945	0.6143790849673203
5856.475830078125	-0.3003459596894221	-9.832575766922007	-2.04008679339754	-1.053171579922689	0.3415391809605283	0.003415391809605283	0.0617283950617284	-0.4456066945606694	0.5925925925925927
5876.007080078125	-0.3389909251573613	-9.656668273311885	-1.69834453503838	-0.3308961913603962	-0.7561955424572299	1.879230497405616	0.06584362139917696	-0.4518828451882845	0.6122004357298475
5895.538330078125	-0.1871209698765793	-9.621187896748843	-1.886971008576612	0.007581333234715798	-1.119175545077585	1.498242206813375	0.06378600823045268	-0.4560669456066945	0.6056644880174292
5915.069580078125	0.06433754741995523	-9.727861419620641	-1.950396160153297	-0.6845166577147956	1.098867485343183	0.01098867485343183	0.06378600823045268	-0.4581589958158995	0.6165577342047931
5934.600830078125	-0.4618127430093833	-9.817637937301958	-1.879338408133576	0.05278332434591944	2.986658126596049	-0.3474919093000773	0.0720164609053498	-0.4665271966527196	0.607843137254902
5954.132080078125	-0.3216069046884122	-9.938468246619003	-1.560745541983895	-0.3309159160705404	-0.009927477482116214	1.131976196923292	0.05967078189300412	-0.4686192468619246	0.6318082788671024
5973.663330078125	-0.2182222505539824	-9.701012934186123	-1.85086923285121	0.08301003373406154	2.241296271161276	1.909205415541802	0.05555555555555556	-0.4476987447698744	0.6034858387799565
5993.194580078125	-0.2584111150789721	-9.679495346281051	-1.799690191596156	0.7373492938360756	0.02212047881508227	1.509655167052302	0.06790123456790124	-0.4476987447698744	0.6230936819172114
6012.725830078125	-0.3004500314190531	-9.842982939885109	-2.070911223066022	0.3460292707646115	-0.3627534502352706	-0.003627534502352706	0.06584362139917696	-0.4330543933054393	0.6013071895424837
6032.257080078125	-0.3527435495457871	-10.02182970205345	-1.878356294335504	-0.3611623501688268	1.481702442927771	-1.871975428400911	0.06995884773662552	-0.4476987447698744	0.6143790849673203
6051.788330078125	-0.4707144123108329	-9.697703857345912	-2.02494587234394	-0.3233838946111852	0.7365671398780824	0.7620826525308564	0.07613168724279835	-0.4581589958158995	0.6230936819172114
6071.319580078125	-0.3197356343653379	-9.751341214311569	-2.036218962513777	-0.7825611473023514	-3.75482011800116	-0.0375482011800116	0.04938271604938272	-0.4393305439330544	0.6165577342047931
6090.850830078125	-0.02652818700449038	-9.72352577115611	-1.698562782549063	-1.444491602994153	-0.04333474808982461	-1.509867309745049	0.06584362139917696	-0.4435146443514644	0.607843137254902
6110.382080078125	-0.09907426579844979	-9.90742657984498	-2.051917627205789	-1.436999030955087	2.195695999220601	-3.374269455102134	0.06584362139917696	-0.4393305439330544	0.6143790849673203
6129.913330078125	-0.5326178937435926	-9.827445940015826	-1.991647970887722	-1.053211029342978	1.834075310910755	-1.491093209155044	0.06378600823045268	-0.4393305439330544	0.6230936819172114
6149.444580078125	-0.4717167342117453	-9.797936047437149	-1.94915942425943	-1.075816956076115	-0.03227450868228347	-0.7550397262188984	0.06584362139917696	-0.4539748953974895	0.636165577342048
6168.975830078125	-0.5226169036475939	-9.837447940516967	-1.961745030708789	-0.3007681055229752	2.229782926983564	0.3996563198358734	0.06995884773662552	-0.4602510460251046	0.6318082788671024
6188.507080078125	-0.4402032082363863	-9.676886480204281	-1.902387770233992	-1.752752280556195	-0.05258256841668587	0.7541911554479087	0.06584362139917696	-0.4456066945606694	0.6165577342047931
6208.038330078125	-0.6216739925586289	-9.642146730610362	-1.821657409789438	-1.406723009791584	-0.4153360186519565	0.750563620945556	0.07407407407407408	-0.4456066945606694	0.6187363834422659
6227.569580078125	-0.2090215013304864	-9.791039021937525	-1.744167418635434	1.972471014421648e-05	-0.7462680649751136	0.7472543004823244	0.06790123456790124	-0.4476987447698744	0.6230936819172114
6247.100830078125	-0.3393051611565385	-9.688091873229601	-1.811029968505369	-0.3309257784256125	0.3632065550054406	0.75834904668213	0.06995884773662552	-0.4288702928870293	0.6209150326797386
6266.632080078125	-0.1692307364314639	-9.852366572439315	-1.736734878410523	-0.6995708382784341	-0.7672557818647709	1.124402913879466	0.06995884773662552	-0.4497907949790795	0.627450980392157
6286.163330078125	-0.3489808007967974	-9.645554827154491	-1.617080680678824	-0.3535119804486063	-2.249411329562712	2.2416568301006	0.07613168724279835	-0.4435146443514644	0.6296296296296297
6305.694580078125	-0.09794867447020746	-9.794867447020748	-1.904864273237154	-0.3535514298688947	-0.7568751996124847	0.7471482291359507	0.06584362139917696	-0.4539748953974895	0.6296296296296297
6325.225830078125	-0.4416339419175274	-9.819959848318387	-2.07117190759267	-0.6920388168190788	-0.02076116450457237	0.7545093694870298	0.06995884773662552	-0.4560669456066945	0.6165577342047931
6344.757080078125	-0.2588253811872121	-9.72092195710505	-1.902775765808539	-1.083339115180399	-1.151903158530039	-0.01151903158530039	0.08641975308641976	-0.4414225941422594	0.636165577342048
6364.288330078125	-0.127733397247521	-9.743036694449071	-1.831863512129272	-0.3082804022721863	0.7370202446482523	1.516804164710634	0.051440329218107	-0.4330543933054393	0.6318082788671024
6383.819580078125	-0.4296070895117209	-9.627375617838752	-1.98061434673655	0.0679164037501347	1.867709133903549	1.528111053603187	0.07613168724279835	-0.4414225941422594	0.6165577342047931
6403.350830078125	-0.3303064929614522	-9.79832606382198	-1.705340580241926	0.0452710275967084	1.493895444260737	0.7696559355746829	0.07613168724279835	-0.4476987447698744	0.607843137254902
6422.882080078125	-0.3480865922460843	-9.556133972083174	-1.764115847354903	-0.3309159160705404	-0.009927477482116214	1.131976196923292	0.07613168724279835	-0.4351464435146443	0.6448801742919391
6442.413330078125	-0.3518372161333693	-9.931196360811677	-1.904118594242322	-1.060674014316828	-1.524357533862341	1.494190386925528	0.05761316872427984	-0.4225941422594142	0.6339869281045752
6461.944580078125	-0.3403327431860021	-9.790850076175962	-1.987895326190153	-1.060693739026972	-0.7780894688872271	0.7469360864432033	0.06584362139917696	-0.4351464435146443	0.6143790849673203
6481.475830078125	-0.4610306894294375	-9.739432579307383	-2.13804658232431	-1.782949402879121	-0.4266228104445826	-0.3816247186704836	0.08230452674897121	-0.4560669456066945	0.6405228758169935
6501.007080078125	-0.4510246473077286	-9.7489293772375	-2.057613280991518	-1.767845910540123	-0.4261697056744126	0.3730967935092936	0.0720164609053498	-0.4476987447698744	0.6230936819172114
6520.538330078125	-0.3189232686311307	-9.67010464089085	-1.991744969781359	-1.053112405792257	-1.897265013964812	2.245178293256578	0.08024691358024692	-0.4435146443514644	0.6100217864923748
6540.069580078125	-0.3086040009153866	-9.648278879417454	-1.80873230721235	-1.429358523589938	-1.162283740782325	0.3657356531582145	0.06584362139917696	-0.4393305439330544	0.6187363834422659
6559.600830078125	-0.4809973054414631	-9.715892160307931	-1.844139934605165	0.007561608524571581	-0.3729074801024718	0.7509879063310508	0.06790123456790124	-0.4205020920502092	0.6209150326797386
6579.132080078125	-0.3422393776890481	-9.981513526480564	-1.866134433737282	-0.714674330617433	-0.767708886634941	0.3696814016996884	0.08024691358024692	-0.4393305439330544	0.6187363834422659
6598.663330078125	-0.07724749391991233	-9.744951412193254	-1.922363479892296	-0.3158321484416857	0.7367936922631674	1.139443408620745	0.0617283950617284	-0.4372384937238493	0.6209150326797386
6618.194580078125	-0.2292376874125981	-9.792455609946678	-1.926258591714894	0.7750291258429961	3.008325500640961	0.4074417455724474	0.08024691358024692	-0.4309623430962343	0.6187363834422659
6637.725830078125	-0.2998316634721193	-9.781146145191725	-1.946601078439762	0.3837386898367483	1.504049474127938	0.01504049474127938	0.06584362139917696	-0.4665271966527196	0.6187363834422659
6657.257080078125	-0.3609399560580867	-9.8313693431824	-2.040632412174247	0.3988323198206752	1.877636611385665	0.3961348566798944	0.06995884773662552	-0.4518828451882845	0.6187363834422659
6676.788330078125	-0.3190232987401936	-9.680107651797133	-1.982145110526754	-0.3761869436672488	-1.503822921742853	0.3623202613486092	0.09053497942386832	-0.4497907949790795	0.627450980392157
6696.319580078125	-0.4630252291798418	-9.93888655434781	-1.885412963847573	0.3762461177976815	-0.7349812731824875	1.879442640098364	0.08230452674897121	-0.4330543933054393	0.627450980392157
6715.850830078125	-0.2795346449786437	-9.771646316046184	-1.96612513699957	0.03017739761278156	1.12030830700301	0.3885615736360679	0.06584362139917696	-0.4539748953974895	0.6165577342047931
6735.382080078125	-0.4108660949370003	-9.773478180568718	-2.411974489169725	-0.6920782662393673	1.471774965445655	-0.739999231477619	0.06790123456790124	-0.4456066945606694	0.6122004357298475
6754.913330078125	-0.3684907136846171	-9.576344095734433	-1.805734435155891	-0.6467973762875867	2.592536377218835	0.4032838543382261	0.06790123456790124	-0.4539748953974895	0.6143790849673203
6774.444580078125	-0.2985060119257513	-9.648580990554928	-1.818747442980337	-1.429358523589938	-1.162283740782325	0.3657356531582145	0.06995884773662552	-0.4539748953974895	0.6252723311546842
6793.975830078125	-0.2190386579087578	-9.782653669663663	-1.935767514506715	-1.75277200526634	0.6936854965584277	0.006936854965584278	0.08230452674897121	-0.4393305439330544	0.6427015250544663
6813.507080078125	-0.3210532026705695	-9.883098044834728	-2.083224020127028	-3.174637956817211	1.770432503086528	-1.491729637233286	0.05967078189300412	-0.4372384937238493	0.6383442265795207
6833.038330078125	-0.378994885541356	-9.616660271307323	-1.817956295754113	-1.391629379807657	-0.04174888139422971	1.131657982884171	0.07613168724279835	-0.4351464435146443	0.6405228758169935
6852.569580078125	-0.08762435472875314	-9.772536482976328	-1.671321249514286	-0.3761573566020325	-2.623225019205524	1.483201712072096	0.07818930041152264	-0.4414225941422594	0.6187363834422659
6872.100830078125	-0.05885104749863043	-9.925508790267086	-1.759490212614603	-0.2932064969984036	1.856875446881093	1.150644226166924	0.07613168724279835	-0.4539748953974895	0.6318082788671024
6891.632080078125	-0.1890124483024946	-9.810335739340371	-1.613619032662165	-0.27062029497541	4.469493331449246	-0.3326635572515453	0.0720164609053498	-0.4414225941422594	0.6252723311546842
6911.163330078125	-0.795487926714426	-9.851822974472894	-1.924788452233213	0.4289899927233125	3.744212983363789	0.03744212983363789	0.06790123456790124	-0.4414225941422594	0.6209150326797386
6930.694580078125	-0.6038949036791388	-9.884439862863372	-1.772988214907233	-0.3686253351426773	-1.876730401845325	1.11330816767966	0.05761316872427984	-0.4414225941422594	0.6034858387799565
6950.225830078125	-0.2802510222243562	-9.843284040617441	-2.060623277909682	-0.421428384198741	-4.117120463466261	0.7135457764974129	0.06584362139917696	-0.4456066945606694	0.6427015250544663
6969.757080078125	-0.2597397978407663	-9.812363622460465	-1.957862043747896	-0.3309356407806847	0.7363405874929974	0.3847218964409677	0.06584362139917696	-0.4351464435146443	0.6318082788671024
6989.288330078125	-0.5145518498037607	-10.04104356623465	-2.103157292769366	0.3912904360062478	1.504276026513023	0.392401250831168	0.06584362139917696	-0.4497907949790795	0.6209150326797386
7008.819580078125	-0.3814289515285515	-9.860066870026868	-1.921060057259053	-1.060654289606684	-2.270625598837454	2.241444687407852	0.06584362139917696	-0.4623430962343096	0.6209150326797386
7028.350830078125	0.1352306034015229	-9.709262892170949	-1.968959323423017	-0.3535415675138225	-1.130009232100041	1.120775379377113	0.07613168724279835	-0.4497907949790795	0.6143790849673203
7047.882080078125	-0.06867420628962853	-9.897723659265887	-2.030926460379726	-0.6845265200698678	1.47200151783074	-0.3626384753877304	0.06995884773662552	-0.4497907949790795	0.6143790849673203
7067.413330078125	-0.6134977941491703	-9.834627899765509	-1.861502736566131	0.08300017137898943	2.614430303648832	1.535578265300639	0.06995884773662552	-0.4393305439330544	0.6165577342047931
7086.944580078125	-0.4317451067922961	-9.841177345896268	-2.152941974928393	-1.068225760486328	-1.524584086247426	1.116829630835639	0.06995884773662552	-0.4539748953974895	0.607843137254902
7106.475830078125	-0.06735259636382875	-9.765562666685907	-1.943497113843388	0.3686647845629658	0.384194271895098	0.3812004332849888	0.06584362139917696	-0.4497907949790795	0.6122004357298475
7126.007080078125	-0.4194828299883922	-9.625050675606897	-1.727871604504471	-0.2932459464186921	3.34941157683132	-0.3438643747977246	0.06790123456790124	-0.4309623430962343	0.6100217864923748
7145.538330078125	-0.3807277303599697	-9.789944753168685	-1.978152999810519	-0.3007779678780473	2.602916959471121	0.02602916959471122	0.05555555555555556	-0.4414225941422594	0.6187363834422659
7165.069580078125	-0.584379938765609	-9.953145391712402	-1.533804099276307	0.02265523850849842	0.0006796571552549525	1.132082268269666	0.0617283950617284	-0.4497907949790795	0.6209150326797386
7184.600830078125	-0.2799297133891848	-9.811153157100289	-1.87719533882729	-0.7146644682623609	-1.140842919122498	0.7433085519408505	0.0720164609053498	-0.4435146443514644	0.6209150326797386
7204.132080078125	-0.2909491918683686	-9.902999994917666	-1.993008986614062	-0.6845067953597235	0.7257334528556262	0.384615825094594	0.06584362139917696	-0.4497907949790795	0.6034858387799565
7223.663330078125	-0.5235232370600117	-9.928081281758741	-1.935982730801972	-1.790491286693549	-0.7999833953172244	-0.38535832451921	0.06790123456790124	-0.4456066945606694	0.6209150326797386
7243.194580078125	-0.09702819538580103	-9.702819538580105	-1.789141561913167	-0.3686351974977494	-1.503596369357768	0.7396810174384979	0.08436213991769548	-0.4330543933054393	0.6143790849673203
7262.725830078125	-0.215706341750281	-9.449422053815979	-1.939274630754767	0.3837682769019647	0.3846473766652679	1.135921945464766	0.07613168724279835	-0.4414225941422594	0.6252723311546842
7282.257080078125	-0.2488355055477759	-9.732035403262445	-1.984039620168095	-0.3083001269823305	1.483288309623366	0.7695498642283092	0.05967078189300412	-0.4288702928870293	0.6034858387799565
7301.788330078125	-0.1191590992120952	-9.8957079010075	-1.93032042038593	-1.053171579922689	0.3415391809605283	0.003415391809605283	0.08436213991769548	-0.4414225941422594	0.627450980392157
7321.319580078125	-0.4613075404383589	-9.767117680199521	-1.876807343252744	-0.3460194084095394	-0.01038058225228618	0.3772546847435149	0.06378600823045268	-0.4372384937238493	0.6209150326797386
7340.850830078125	-0.3594940662998149	-9.686780367355222	-1.720257191353992	-0.3459898213443231	-1.129782679714956	1.498136135467002	0.08024691358024692	-0.4456066945606694	0.6122004357298475
7360.382080078125	-0.2588294228077803	-9.721326119161869	-1.943200054731626	-0.7071324468030056	-0.3943483017622991	0.3734150075484148	0.0720164609053498	-0.4435146443514644	0.6165577342047931
7379.913330078125	-0.3910176963265943	-9.808840339730139	-1.868089567687147	-0.6845265200698678	1.47200151783074	-0.3626384753877304	0.06995884773662552	-0.4456066945606694	0.6056644880174292
7399.444580078125	-0.5423986155186248	-9.795417107418022	-1.838629184960431	0.04526116524163629	1.867029476748294	0.3960287853335207	0.08024691358024692	-0.4644351464435146	0.627450980392157
7418.975830078125	-0.4425554314070758	-9.912108797273236	-2.19700069114743	-0.2931867722882594	1.110607381905979	1.897898526649249	0.08230452674897121	-0.4602510460251046	0.6165577342047931
7438.507080078125	-0.4318380640653645	-9.850473073203117	-2.072599610058385	-0.759905908793853	-3.754140460845905	1.094534067089654	0.06584362139917696	-0.4497907949790795	0.6143790849673203
7458.038330078125	0.002813978320605821	-9.819612268949522	-2.157619140330937	-1.429378248300082	-0.4160156758072115	-0.3815186473241099	0.06790123456790124	-0.4497907949790795	0.6100217864923748
7477.569580078125	-0.7446877873876401	-9.82231409229936	-1.902602986529249	-0.6543195353918699	1.47290772737108	1.146804548971824	0.06790123456790124	-0.4560669456066945	0.6187363834422659
7497.100830078125	-0.3396982087567955	-9.727396633255298	-1.701888025871545	-1.090831687219465	-3.390933905840464	1.852883113771784	0.051440329218107	-0.4497907949790795	0.6230936819172114
7516.632080078125	0.196043857686012	-9.688543524328098	-1.795598050770858	-0.7297383735361436	-2.260698121355338	1.10946849048456	0.06378600823045268	-0.4330543933054393	0.6122004357298475
7536.163330078125	-0.664296923070814	-9.864035741424837	-1.873582130039324	-1.045600109043046	-0.4045023316295003	1.128030448381818	0.08230452674897121	-0.4560669456066945	0.6187363834422659
7555.694580078125	-0.2779301216130702	-9.611193979488839	-2.079298596150169	-1.068215898131255	-1.897718118734982	1.490456781076801	0.05967078189300412	-0.4476987447698744	0.6034858387799565
7575.225830078125	-0.17491022373492	-9.410214292683918	-1.97731032192205	-1.421826502130583	-0.4157891234221265	-0.004157891234221264	0.06378600823045268	-0.4476987447698744	0.6143790849673203
7594.757080078125	-0.3809277905780953	-9.809950774981251	-1.958953281301308	-1.737678375282413	1.067272633816155	0.3880312169041993	0.04526748971193416	-0.4476987447698744	0.607843137254902
7614.288330078125	-0.33921220388347	-9.678796145922753	-1.891372333375377	-1.060664151961756	-1.897491566349897	1.86781753716669	0.08230452674897121	-0.4267782426778242	0.6143790849673203
7633.819580078125	-0.4120048215320893	-9.887350840077614	-1.680305772037384	-0.3007681055229752	2.229782926983564	0.3996563198358734	0.06790123456790124	-0.4476987447698744	0.6143790849673203
7653.350830078125	-0.3605923766892219	-9.796611406295924	-1.594446595091789	0.4591871150462383	4.118253225391685	1.17325800395203	0.06584362139917696	-0.4351464435146443	0.6252723311546842
7672.882080078125	-0.2468692571413491	-9.535410562619756	-1.509542251005432	0.7674773796734966	3.008098948255876	0.03008098948255877	0.0617283950617284	-0.4456066945606694	0.6296296296296297
7692.413330078125	-0.2492325947686011	-9.771744325344962	-1.915321966457358	0.3233937569662573	-1.109701172365639	-0.3884555022896942	0.08024691358024692	-0.4539748953974895	0.6296296296296297
7711.944580078125	-0.269637726612276	-9.792055489510426	-1.967046626489119	1.105974628978753	1.898850880660407	0.3963469993726418	0.07407407407407408	-0.4372384937238493	0.6252723311546842
7731.475830078125	-0.2171087840874447	-9.589666287532348	-1.825088745651835	1.858368241023395	4.160228659171	0.4189607771577478	0.06790123456790124	-0.4309623430962343	0.6143790849673203
7751.007080078125	-0.4910003163477459	-9.706092240835201	-0.8841540091446315	5.1461048679918	9.10960702663677	0.8458130513984432	0.05967078189300412	-0.4539748953974895	0.6100217864923748
7770.538330078125	0.04224200777363279	-9.917213364050864	-0.7277614804480392	9.44927406874554	12.97004538624147	0.1297004538624147	0.07818930041152264	-0.4246861924686192	0.6252723311546842
7790.069580078125	0.9275620244521886	-10.27410058508419	-0.3024092069894856	17.43147033247393	23.28413813982496	0.2328413813982497	0.05967078189300412	-0.4644351464435146	0.6100217864923748
7809.600830078125	0.2122891515598721	-10.08421615714411	-0.9263303405840311	26.60353878125912	55.64885243209449	2.443280977151134	0.0720164609053498	-0.4393305439330544	0.5882352941176471
7829.132080078125	-1.284357298617591	-10.25391167994092	-0.6871553185993833	28.29604475249554	49.35634402914203	5.021865327083874	0.07818930041152264	-0.4623430962343096	0.5838779956427016
7848.663330078125	-1.855428180852134	-9.78524232763759	-0.4169073072813099	27.16661612385997	26.18813281207401	7.05433415830942	0.08024691358024692	-0.4790794979079497	0.5925925925925927
7868.194580078125	-0.5539657335847991	-9.94202790393444	-0.3612269111184285	26.72919672497825	4.160084856973229	7.21141216932445	0.07818930041152264	-0.4665271966527196	0.5882352941176471
7887.725830078125	0.04482662412699354	-9.658751728714789	-0.1289539666591159	29.15894350414496	1.994171290198976	7.189753033656707	0.08847736625514405	-0.4811715481171548	0.5708061002178649
7907.257080078125	0.6114567757622318	-9.561393130847538	-0.3709449877746536	33.8684178720483	10.71754507347488	4.258118846961164	0.09053497942386832	-0.5104602510460251	0.5686274509803922
7926.788330078125	-0.5202242642712225	-9.598184002879819	-0.2527882104634708	34.77159984860613	22.3118047118761	2.487268990514988	0.102880658436214	-0.5125523012552301	0.5577342047930284
7946.319580078125	-1.031819668629349	-10.25267393364191	-0.05830542872192398	34.35678637645756	2.150106576368354	1.908293518593872	0.102880658436214	-0.5564853556485355	0.542483660130719
7965.850830078125	-0.5975879547824704	-10.26384598329754	-0.3070469665914894	35.95121827104121	-7.876687332465779	3.317459541769682	0.1049382716049383	-0.5523012552301255	0.5228758169934641
7985.382080078125	-0.3927778220840433	-9.984852915475033	-0.2809482017723699	36.58297132912022	-12.70848100938013	4.401217076698652	0.1358024691358025	-0.5502092050209204	0.5076252723311547
8004.913330078125	-0.8769144563018519	-9.913667852407416	-0.191321224052076	34.25791353865645	-22.85285960876568	4.299773290704796	0.1316872427983539	-0.5815899581589957	0.5098039215686275
8024.444580078125	-0.6644868792375193	-9.883031358095355	0.2668803309796249	36.14556179259358	-35.10966299696846	4.931922237954844	0.1440329218106996	-0.606694560669456	0.4814814814814815
8043.975830078125	-0.6065593420387215	-10.15088369882163	0.8702286054769154	40.35071609082499	-37.22231433817077	5.288154215108859	0.1625514403292181	-0.6171548117154811	0.4684095860566449
8063.507080078125	0.07085061896560159	-10.08665527515702	0.5670828131388762	42.10344864667103	-36.42346370477897	3.786708759178626	0.168724279835391	-0.6380753138075314	0.4727668845315904
8083.038330078125	0.1608554882090217	-10.1770774417241	0.7957849858261884	46.00117061555394	-18.39608428451846	3.966982553381231	0.1748971193415638	-0.6736401673640167	0.4684095860566449
8102.569580078125	-0.5734392718875049	-9.869179714003009	0.8240389448132981	49.41712912972267	-7.472710006705334	4.830933277291438	0.1851851851851852	-0.6694560669456067	0.4684095860566449
8122.100830078125	-0.6368401737407809	-10.14866383872455	1.031652951780911	51.8468364594691	-8.14608744352936	3.314765540659046	0.2037037037037037	-0.7280334728033472	0.477124183006536
8141.632080078125	-0.8376258627584279	-10.02521253846903	0.8539994780853282	50.29672889600774	-12.2970682823735	0.6317462983083406	0.2098765432098766	-0.7447698744769874	0.4422657952069717
8161.163330078125	0.3950876082387668	-10.99628968117383	1.161207099094403	55.33725725295263	-8.787643476441273	1.798916018065776	0.2160493827160494	-0.7552301255230125	0.4640522875816994
8180.694580078125	-0.1041980302737791	-10.41980302737791	1.245644636005135	57.48979841215898	8.441111862812532	3.857996024288503	0.2242798353909465	-0.7845188284518828	0.4662309368191722
8200.225830078125	-0.7089881529087732	-10.2927546848167	1.629787535745229	58.23473890158485	6.970922764062471	7.239520548395342	0.220164609053498	-0.7761506276150627	0.4836601307189543
8219.757080078125	-0.5654308007316264	-10.07843360851616	2.136888658031523	58.52046268889925	2.501882537383396	8.326905617826664	0.2283950617283951	-0.807531380753138	0.4945533769063181
8239.288330078125	-0.1900814569427822	-9.917236603369131	1.835570688595449	59.8517569981915	-0.4432532602035089	7.165378788152682	0.2407407407407408	-0.811715481171548	0.5054466230936819
8258.819580078125	-0.4417157847340333	-9.828144129968981	2.160741292219868	61.99578985239887	1.486739367213757	6.429961733294779	0.2427983539094651	-0.811715481171548	0.5185185185185186
8278.350830078125	-0.144101960548711	-10.36979201446706	2.126534026135807	64.51602937498365	4.174286851398763	6.079478717570592	0.2119341563786008	-0.8347280334728032	0.5294117647058824
8297.882080078125	-0.7589122709774027	-10.2346614411746	2.288758613312305	66.35177196456374	7.214433755951839	6.487238677182161	0.2345679012345679	-0.8514644351464434	0.5533769063180829
8317.413330078125	-0.8724120909888826	-10.47353233121149	2.417094212024486	66.71294417708765	5.35959728053651	8.732841255824233	0.2242798353909465	-0.8535564853556484	0.5686274509803922
8336.944580078125	-1.153530040825117	-10.30249903200662	2.796572071223742	65.54667392701376	-1.018674409055259	9.801134010626429	0.2263374485596708	-0.8723849372384936	0.5708061002178649
8356.475830078125	-1.052122749553676	-10.26278000587268	2.930885226756284	66.21615612887506	-4.729933226581509	11.65081387528136	0.2283950617283951	-0.8640167364016735	0.5991285403050109
8376.007080078125	-0.6350264965108035	-9.967296115726796	3.010436444400068	68.39793785157485	-2.425673804751262	12.42857345063173	0.2283950617283951	-0.8702928870292886	0.6187363834422659
8395.538330078125	-0.6625772135190471	-9.692064786248137	3.2057406855221	69.92537045181757	2.470895441912736	13.23225612423045	0.2530864197530864	-0.8702928870292886	0.6623093681917211
8415.069580078125	-0.9039306689899519	-9.584986090914377	3.3298932069462	71.43773900914157	5.874475453856337	14.77572588661404	0.2263374485596708	-0.8619246861924685	0.6623093681917211
8434.600830078125	-1.223728948474097	-9.241581716096547	3.697400796427604	70.32425208341361	2.482861890860617	15.49652673211615	0.2304526748971193	-0.8682008368200836	0.701525054466231
8454.132080078125	-1.50880162403631	-9.466020989489556	3.915651338325564	69.42104051979055	-7.991995650077924	16.14649513783884	0.2427983539094651	-0.8619246861924685	0.7233115468409587
8473.663330078125	-0.8307702638696269	-9.339652649588944	3.7671339073061	69.63884790335483	-14.32874501066055	15.70576915366698	0.2242798353909465	-0.8556485355648534	0.7254901960784315
8493.194580078125	-1.243404567805213	-9.188941629006091	3.871553216305987	69.11276011751838	-7.254975405429675	17.66329930254948	0.2407407407407408	-0.8514644351464434	0.7494553376906319
8512.725830078125	-1.431921917588103	-8.848757415375969	4.179606546418958	65.59967422317128	-6.240964997185459	17.67343940663192	0.2160493827160494	-0.8430962343096233	0.7538126361655774
8532.257080078125	-1.330076110485014	-8.765186806077116	4.659551009702406	63.38772496521376	-10.03866675850627	16.88074540788664	0.2160493827160494	-0.8389121338912133	0.7973856209150327
8551.788330078125	-1.349434462601526	-8.680819997526326	4.976707079740094	61.49914973951237	-14.19980162721761	14.95234160636933	0.2181069958847737	-0.8347280334728032	0.8082788671023966
8571.319580078125	-1.379825428464069	-8.689613553477578	5.046670562990976	60.61097263174282	-22.06226783597309	13.74164147258367	0.2181069958847737	-0.811715481171548	0.8257080610021788
8590.850830078125	-1.186927972390397	-8.591787138029561	5.114096918930175	60.1216081190838	-27.30082936836778	12.17982189499557	0.2304526748971193	-0.8200836820083681	0.8496732026143792
8610.382080078125	-1.10478102393669	-8.457900373466961	5.535754140784256	60.12913027818807	-26.18120071852003	11.43630120036197	0.2345679012345679	-0.807531380753138	0.8649237472766885
8629.913330078125	-1.022403703110596	-8.300976371665651	5.231292800951269	61.63394708934258	-22.77784725896152	12.60241020665567	0.2448559670781893	-0.7887029288702928	0.8692810457516341
8649.444580078125	-1.535019616662191	-8.047416211673655	5.319652730623433	59.50502758982928	-25.08052081409617	14.46617592393451	0.2325102880658436	-0.7656903765690376	0.9084967320261439
8668.975830078125	-1.255771926743889	-8.405475502671761	5.425754364184833	59.03836762745411	-32.18407285177339	15.90457436582189	0.2448559670781893	-0.7845188284518828	0.917211328976035
8688.507080078125	-0.727693783303522	-8.122913683887539	5.445163236558447	60.60348992205882	-24.67443261577107	15.97967076818191	0.2551440329218107	-0.7615062761506276	0.9128540305010894
8708.038330078125	-0.8364335846908102	-7.885782711505256	5.708457639688941	60.45355949282439	-14.97743799133467	16.45399920499231	0.2407407407407408	-0.7719665271966527	0.9411764705882354
8727.569580078125	-0.8247391555767378	-7.726440810199024	5.504420466924182	62.31946961766221	-10.44384874729103	16.87669358799879	0.2510288065843622	-0.7489539748953974	0.9651416122004358
8747.100830078125	-1.047466802659116	-7.776983296214587	6.065322631809146	62.319440030597	-9.32444664982836	15.7558121372753	0.2448559670781893	-0.7259414225941422	0.9760348583877997
8766.632080078125	-0.922248303810154	-7.376345532530546	5.975495593870725	61.62735190200257	-7.479537651895148	14.64218575555652	0.257201646090535	-0.707112970711297	0.9956427015250545
8786.163330078125	-1.152259961561562	-7.145188075348055	6.408995774394761	61.40955438079335	-1.51592232380008	15.45653888996955	0.2469135802469136	-0.6861924686192468	1.017429193899782
8805.694580078125	-0.8682633674756305	-7.02835694958324	6.538889417835982	62.11672627701665	-2.614110151988008	16.57763248338578	0.2489711934156379	-0.6589958158995816	1.050108932461874
8825.225830078125	-0.7123174378518238	-6.585279138717725	6.714117919190647	61.11634788379495	0.3409531230810129	16.60718311613647	0.2448559670781893	-0.6485355648535565	1.061002178649238
8844.757080078125	-0.9747944232224002	-6.570351413149097	6.671835495211332	59.36356601617354	1.407772652126997	16.24049282086089	0.2551440329218107	-0.6506276150627615	1.058823529411765
8864.288330078125	-1.128373984003529	-6.77679233974679	6.932704926000909	58.31040429860592	1.376177800599969	16.61753536291166	0.2551440329218107	-0.6380753138075314	1.082788671023965
8883.819580078125	-1.035265150163735	-6.556818046676495	6.894129678487771	57.97946865782524	2.112518388092966	17.00225725935263	0.2448559670781893	-0.612970711297071	1.082788671023965
8903.350830078125	-1.029667505676785	-5.997053597981479	7.326214281407796	58.00963619308295	3.605960727583533	17.01719168274753	0.2263374485596708	-0.5815899581589957	1.100217864923747
8922.882080078125	-1.049960482549692	-6.006149265070202	7.386162628890691	56.63306099383893	5.430335113397258	17.03543542660567	0.2325102880658436	-0.5439330543933054	1.111111111111111
8942.413330078125	-1.005010588995369	-5.551563950041893	7.480048464284721	56.58022835771764	4.309347149238992	15.51479158469994	0.2160493827160494	-0.5355648535564853	1.111111111111111
8961.944580078125	-1.003781936342637	-5.428698684768763	7.647820175691066	56.98661242370783	6.187210313009743	16.28828719746972	0.2098765432098766	-0.5188284518828451	1.145969498910675
8981.475830078125	-1.439332228899889	-5.549384506150494	7.839450583716609	54.46634331405784	4.619064926287407	15.51788876247042	0.2222222222222222	-0.4979079497907949	1.148148148148148
9001.007080078125	-1.197057283939436	-5.564314252529407	7.841126845847268	54.80486028807324	2.763548793716824	16.63140907284283	0.1995884773662552	-0.4832635983263598	1.193899782135076
9020.538330078125	-1.284422974951824	-5.209974262859182	7.746859077309544	53.74412709962598	3.477995454779824	15.88383655832138	0.1954732510288066	-0.4811715481171548	1.167755991285403
9040.069580078125	-1.304194582771435	-5.166933024618189	7.97103564536562	54.51162420400962	5.739826338060587	16.66117184828627	0.1995884773662552	-0.4539748953974895	1.196078431372549
9059.600830078125	-1.532114701878801	-4.726621703031603	8.111984131465997	52.36756176273704	4.929235808105992	16.27570745242068	0.1954732510288066	-0.4267782426778242	1.187363834422658
9079.132080078125	-1.552082328295969	-4.703182324546356	8.39578470695437	50.15561250477953	1.131534046785177	15.4830134536754	0.168724279835391	-0.4121338912133891	1.217864923747277
9098.663330078125	-1.297621897322407	-4.509664479715466	8.054469849970296	49.80203148784542	1.494060944635363	15.10928023208786	0.1810699588477366	-0.401673640167364	1.215686274509804
9118.194580078125	-1.711376740560525	-4.471007389385822	8.062366166155408	47.99647615823316	-0.7989116854022589	15.46370899635353	0.1769547325102881	-0.3702928870292887	1.209150326797386
9137.725830078125	-1.465669449332532	-4.142702509010769	8.05093545278341	46.91315676776291	-2.697082908907411	16.19944426525055	0.1769547325102881	-0.3535564853556485	1.24400871459695
9157.257080078125	-1.485941207697456	-4.149676325301189	8.323111317112513	46.5218860564668	-4.947627000395548	16.55429731490171	0.1563786008230453	-0.3284518828451883	1.250544662309368
9176.788330078125	-1.31152103045643	-3.879375772915729	8.429279637413288	44.7087592559749	-6.494558117843141	15.78411102259516	0.1604938271604938	-0.2928870292887029	1.254901960784314
9196.319580078125	-1.14680478419964	-3.569367308852895	8.446427223078997	44.70119764745033	-6.12165063774067	15.0331231162641	0.1728395061728395	-0.301255230125523	1.252723311546841
9215.850830078125	-1.327874437680489	-3.494514475119638	8.498864218735902	43.97137051271854	-5.024142466707997	12.7799472545782	0.1707818930041153	-0.2740585774058577	1.252723311546841
9235.382080078125	-1.084981124773102	-3.447607426805166	8.624850625492821	42.92570136718999	-2.816706570924599	11.29258765127189	0.1872427983539095	-0.2719665271966527	1.274509803921569
9254.913330078125	-1.204731310993296	-3.301413927612414	8.863286030913487	43.32451396230051	-0.1928018945638203	10.94146820746946	0.1790123456790124	-0.2447698744769874	1.239651416122004
9274.444580078125	-1.43561899000286	-3.157858596245551	8.615629668166482	41.9705545521447	3.124788278355386	10.59728561863261	0.1748971193415638	-0.2384937238493724	1.278867102396514
9293.975830078125	-1.511741902999672	-2.689341815118675	8.85041549021407	41.20308703482628	-0.2564447023880473	10.94083177939121	0.1769547325102881	-0.2112970711297071	1.274509803921569
9313.507080078125	-1.229978304277669	-2.795810225746638	8.868111725871913	40.73637776067576	-5.494326577627489	10.51109447007278	0.1646090534979424	-0.1799163179916318	1.289760348583878
9333.038330078125	-1.156341998335438	-2.502886702230705	9.014807396420263	40.72128413069183	-5.867913714885216	10.13000010813417	0.1522633744855967	-0.1610878661087866	1.289760348583878
9352.569580078125	-1.003548532754824	-2.375055295684406	8.972221850898334	40.38278688138658	-4.758665647289746	9.763734098244084	0.1769547325102881	-0.1589958158995816	1.272331154684096
9372.100830078125	-1.062950251055871	-2.254621065183045	8.775629343220189	39.06653689030291	0.4257274499926695	9.438219538650872	0.1810699588477366	-0.1276150627615063	1.289760348583878
9391.632080078125	-1.315718253416501	-2.278896048720766	8.872898015029799	37.60694179496976	0.3819395971326749	7.173630716726044	0.1625514403292181	-0.1255230125523012	1.287581699346405
9411.163330078125	-1.132540894809338	-2.142978369822651	8.689606480641583	36.92242513725495	1.480807082475858	7.184619391579476	0.1584362139917695	-0.1066945606694561	1.30718954248366
9430.694580078125	-1.231316080685741	-1.919486856452884	8.618985223643227	37.30612437767142	4.477392686554023	5.705151285356107	0.1934156378600823	-0.08786610878661087	1.294117647058824
9450.225830078125	-1.209668150517346	-1.774895859815421	8.979966606312138	36.29821396299037	6.685961344262846	6.104595462499232	0.1893004115226338	-0.06276150627615062	1.305010893246187
9469.757080078125	-1.422271538076396	-1.82311340359913	8.78351050332817	36.33595296912772	7.433362171163384	7.244144942466352	0.1748971193415638	-0.03765690376569037	1.318082788671024
9489.288330078125	-1.257541146147617	-1.511690372337428	8.942143100224683	33.42440328582657	3.987806725440469	6.454972406877046	0.1728395061728395	-0.03765690376569037	1.309368191721133
9508.819580078125	-1.46914019099547	-1.459473645001489	8.690112693617751	33.41690085143243	2.1219100106176	7.945747401992969	0.1748971193415638	-0.008368200836820083	1.309368191721133
9528.350830078125	-1.597618256832681	-1.175967097409452	8.500983038318777	30.21968655494729	0.9065905966484189	8.310952698419316	0.1522633744855967	-0.008368200836820083	1.313725490196079
9547.882080078125	-1.29216368874506	-0.9335405916776911	8.102017495144828	28.03037281078814	-2.144163442542027	7.903086667461372	0.1481481481481482	0.006276150627615062	1.298474945533769
9567.413330078125	-1.372739457202881	-0.9103093566517059	8.24378744062569	25.60064575633158	-0.7245179407428884	8.67200010361144	0.1851851851851852	0.01464435146443514	1.315904139433551
9586.944580078125	-1.378798856839747	-0.5061483102373411	8.24373287874802	20.56013712409683	-4.98021081165023	8.252084684336328	0.1584362139917695	0.03765690376569037	1.32244008714597
9606.475830078125	-1.311650362314612	-0.8620059284309226	8.145803401975511	17.62598151406254	-10.29211607696618	8.198965631683169	0.1748971193415638	0.01255230125523012	1.30718954248366
9626.007080078125	-1.142056890437153	-1.074375912402158	8.460113160728048	15.44418992900767	-12.22324146630887	7.047578906091629	0.1748971193415638	0.04184100418410042	1.324618736383442
9645.538330078125	-0.8665668972421305	-0.7981038656271903	8.355469541786624	13.36800444206493	-9.673586732409694	6.695716962864583	0.1707818930041153	0.04811715481171547	1.311546840958606
9665.069580078125	-0.9243418632644792	-0.514994407255978	8.26803716403486	11.02876026867135	-3.02734614716374	6.762179368717042	0.1934156378600823	0.05857740585774058	1.315904139433551
9684.600830078125	-1.136891699351	-0.5578568037868288	8.607202889281796	8.945042760269253	-1.224186030624758	6.780210969882432	0.1728395061728395	0.07949790794979079	1.294117647058824
9704.132080078125	-1.33866556459757	-0.53322312642368	8.646820874901529	5.995724483765527	-4.297740205785542	3.730607503602522	0.1831275720164609	0.05857740585774058	1.318082788671024
9723.663330078125	-1.216540926293562	-0.4419714172349716	8.925331979471277	4.483355926441527	-7.701320217729142	2.187137741218935	0.1934156378600823	0.0606694560669456	1.318082788671024
9743.194580078125	-0.9642660016422521	-0.4670042046292299	8.946805109550096	3.452800135607049	-5.866565249663132	1.828126800333558	0.1893004115226338	0.06694560669456066	1.302832244008715
9762.725830078125	-1.257541146147617	-0.501589362236417	8.942143100224683	2.444879858570923	-3.284862559466753	1.853943827235521	0.1954732510288066	0.08786610878661087	1.294117647058824
9782.257080078125	-1.035647083307429	-0.534405300439877	9.134640435862105	3.204844941495209	-1.769526293546189	3.00117266159284	0.2016460905349794	0.08577405857740585	1.294117647058824
9801.788330078125	-0.9219330574058349	-0.274113821391552	9.128590129871517	2.219520728837149	3.051660248730786	1.917309055317497	0.2098765432098766	0.07740585774058577	1.294117647058824
9821.319580078125	-1.235891195168938	-0.3567962845705447	9.323336627355138	2.603279143384042	3.809441657883611	2.6796038505411	0.1975308641975309	0.0711297071129707	1.315904139433551
9840.850830078125	-1.469684799367034	-0.5038334720569075	9.30354582183783	0.7373690185462198	-0.7241475861600313	2.256909467534626	0.1831275720164609	0.09623430962343095	1.281045751633987
9860.382080078125	-1.367063001114851	-0.3426637478487086	9.464145677545913	0.3159110472822626	-3.721865952163621	1.849573793308553	0.2016460905349794	0.09205020920502091	1.309368191721133
9879.913330078125	-1.258597019521058	-0.6071766995805132	9.492408730179301	-0.7825315602371351	-4.874222215463831	1.083333249543475	0.1707818930041153	0.0899581589958159	1.311546840958606
9899.444580078125	-1.06470532478761	-0.4099264181548951	9.403200060187816	0.6393048042485199	-4.83156712452926	1.461118291018858	0.2037037037037037	0.09623430962343095	1.296296296296297
9918.975830078125	-1.105699482210812	-0.4689381200711112	9.480647614325854	1.406792046277089	-2.196602208760941	1.864826430742579	0.2016460905349794	0.09205020920502091	1.287581699346405
9938.507080078125	-1.137209976970745	-0.589684565761365	9.464194176992731	2.520308559070269	0.07560925677210807	2.264907035963948	0.2119341563786008	0.07740585774058577	1.300653594771242
9958.038330078125	-1.266754020232818	-0.4127757606554726	9.724269429340657	1.790520873758765	-0.319418702145446	1.506239775242697	0.2119341563786008	0.0899581589958159	1.313725490196079
9977.569580078125	-1.308562564200511	-0.5532261170208194	9.737030846284734	1.730175940888274	-2.933169348639023	1.102743778211723	0.1934156378600823	0.07949790794979079	1.300653594771242
9997.100830078125	-1.137383766655177	-0.6070635342046038	9.746151773502007	1.692427072395849	-3.307436143052005	-0.4104328519965578	0.1934156378600823	0.06903765690376569	1.305010893246187
10016.63208007812	-1.055190339564937	-0.4685289059885815	9.62258730787058	2.467446335883773	0.07402339007651318	-0.3766182566652727	0.2037037037037037	0.07740585774058577	1.315904139433551
10036.16333007812	-1.064884166497752	-0.4278105891691583	9.634627295543233	3.919460097982209	1.236986788014093	0.3897283584461787	0.2098765432098766	0.08577405857740585	1.305010893246187
10055.69458007812	-1.374426833790102	-0.06894600527283966	9.548464997055024	4.303228374884173	1.621634164679361	1.525650303910945	0.2160493827160494	0.09414225941422594	1.315904139433551
10075.22583007812	-1.41855526796394	-0.4413853822525833	9.590007804470359	4.649267508003857	0.8857466819565336	1.895649919649754	0.1831275720164609	0.102510460251046	1.311546840958606
10094.75708007812	-1.238179762815678	-0.5856530492445905	9.665406256980322	4.227799674384828	-1.7388376515595	1.114687095182518	0.2119341563786008	0.09623430962343095	1.298474945533769
10114.28833007812	-1.256791425532217	-0.4266173006963986	9.370141624750264	4.611548226576648	-0.6079222099191185	1.50335474016496	0.205761316872428	0.1066945606694561	1.298474945533769
10133.81958007812	-1.254133049603486	-0.160779707823368	9.696591401284515	5.363961563331435	0.907187503616361	2.27322281843239	0.2242798353909465	0.1108786610878661	1.305010893246187
10153.35083007812	-1.406336438581144	-0.2296034540740197	9.580517068971096	5.333794028073726	-0.5862548358742061	2.258288395037484	0.2016460905349794	0.102510460251046	1.305010893246187
10172.88208007812	-1.264351276805026	-0.1725014178762757	9.514084951691673	5.679833161193408	-1.322142318597034	2.628288010776294	0.1831275720164609	0.100418410041841	1.309368191721133
10192.41333007812	-1.244666563827632	-0.2242321403388885	9.430887181890235	5.348897520412724	-0.5858017311040362	3.013009907217262	0.2119341563786008	0.1255230125523012	1.30718954248366
10211.94458007812	-1.185919588058632	-0.4101406240450093	9.139350944634337	5.03302592255075	1.643528091109358	2.657944714873358	0.2078189300411523	0.1171548117154812	1.311546840958606
10231.47583007812	-1.212966112900993	-0.08449007797811789	9.32708017840643	4.288174194320534	-0.2444891025285929	2.639064542936978	0.2181069958847737	0.1087866108786611	1.313725490196079
10251.00708007812	-1.134372759331872	-0.3059628018740713	9.559216718171566	2.475067118538777	-2.5376882849513	2.616132551112751	0.2098765432098766	0.1150627615062761	1.309368191721133
10270.53833007812	-1.1640857433441	-0.2469581727938494	9.339647597563232	2.798451013149962	-3.274255424829382	1.854049898581895	0.205761316872428	0.1359832635983264	1.320261437908497
10290.06958007812	-0.934139761926926	-0.4846832633996572	9.259353732140042	3.197303057680782	-2.14288687841883	2.997439055744114	0.1975308641975309	0.09414225941422594	1.313725490196079
10309.60083007812	-0.9520047352434903	-0.2509785748540614	9.361769407743248	2.512786399965986	-1.044019393075647	3.008427730597546	0.2345679012345679	0.1317991631799163	1.318082788671024
10329.13208007812	-1.184692956216185	-0.287477439800289	9.286910511579139	1.805644090807908	-1.06523366235039	3.008215587904798	0.2222222222222222	0.1401673640167364	1.302832244008715
10348.66333007812	-0.9906790024605487	-0.07800125615588069	9.410435571410027	1.045679007883622	-2.580569928270954	1.860986753547479	0.2222222222222222	0.1380753138075314	1.302832244008715
10368.19458007812	-0.8714198731393908	-0.2733004452522028	9.310954112339331	0.7071916209334383	-1.844455893163042	1.868347893898558	0.2098765432098766	0.1192468619246862	1.318082788671024
10387.72583007812	-1.030275769572298	0.002726073073247574	9.323166879291275	0.3837781392570367	0.0115133441777111	1.509549095705928	0.1995884773662552	0.1401673640167364	1.296296296296297
10407.25708007812	-1.226982453031494	-0.4760230809271572	9.539686597180905	1.075816956076115	0.03227450868228347	0.7550397262188984	0.2242798353909465	0.1255230125523012	1.285403050108933
10426.78833007812	-1.293965241113333	-0.103594818403976	9.274809899597962	-0.3158321484416857	0.7367936922631674	1.139443408620745	0.2098765432098766	0.1297071129707113	1.30718954248366
10446.31958007812	-1.191050425369956	0.08687665492363709	9.335867671926827	-0.3309060537154684	-0.383061509969673	1.505603347164454	0.2263374485596708	0.1359832635983264	1.30718954248366
10465.85083007812	-1.060869826868393	-0.02637662623318304	9.382011864359052	-1.083319390470254	-1.898171223505152	0.735735268897024	0.220164609053498	0.1171548117154812	1.287581699346405
10485.38208007812	-0.9514096066148235	-0.191465711987389	9.253639891061756	-1.068225760486328	-1.524584086247426	1.116829630835639	0.220164609053498	0.1150627615062761	1.328976034858388
10504.91333007812	-0.93028506631001	-0.09921370170805251	9.430180908695943	-1.03806808758369	0.3419922857306982	0.7581369039893825	0.2139917695473251	0.1171548117154812	1.294117647058824
10524.44458007812	-1.075605575460032	-0.4898504752960945	9.469801925531101	-0.977713292358127	2.582608899736719	1.535260051261518	0.2139917695473251	0.1297071129707113	1.296296296296297
10543.97583007812	-1.357755148946298	-0.4219795410943947	9.631990138122486	-0.6467776515774426	1.846268312243722	1.15053815482055	0.2283950617283951	0.1276150627615063	1.326797385620915
10563.50708007812	-1.295284830228848	-0.2355537299555449	9.207592697523168	-1.368993866009303	0.7051988407361388	1.516485950671512	0.2242798353909465	0.1171548117154812	1.28322440087146
10583.03833007812	-1.201531357908428	0.0488844111774614	9.556085472636356	-1.760294164370623	-0.4259431532893276	0.7504575495991822	0.2160493827160494	0.1171548117154812	1.326797385620915
10602.56958007812	-0.9006852476736914	-0.1695348683792205	9.527970949558849	-1.015422711430264	0.71580597537351	1.516592022017886	0.2242798353909465	0.1338912133891213	1.309368191721133
10622.10083007812	-1.022597700897869	-0.2395680695849047	9.351532993249151	-1.369003728364375	1.078332873223696	1.14285880043035	0.2263374485596708	0.1066945606694561	1.318082788671024
10641.63208007812	-1.13407570022011	-0.2762568906978375	9.500098923715434	-1.384107220703374	1.077879768453526	0.388137288250573	0.220164609053498	0.1276150627615063	1.309368191721133
10661.16333007812	-1.100544395176079	0.04657058340216973	9.526676620571884	-2.85122447514081	-0.08553673425422428	-1.132930839040656	0.205761316872428	0.1317991631799163	1.309368191721133
10680.69458007812	-1.001862166572745	-0.1862166572744457	9.677640242440249	-2.474998082053272	-0.07424994246159816	-0.0007424994246159817	0.2222222222222222	0.1255230125523012	1.300653594771242
10700.22583007812	-0.8213270174120391	-0.3145199230220823	9.329596087210131	-2.11390476836995	1.055985842023528	-0.7441571227118402	0.220164609053498	0.1150627615062761	1.287581699346405
10719.75708007812	-0.9915792734421143	-0.1680283543124259	9.496834304701474	-2.10635302220045	1.056212394408613	-0.3667963666219516	0.2119341563786008	0.1276150627615063	1.315904139433551
10739.28833007812	-1.334543111618011	-0.120977828467783	9.475555172409928	-2.106362884555522	1.42934642689617	-0.7404235168631138	0.2263374485596708	0.102510460251046	1.298474945533769
10758.81958007812	-1.08344126733662	-0.263318652853903	9.885090563774849	-0.654329397746942	1.846041759858636	0.7731773987306619	0.2181069958847737	0.1255230125523012	1.305010893246187
10778.35083007812	-1.295432349379588	-0.250305645029457	9.75230817203251	-0.338477524595112	0.3629800026203556	0.3809882905922413	0.2016460905349794	0.1255230125523012	1.315904139433551
10797.88208007812	-1.163531030921116	-0.1914869304953721	9.83737620175188	-0.361093313683322	-1.130235784485127	0.7434146232872243	0.2119341563786008	0.1234309623430962	1.305010893246187
10817.41333007812	-1.074078853290396	-0.3371782583325258	9.588561914712088	0.007561608524571581	-0.3729074801024718	0.7509879063310508	0.205761316872428	0.1255230125523012	1.298474945533769
10836.94458007812	-1.212542753146475	-0.04215410252627456	9.521120402695759	0.3384972493052563	-1.109248067595469	0.3662660098900831	0.205761316872428	0.1359832635983264	1.313725490196079
10856.47583007812	-1.343533696571961	-0.00993531376176553	9.450714361992658	0.3309750902009731	-2.228876717443224	1.109786704523681	0.2181069958847737	0.1171548117154812	1.300653594771242
10876.00708007812	-0.970374911131079	-0.06779414341090409	9.461654018465619	-0.3761672189571046	-2.250090986717967	1.109574561830934	0.2263374485596708	0.1297071129707113	1.309368191721133
10895.53833007812	-1.292342530455203	0.05867624740905601	9.343545740601256	-0.3912805736511757	-1.87741005900058	-0.0187741005900058	0.2263374485596708	0.1066945606694561	1.326797385620915
10915.06958007812	-1.032087425991991	-0.1784395688960964	9.38479755133568	0.3385071116603284	-1.482382100083026	0.7398931601312453	0.2242798353909465	0.1255230125523012	1.318082788671024
10934.60083007812	-1.102566215865319	-0.1556114855217886	9.506446288817784	0.03770941907213682	1.866802924363209	0.01866802924363209	0.2242798353909465	0.102510460251046	1.309368191721133
10954.13208007812	-1.29444720436609	-0.1517911436797022	9.50471849602488	-0.3234134816764015	1.855969237340753	-0.3587987981926302	0.2139917695473251	0.1255230125523012	1.296296296296297
10973.66333007812	-1.132824818654253	-0.1511687341122001	9.890204224198758	-1.436929994469582	-0.4162422281922964	-0.7588794034139985	0.220164609053498	0.1213389121338912	1.300653594771242
10993.19458007812	-1.012585596345308	-0.2484586244297918	9.492602727966574	-0.338477524595112	0.3629800026203556	0.3809882905922413	0.220164609053498	0.1213389121338912	1.32244008714597
11012.72583007812	-1.101036462480257	-0.002636147015605235	9.655524494691086	-0.3233838946111852	0.7365671398780824	0.7620826525308564	0.2119341563786008	0.1359832635983264	1.305010893246187
11032.25708007812	-1.145371019303073	-0.3956877888931437	9.655630587231	-0.6845067953597235	0.7257334528556262	0.384615825094594	0.2160493827160494	0.1255230125523012	1.309368191721133
11051.78833007812	-1.031678211909462	-0.1375181606431213	9.437352764394205	-0.6845067953597235	0.7257334528556262	0.384615825094594	0.2345679012345679	0.1129707112970711	1.318082788671024
11071.31958007812	-1.133052159811214	-0.1739028498082974	9.636539992477131	0.4063939283452467	1.504729131283193	1.147122763010945	0.220164609053498	0.1255230125523012	1.289760348583878
11090.85083007812	-1.143262303771617	-0.1848162357475661	9.534882120730463	0.01510349233899894	0.0004531047701699683	0.7547215121797772	0.220164609053498	0.1150627615062761	1.300653594771242
11110.38208007812	-1.12459203755684	-0.3379916344718751	9.406197932244273	-0.3460095460544673	-0.383514614739843	0.7508818349846771	0.220164609053498	0.1255230125523012	1.296296296296297
11129.91333007812	-1.142779330113718	-0.136518869957635	9.315079596534316	-1.429358523589938	-1.162283740782325	0.3657356531582145	0.2263374485596708	0.1338912133891213	1.300653594771242
11149.44458007812	-0.8513946536291263	-0.2909805144277721	9.603199654004948	-0.676945186835152	0.3528259727531544	1.135603731425645	0.2119341563786008	0.1171548117154812	1.313725490196079
11168.97583007812	-1.171430378321653	0.02867933955191221	9.615982289457007	-0.2932064969984036	1.856875446881093	1.150644226166924	0.2160493827160494	0.1255230125523012	1.309368191721133
11188.50708007812	-1.153465374896026	-0.1950223380874007	9.503966754599196	0.03019712232292578	0.3740402420278968	1.135815874118392	0.2139917695473251	0.1255230125523012	1.298474945533769
11208.03833007812	-1.062076250607999	-0.1470190001938058	9.436573742029685	-0.007522159104283147	-1.119628649847755	0.7435206946335979	0.2283950617283951	0.1234309623430962	1.276688453159041
11227.56958007812	-1.112970357612995	-0.1859246501883936	9.484624568964957	-0.6995807006335061	-0.3941217493772142	0.7507757636383033	0.2098765432098766	0.1150627615062761	1.300653594771242
11247.10083007812	-1.031068937608806	-0.0765907305775806	9.470708258943519	-0.6920388168190788	-0.02076116450457237	0.7545093694870298	0.1893004115226338	0.1171548117154812	1.313725490196079
11266.63208007812	-1.232922624861599	-0.05993925383661695	9.722047548433292	-0.6844969330046514	0.3525994203680694	0.7582429753357562	0.2222222222222222	0.1255230125523012	1.313725490196079
11286.16333007812	-1.144381832669007	-0.2967691254865695	9.448465200146458	-0.7146940553275772	-0.02144082165982732	-0.3775728987826361	0.2037037037037037	0.1255230125523012	1.315904139433551
11305.69458007812	-1.092463174849973	-0.1554083940882368	9.546961514203655	-0.3007681055229752	2.229782926983564	0.3996563198358734	0.2078189300411523	0.1213389121338912	1.300653594771242
11325.22583007812	-1.021861115549316	-0.1659095347295496	9.648152578774697	-0.3007681055229752	2.229782926983564	0.3996563198358734	0.1975308641975309	0.1213389121338912	1.291938997821351
11344.75708007812	-1.22345411827546	-0.1231896053237277	9.476555473500555	0.04526116524163629	1.867029476748294	0.3960287853335207	0.220164609053498	0.1359832635983264	1.328976034858388
11364.28833007812	-1.224669635661344	-0.2447413439121944	9.440162701094243	-0.6996004253436504	0.3521463155978994	0.003521463155978994	0.2037037037037037	0.1297071129707113	1.313725490196079
11383.81958007812	-1.063386746077236	-0.2780685471175309	9.460311190031838	-0.3233937569662573	1.109701172365639	0.3884555022896942	0.2181069958847737	0.1192468619246862	1.296296296296297
11403.35083007812	-0.932730246753768	-0.3437317460838542	9.215910352652514	-0.3007681055229752	2.229782926983564	0.3996563198358734	0.2304526748971193	0.1192468619246862	1.300653594771242
11422.88208007812	-0.8904852077647091	-0.1596318875820006	9.5285680989978	-1.000378393221698	2.955063275069021	0.02955063275069021	0.2181069958847737	0.1192468619246862	1.298474945533769
11442.41333007812	-0.8999961513668141	-0.1006252376914946	9.349605140238122	0.496886671763303	6.358190182242451	0.8182988829545	0.2139917695473251	0.1255230125523012	1.30718954248366
11461.94458007812	-1.123788765468911	-0.2576644256789981	9.359717274899745	-0.1574624506937832	8.950500007076201	0.8442219812028375	0.1851851851851852	0.1234309623430962	1.309368191721133
11481.47583007812	-1.319309233291342	0.3923089940981327	9.319553670503307	-0.8721762307315045	9.675327250391488	-0.2806052180621229	0.2037037037037037	0.1338912133891213	1.313725490196079
11501.00708007812	-1.352713227287474	0.08221262478793998	9.55624006462309	-2.768263753182108	4.021429699344836	-1.091861174704665	0.1995884773662552	0.1255230125523012	1.300653594771242
11520.53833007812	-1.375344281659083	-0.1606907921708677	9.463060502423351	-3.96474098793399	-2.357748199787273	-1.533011444262024	0.2181069958847737	0.09623430962343095	1.300653594771242
11540.06958007812	-1.254761521601841	-0.2236269076588013	9.471220534350538	-3.972282871748417	-2.731108784659915	-1.53674505011075	0.2037037037037037	0.1380753138075314	1.305010893246187
11559.60083007812	-1.134796119086391	-0.3482987773259146	9.365176493882236	-3.174618232107067	1.024164438111415	-0.7444753367509613	0.1975308641975309	0.1192468619246862	1.320261437908497
11579.13208007812	-1.234272526131376	-0.1949293808143322	9.351648179435346	-3.114273299236576	3.637915084604992	-0.3409793397199878	0.1790123456790124	0.1129707112970711	1.309368191721133
11598.66333007812	-1.474998520009069	-0.02510452615934365	9.691065495562651	-4.242883442013683	0.9921164818142164	-1.122154306879971	0.2119341563786008	0.1234309623430962	1.311546840958606
11618.19458007812	-1.296342724412574	-0.3413431483280508	9.73764618301624	-1.767855772895194	-0.05303567318685583	-0.0005303567318685583	0.1975308641975309	0.1255230125523012	1.32244008714597
11637.72583007812	-1.113783733752344	-0.2672622641233193	9.430044504001767	-1.045609971398118	-0.03136829914194354	0.7544032981406561	0.1995884773662552	0.1087866108786611	1.311546840958606
11657.25708007812	-1.26658730338438	-0.3961040758116678	9.371569327215978	-1.022994182309908	1.461847487963539	0.3919769654456732	0.1893004115226338	0.1150627615062761	1.305010893246187
11676.78833007812	-1.415814038813562	-0.1672624672147529	9.735054493826885	-0.6392554924731594	2.965896962091477	0.4070174601869525	0.1851851851851852	0.1171548117154812	1.30718954248366
11696.31958007812	-1.435109745811267	-0.07663114678326256	9.668686032071413	-0.30825081520697	-0.3823818528144181	2.63768561543412	0.2098765432098766	0.1192468619246862	1.315904139433551
11715.85083007812	-1.052151040897654	-0.1645990392603123	9.718622275001747	-0.3535514298688947	-0.7568751996124847	0.7471482291359507	0.1954732510288066	0.1150627615062761	1.32244008714597
11735.38208007812	-1.003391919957806	-0.339191995780629	9.528562036566948	1.972471014421648e-05	-0.7462680649751136	0.7472543004823244	0.1831275720164609	0.1234309623430962	1.302832244008715
11754.91333007812	-1.02257850320017	-0.2376482998150121	9.543548365633814	-0.6996102876987225	0.7252803480854563	-0.3701056870851832	0.1954732510288066	0.1276150627615063	1.302832244008715
11774.44458007812	-1.215058661950176	-0.2937449828964175	9.609525800599314	0.7750389881980683	2.635191468153405	0.7810688958136096	0.1851851851851852	0.1087866108786611	1.309368191721133
11793.97583007812	-1.418351166125246	-0.4209751983831982	9.611232374884235	0.3686647845629658	0.384194271895098	0.3812004332849888	0.2037037037037037	0.1150627615062761	1.298474945533769
11813.50708007812	-1.073258404315053	-0.255133360798166	9.713884485290681	0.7146841929725051	0.3945748541473841	0.003945748541473841	0.205761316872428	0.1192468619246862	1.311546840958606
11833.03833007812	-1.294529047182596	-0.1599754253302972	9.696227655433377	0.3384873869501842	-0.7361140351079124	-0.007361140351079124	0.1934156378600823	0.1213389121338912	1.313725490196079
11852.56958007812	-1.163772517750065	-0.2156356133903376	9.442226958799449	0.729777822956432	0.7681619914051109	0.3850401104800888	0.1872427983539095	0.1317991631799163	1.287581699346405
11872.10083007812	-1.465305703481395	-0.06592388349297178	9.668919435659227	0.3384972493052563	-1.109248067595469	0.3662660098900831	0.1872427983539095	0.1192468619246862	1.300653594771242
11891.63208007812	-1.337078218119412	-0.3744884786078186	9.371945197928822	-0.7523936120446419	-2.261377778510593	-0.02261377778510593	0.1790123456790124	0.1087866108786611	1.324618736383442
11911.16333007812	-1.070161512554673	0.05455581523978113	9.375864559474827	0.3309553654908289	-1.482608652468111	0.3625324040413567	0.1934156378600823	0.1108786610878661	1.298474945533769
11930.69458007812	-1.345256437339154	-0.1822093904810803	9.391578380243971	9.862355072108239e-06	-0.3731340324875568	0.3736271502411622	0.205761316872428	0.1192468619246862	1.302832244008715
11950.22583007812	-1.295255528479729	-0.2326235550436035	9.500668792215549	-0.007522159104283147	-1.119628649847755	0.7435206946335979	0.1995884773662552	0.1213389121338912	1.30718954248366
11969.75708007812	-1.323527674759396	-0.0295351527072275	9.550944531273611	-0.01506404291871051	-1.492989234720397	0.7397870887848715	0.1995884773662552	0.1297071129707113	1.315904139433551
11989.28833007812	-1.173566374791944	-0.1849203074771971	9.463866805726708	-1.444462015928937	-1.162736845552495	-0.3889858590215627	0.2016460905349794	0.1234309623430962	1.30718954248366
12008.81958007812	-1.173263253249329	-0.1546081532157341	9.465385444655206	-2.136510695103088	-0.8103639775695106	-0.008103639775695105	0.205761316872428	0.1150627615062761	1.291938997821351
12028.35083007812	-1.36505027407189	-0.1413910435525942	9.393421359223067	-1.767855772895194	-0.05303567318685583	-0.0005303567318685583	0.2181069958847737	0.1129707112970711	1.296296296296297
12047.88208007812	-1.174463614558083	-0.2746442840911276	9.580583755710471	-1.098432745164325	-1.525490295787766	-0.3926133935239154	0.1995884773662552	0.1192468619246862	1.32244008714597
12067.41333007812	-1.295263611720866	-0.2334318791572425	9.419820214369375	-0.3535612922239668	-0.383741167124928	0.3735210788947885	0.2016460905349794	0.1129707112970711	1.296296296296297
12086.94458007812	-1.193456200013174	-0.1537008093981743	9.515733932883496	-0.7071423091580777	-0.02121426927474233	-0.0002121426927474233	0.1954732510288066	0.1297071129707113	1.30718954248366
12106.47583007812	-1.073179592713973	-0.2472522006901856	9.492057109189867	0.3988619068858915	0.7582345139229947	1.517016307403381	0.1995884773662552	0.102510460251046	1.320261437908497
12126.00708007812	-1.27285080485994	-0.01235321326668823	9.350290194924431	-0.6995708382784341	-0.7672557818647709	1.124402913879466	0.2119341563786008	0.1213389121338912	1.298474945533769
12145.53833007812	-1.123966596773912	-0.2754475561790564	9.601250582485935	-0.7222162144318603	-1.141069471507583	0.3659477958509619	0.1893004115226338	0.1171548117154812	1.315904139433551
12165.06958007812	-1.415652373990834	-0.1510959849419726	9.331824030548349	-0.714674330617433	-0.767708886634941	0.3696814016996884	0.2098765432098766	0.1192468619246862	1.305010893246187
12184.60083007812	-1.073478672636019	-0.2771601928948291	9.530962759184455	0.3837584145468925	0.7577814091528248	0.7622947952236038	0.2119341563786008	0.1192468619246862	1.313725490196079
12204.13208007812	-1.163649248322735	-0.2033086706573427	9.665066760852595	0.4214678336190293	2.624584333516034	0.7809628244672359	0.205761316872428	0.1108786610878661	1.318082788671024
12223.66333007812	-1.373531614834247	0.0205758903126811	9.411535902609717	-1.972471014421648e-05	0.7462680649751136	-0.7472543004823244	0.2222222222222222	0.1150627615062761	1.318082788671024
12243.19458007812	-1.103346248634981	-0.2336147624879534	9.785366607470062	1.068275072261688	-0.3410860761903583	0.751306120370172	0.2098765432098766	0.1234309623430962	1.30718954248366
12262.72583007812	-1.111834662233332	-0.07235511222211219	9.73273864524131	0.3912904360062478	1.504276026513023	0.392401250831168	0.2016460905349794	0.1317991631799163	1.318082788671024
12282.25708007812	-1.456128193576166	-0.158273903071087	9.543181588567251	0.03016753525770946	1.493442339490567	0.01493442339490567	0.2119341563786008	0.1213389121338912	1.298474945533769
12301.78833007812	-1.408266312402457	-0.4225908362053343	9.469838300116216	-0.03018725996785367	-0.7471742745154536	-0.76218872387723	0.1934156378600823	0.100418410041841	1.324618736383442
12321.31958007812	-1.292917450981028	0.001184194826481157	9.653796701898182	0.6996300124088667	-1.47154841306057	1.117359987567508	0.1995884773662552	0.1297071129707113	1.296296296296297
12340.85083007812	-1.033692959762707	-0.3389929459676454	9.487864938255507	0.3460489954747557	-1.109021515210384	0.7436267659799717	0.2078189300411523	0.1213389121338912	1.289760348583878
12360.38208007812	-1.090945546326616	-0.003645541752511948	9.574766853307695	0.3460391331196837	-0.7358874827228274	0.3699996157388095	0.2037037037037037	0.1213389121338912	1.311546840958606
12379.91333007812	-0.9007771945416178	-0.1787295551718644	9.618419386659628	0.3083198516924747	-2.229556374598479	-0.0222955637459848	0.2037037037037037	0.1255230125523012	1.298474945533769
12399.44458007812	-1.093682733856426	-0.2773642947335229	9.470144452874257	-1.12106825896268	-2.272438017918134	-0.7774413613112569	0.2119341563786008	0.1317991631799163	1.296296296296297
12418.97583007812	-0.7493204949639338	-0.1845747489186165	9.336813411139785	-0.3384577998849678	-0.383288062354758	1.128242591074566	0.2139917695473251	0.1066945606694561	1.305010893246187
12438.50708007812	-1.111842745474469	-0.0731634363357512	9.651890067395136	0.04525130288656418	2.240163509235851	0.02240163509235851	0.2242798353909465	0.1255230125523012	1.320261437908497
12458.03833007812	-1.242615441389273	-0.0191198965029888	9.744193608336717	-0.29323608406362	2.976277544343763	0.02976277544343763	0.191358024691358	0.1087866108786611	1.30718954248366
12477.56958007812	-1.142970296685565	-0.1556155271423567	9.425233965120473	-0.6543491224570862	2.59230982483375	0.0259230982483375	0.2016460905349794	0.1234309623430962	1.311546840958606
12497.10083007812	-0.8696930907516295	-0.1006222064760685	9.410514383011106	-1.452023624453509	-0.7898293654500232	-1.139973765352614	0.1995884773662552	0.1464435146443515	1.315904139433551
12516.63208007812	-1.09164777790034	-0.07386869912490124	9.621753723628389	-1.4067525968568	0.7040660788107139	-0.3703178297779307	0.2139917695473251	0.1213389121338912	1.313725490196079
12536.16333007812	-1.294247144147964	-0.1317851218671366	9.48551877751567	-1.406742734501728	0.3309320463231571	0.003309320463231571	0.2098765432098766	0.1234309623430962	1.309368191721133
12555.69458007812	-1.293625744985605	-0.06964520563113739	9.640147138834244	-1.752752280556195	-0.05258256841668587	0.7541911554479087	0.2181069958847737	0.1192468619246862	1.311546840958606
