Time Stamp	Accelerometer X	Accelerometer Y	Accelerometer Z	Gyroscope X	Gyroscope Y	Gyroscope Z	Magnetometer X	Magnetometer Y	Magnetometer Z
1054.718017578125	-2.0172819493415	-4.758497964452959	7.994427534809191	-36.71981986958041	-4.086669222953084	-12.11633839034274	0.1563786008230453	-0.4288702928870293	0.7080610021786493
1074.249267578125	-0.2711614175664855	-9.944424584931379	-2.055488398977789	1.414185994765434	3.773768863425053	-3.735847217026127	0.1646090534979424	-0.405857740585774	0.6862745098039217
1093.780517578125	-0.3491333719732468	-9.660811944799427	-2.13299657742435	-0.3384282128197515	-1.502690159817428	2.249124041798052	0.1625514403292181	-0.397489539748954	0.6884531590413944
1113.311767578125	0.06573594813655073	-9.588021347961091	-2.105006334179316	-1.060664151961756	-1.897491566349897	1.86781753716669	0.154320987654321	-0.405857740585774	0.6884531590413944
1132.843017578125	0.03281795901374397	-9.849517229938739	-2.057804247563365	-0.6543195353918699	1.47290772737108	1.146804548971824	0.1584362139917695	-0.403765690376569	0.6710239651416122
1152.374267578125	-0.07017566833071301	-10.04786986337433	-1.897034643791418	-1.459555645912864	-1.536323982810222	-0.7700802209601777	0.1584362139917695	-0.4246861924686192	0.6775599128540306
1171.905517578125	0.001294328986964468	-9.971577202313656	-2.20563662389652	-0.2932163593534757	2.23000947936865	0.7770170759257621	0.1584362139917695	-0.4142259414225941	0.6906318082788672
1191.436767578125	-0.1997793254961663	-9.876922448606528	-2.233217653059026	-1.038038500518474	-0.7774098117319722	1.879018354712869	0.1522633744855967	-0.4205020920502092	0.6753812636165578
1210.968017578125	-0.007994325483889838	-9.890341639298077	-2.18146571208843	-0.6920289544640067	-0.3938951969921292	1.128136519728192	0.1522633744855967	-0.405857740585774	0.6688453159041395
1230.499267578125	0.1564541634102572	-9.607108911499536	-1.812124237274208	-1.045659283173478	1.834301863295841	-1.113732453065155	0.1584362139917695	-0.4184100418410042	0.6840958605664489
1250.030517578125	-0.1296713543099705	-9.936832400694025	-2.023390858830326	0.03772914378228104	1.120534859388095	0.7659223297259565	0.1831275720164609	-0.3953974895397489	0.6949891067538128
1269.561767578125	-0.2298297848258387	-9.851665351270734	-1.787810858341088	-0.7071127220928615	-1.140616366737413	1.120669308030739	0.1707818930041153	-0.399581589958159	0.69281045751634
1289.093017578125	0.05482054138699789	-9.669461012815365	-2.189995552297606	-1.022994182309908	1.461847487963539	0.3919769654456732	0.1625514403292181	-0.4246861924686192	0.6819172113289761
1308.624267578125	-0.1871472404102726	-9.62381495011817	-2.149728886576678	0.02262565144328209	1.120081754617925	0.01120081754617925	0.168724279835391	-0.401673640167364	0.6579520697167757
1328.155517578125	-0.1375363479356781	-9.713230753163774	-1.90117831527896	-1.060703601382045	-0.4049554363996703	0.3733089362020411	0.1584362139917695	-0.4079497907949791	0.6797385620915033
1347.686767578125	-0.01908554272815916	-9.989362353623999	-2.004709478158987	0.03775873084749736	0.001132761925424921	1.886803780449443	0.1666666666666667	-0.4121338912133891	0.673202614379085
1367.218017578125	0.03250877504027705	-9.880435627285429	-2.119959319876495	-0.3233740322561131	0.3634331073905256	1.135709802772018	0.1666666666666667	-0.4121338912133891	0.6819172113289761
1386.749267578125	0.1731996078294314	-9.952766489784135	-2.000956833461418	-0.6996201500537946	1.098414380573013	-0.7437328373263454	0.1584362139917695	-0.4184100418410042	0.69281045751634
1406.280517578125	-0.1974149774637722	-9.640487645367118	-1.817331865376327	-0.6693934406656525	0.3530525251382394	1.512964487515533	0.1604938271604938	-0.4205020920502092	0.6862745098039217
1425.811767578125	-0.1261288738819476	-9.582584357891728	-1.945036971279871	-0.3082902646272583	1.110154277135809	1.143177014469471	0.1646090534979424	-0.399581589958159	0.6710239651416122
1445.343017578125	-0.1582688510453768	-9.76627904393162	-2.196967347777742	-1.030526203769263	0.7153528706033401	0.7618705098381089	0.1604938271604938	-0.4246861924686192	0.673202614379085
1464.874267578125	-0.01292813379251396	-9.373621460059482	-2.034466919997465	-0.7373295691259315	-0.7683885437901959	-0.7624008665699775	0.1563786008230453	-0.4163179916317991	0.6797385620915033
1484.405517578125	-0.1583466522413146	-9.774059163525395	-1.965033899446158	-1.053151855212545	-0.4047288840145853	0.7506696922919297	0.1440329218106996	-0.4100418410041841	0.6862745098039217
1503.936767578125	-0.0490814401801609	-9.958649068521142	-2.023675793080384	-0.7221866273666441	-2.260471568970253	1.486829246574449	0.1666666666666667	-0.4288702928870293	0.6775599128540306
1523.468017578125	0.1045324743757972	-9.748772764440481	-1.940938768023721	-0.7071225844479335	-0.7674823342498559	0.7470421577895769	0.1707818930041153	-0.4184100418410042	0.6775599128540306
1542.999267578125	-0.06807301523010952	-9.837604553313984	-2.078419543676586	-1.045639558463334	1.088033798320727	-0.3664781525828305	0.1481481481481482	-0.4142259414225941	0.6601307189542485
1562.530517578125	-0.09927836763714364	-9.927836763714366	-2.073142197619666	-0.6618614192062973	1.099547142498438	1.143070943123098	0.1625514403292181	-0.3933054393305439	0.6710239651416122
1582.061767578125	-0.1395147212038096	-9.911068079976925	-2.496948551210885	-0.3384577998849678	-0.383288062354758	1.128242591074566	0.1646090534979424	-0.4142259414225941	0.6819172113289761
1601.593017578125	-0.01778414090520034	-9.859222171328117	-2.119401576238084	-0.6844772082945072	-0.3936686446070442	1.505497275818081	0.1625514403292181	-0.401673640167364	0.6753812636165578
1621.124267578125	-0.1869330345201582	-9.602394361106734	-2.027443593855084	-1.444442291218793	-1.909004910527609	0.3582684414607617	0.1790123456790124	-0.4079497907949791	0.673202614379085
1640.655517578125	0.07482858400984758	-9.688858770732416	-2.069553238555109	0.03020698467799789	0.0009062095403399367	1.509443024359554	0.1522633744855967	-0.397489539748954	0.6819172113289761
1660.186767578125	0.1462288633727237	-9.619537905151876	-2.065373192482453	-0.6619008686265857	2.592083272448666	-0.3514376578415511	0.1460905349794239	-0.4100418410041841	0.6775599128540306
1679.718017578125	-0.3307318735262547	-9.840864120302232	-1.919592948992799	0.4289998550783847	3.371078950876232	0.4110692800748001	0.1728395061728395	-0.405857740585774	0.6884531590413944
1699.249267578125	-0.1604836591167477	-9.987759851068708	-2.12725545540723	-0.7146841929725051	-0.3945748541473841	-0.003945748541473841	0.1769547325102881	-0.4163179916317991	0.6862745098039217
1718.780517578125	0.003842570755211466	-9.716753025488956	-1.970647710415381	0.02268482557371474	-1.118722440307415	2.252963718993152	0.154320987654321	-0.4184100418410042	0.6753812636165578
1738.311767578125	0.05352217077946524	-9.799298073568631	-2.044985237526193	-0.3309356407806847	0.7363405874929974	0.3847218964409677	0.1625514403292181	-0.405857740585774	0.6949891067538128
1757.843017578125	-0.1277313764372369	-9.74283461342066	-1.811651367667729	-0.6996201500537946	1.098414380573013	-0.7437328373263454	0.1604938271604938	-0.4100418410041841	0.6775599128540306
1777.374267578125	-0.177728243676094	-9.692016286801319	-1.880317490716221	-0.6995807006335061	-0.3941217493772142	0.7507757636383033	0.154320987654321	-0.403765690376569	0.6753812636165578
1796.905517578125	-0.1580485827244102	-9.744252211834954	-2.014045621671517	-0.3761869436672488	-1.503822921742853	0.3623202613486092	0.1584362139917695	-0.4205020920502092	0.6666666666666667
1816.436767578125	-0.01758509109221673	-9.839317190029757	-2.148707366978067	-0.3309356407806847	0.7363405874929974	0.3847218964409677	0.1748971193415638	-0.4246861924686192	0.6840958605664489
1835.968017578125	-0.1588690316997537	-9.826297109369316	-2.13936819225011	-1.053181442277761	0.7146732134480851	-0.3702117584315569	0.1584362139917695	-0.4330543933054393	0.6840958605664489
1855.499267578125	0.003654635398790395	-9.735546561131063	-1.830175125136909	-0.7297580982462877	-1.514430056380224	0.3622141900022355	0.1728395061728395	-0.4163179916317991	0.6906318082788672
1875.030517578125	-0.09777993681148531	-9.777993681148534	-2.237352230900289	0.04530061466192473	0.3744933467980667	1.89053738629817	0.1604938271604938	-0.401673640167364	0.6819172113289761
1894.561767578125	0.003936538433421995	-9.707356257667902	-2.040884003054617	-0.3158518731518299	1.483061757238281	0.3921891081384206	0.168724279835391	-0.4121338912133891	0.6797385620915033
1914.093017578125	0.03393142548028171	-9.738170583284964	-2.032023760363991	-1.038087812293834	1.088260350705812	0.01088260350705812	0.1748971193415638	-0.4121338912133891	0.6797385620915033
1933.624267578125	0.04040408082024609	-10.10100605938953	-1.938989696504709	0.007561608524571581	-0.3729074801024718	0.7509879063310508	0.1563786008230453	-0.4246861924686192	0.6644880174291939
1953.155517578125	0.212682199160129	-10.04491139711841	-2.045573293318865	-0.3233740322561131	0.3634331073905256	1.135709802772018	0.1502057613168724	-0.4205020920502092	0.6775599128540306
1972.686767578125	-0.1182739843076605	-9.807196410564027	-2.168310237138955	-0.300748380812831	1.483514862008451	1.146910620318198	0.1728395061728395	-0.4163179916317991	0.6862745098039217
1992.218017578125	-0.1478364179537233	-9.733136744867277	-1.892175605463305	-0.3234134816764015	1.855969237340753	-0.3587987981926302	0.1604938271604938	-0.4205020920502092	0.6710239651416122
2011.749267578125	-0.2384505614977988	-9.703642008365733	-2.154233272699932	-0.3309257784256125	0.3632065550054406	0.75834904668213	0.1604938271604938	-0.401673640167364	0.6884531590413944
2031.280517578125	0.2069360251172977	-9.609427791300536	-1.943048493960319	-1.436880682694221	-2.28191239063008	1.109256347791812	0.1728395061728395	-0.4225941422594142	0.6884531590413944
2050.811767578125	0.1749122445452041	-9.781502818206869	-2.042881574020447	-1.406742734501728	0.3309320463231571	0.003309320463231571	0.1728395061728395	-0.4142259414225941	0.6775599128540306
2070.343017578125	-0.4023402963483929	-9.930999331808978	-1.985421854402418	-1.391668829227945	1.450787248555997	-0.3628506180804778	0.1728395061728395	-0.399581589958159	0.6819172113289761
2089.874267578125	-0.1350113454856983	-9.460730508165787	-1.898629063105571	-0.3459996836993952	-0.7566486472273998	1.124508985225839	0.1460905349794239	-0.4100418410041841	0.6753812636165578
2109.405517578125	0.2558153842690489	-9.771996926630473	-1.940587147034288	-1.068225760486328	-1.524584086247426	1.116829630835639	0.1419753086419753	-0.4121338912133891	0.6884531590413944
2128.936767578125	-0.03615633760307306	-9.67623982091337	-2.039729109977255	-0.3158518731518299	1.483061757238281	0.3921891081384206	0.1625514403292181	-0.4142259414225941	0.6884531590413944
2148.468017578125	-0.09687663461449372	-9.687663461449374	-2.293432747499422	-0.3234036193213294	1.482835204853196	0.01482835204853196	0.1604938271604938	-0.4267782426778242	0.6971677559912854
2167.999267578125	-0.2200591671022271	-9.884704589010587	-2.041890366576097	-1.436880682694221	-2.28191239063008	1.109256347791812	0.154320987654321	-0.405857740585774	0.6753812636165578
2187.530517578125	-0.07809118221352306	-9.829320241554326	-2.28012571177864	-0.6769254621250077	-0.3934420922219592	1.882858031907969	0.1502057613168724	-0.4163179916317991	0.6644880174291939
2207.061767578125	0.1756276113857746	-9.709966134149816	-1.958489505341108	-0.6619107309816579	2.965217304936222	-0.7250648080827133	0.1604938271604938	-0.4330543933054393	0.6862745098039217
2226.593017578125	-0.3221494922496924	-9.992727002747021	-1.937201279403282	-1.015501610270841	3.700878235273965	-1.472425179911411	0.1502057613168724	-0.4079497907949791	0.6688453159041395
2246.124267578125	-0.2392346358880286	-9.782049447388717	-1.91573724297074	-0.3610735889731778	-1.87650384946024	1.490668923769549	0.1604938271604938	-0.4163179916317991	0.6797385620915033
2265.655517578125	0.3466770770729263	-9.776736737151825	-2.23284481356161	0.737378880901292	-1.097281618647588	2.630536617775789	0.1460905349794239	-0.4100418410041841	0.6840958605664489
2285.186767578125	0.2786202283250895	-9.511714541228427	-2.129365181343827	0.4290097174334567	2.997944918388676	0.7846964303159623	0.1481481481481482	-0.3953974895397489	0.6862745098039217
2304.718017578125	-0.2518758146202007	-10.03606631050492	-2.090180659530034	-1.015491747915769	3.327744202786408	-1.098798029670249	0.1646090534979424	-0.4205020920502092	0.6840958605664489
2324.249267578125	-0.218732505150717	-9.752038393859584	-1.903930658885901	-1.075777506655827	-1.524810638632511	0.7394688747457504	0.154320987654321	-0.4142259414225941	0.6884531590413944
2343.780517578125	0.05817003443288957	-10.34461271832721	-2.021699440622537	-1.421796915065367	-1.535191220884797	1.116723559489265	0.1563786008230453	-0.4121338912133891	0.6884531590413944
2363.311767578125	-0.04835900050359603	-9.886405100864655	-1.868541218785643	-1.391639242162729	0.3313851510933271	0.7580308326430089	0.1666666666666667	-0.4163179916317991	0.6797385620915033
2382.843017578125	-0.1070463623692146	-9.694535226820447	-1.99084773001522	-1.053171579922689	0.3415391809605283	0.003415391809605283	0.1666666666666667	-0.4267782426778242	0.6906318082788672
2402.374267578125	-0.07675441621059252	-9.695643641261274	-2.041105281780725	-0.3384479375298957	-0.7564220948423148	1.501869741315728	0.1604938271604938	-0.397489539748954	0.6993464052287582
2421.905517578125	-0.02800438891702363	-9.871145962409434	-2.32212017029247	0.3309750902009731	-2.228876717443224	1.109786704523681	0.168724279835391	-0.4121338912133891	0.6797385620915033
2441.436767578125	0.1367239822014709	-9.559925012176143	-2.1836997178575	-0.6995905629885782	-0.02098771688965735	0.3771486133971412	0.1502057613168724	-0.401673640167364	0.6666666666666667
2460.968017578125	0.02168329434836655	-9.952882686375469	-2.315609119557108	0.4289998550783847	3.371078950876232	0.4110692800748001	0.168724279835391	-0.4288702928870293	0.6775599128540306
2480.499267578125	-0.3413411275177667	-9.891688509352429	-1.972745311490274	-1.053171579922689	0.3415391809605283	0.003415391809605283	0.1728395061728395	-0.4184100418410042	0.6862745098039217
2500.030517578125	0.09302294940271971	-9.889624251647222	-1.907692397229748	0.03021684703307	-0.3722278229472168	1.883070174600717	0.1522633744855967	-0.4079497907949791	0.6819172113289761
2519.561767578125	0.2344806796946891	-9.885265363864423	-2.198989168466982	0.4139160874495299	2.624357781130949	0.4036020683773472	0.1646090534979424	-0.4225941422594142	0.6797385620915033
2539.093017578125	-0.3289131442705669	-9.658991194733455	-1.910481115421803	0.0603252081603468	3.360018711468691	-0.3437583034513508	0.1872427983539095	-0.4246861924686192	0.6840958605664489
2558.624267578125	-0.1279577071890559	-9.765467688602556	-2.055209527158584	0.4063840659901746	1.87786316377075	0.7734956127697831	0.1584362139917695	-0.3912133891213389	0.6557734204793029
2578.155517578125	-0.2482221896265524	-9.670703811140084	-1.910259836695694	-0.7222063520767882	-1.51420350399514	0.7395749460921242	0.1707818930041153	-0.4246861924686192	0.6688453159041395
2597.686767578125	0.09532970434201705	-9.658948757717489	-2.06785272670104	0.03771928142720893	1.493668891875652	0.3922951794847943	0.1604938271604938	-0.4205020920502092	0.673202614379085
2617.218017578125	-0.1702835785894787	-9.957650788240798	-2.166252041864602	0.03771928142720893	1.493668891875652	0.3922951794847943	0.1748971193415638	-0.403765690376569	0.6666666666666667
2636.749267578125	-0.2192377077217414	-9.802558650962023	-1.906461723766733	-0.3459996836993952	-0.7566486472273998	1.124508985225839	0.1604938271604938	-0.399581589958159	0.6840958605664489
2656.280517578125	0.1745899253048905	-9.813734742238225	-2.23641558533361	-1.068245485196472	-0.7783160212723121	0.3695753303533146	0.1625514403292181	-0.4163179916317991	0.6906318082788672
2675.811767578125	0.1946171656254391	-9.831212730385385	-1.923957899206449	-0.3460391331196837	0.7358874827228274	-0.3699996157388095	0.1584362139917695	-0.4142259414225941	0.6971677559912854
2695.343017578125	-0.02585424677474384	-9.656131748181458	-2.028519675331366	-0.3384873869501842	0.7361140351079124	0.007361140351079124	0.1646090534979424	-0.403765690376569	0.6819172113289761
2714.874267578125	-0.04615429648364562	-9.665934698869615	-2.039313833463873	-0.3233838946111852	0.7365671398780824	0.7620826525308564	0.168724279835391	-0.4079497907949791	0.6906318082788672
2734.405517578125	-0.09806487106154307	-9.806487106154309	-2.056961569674897	-0.7297679606013598	-1.141296023892668	-0.01141296023892668	0.1584362139917695	-0.4100418410041841	0.6775599128540306
2753.936767578125	-0.169358047479362	-9.86509767722913	-1.999998969386755	-0.6996004253436504	0.3521463155978994	0.003521463155978994	0.1707818930041153	-0.4142259414225941	0.6710239651416122
2773.468017578125	-0.05714649402399415	-9.755053442803458	-1.882263531019807	0.03017739761278156	1.12030830700301	0.3885615736360679	0.1563786008230453	-0.4079497907949791	0.6688453159041395
2792.999267578125	0.1554275917859357	-9.709766073931691	-1.97888352272822	-0.7071225844479335	-0.7674823342498559	0.7470421577895769	0.1625514403292181	-0.405857740585774	0.6840958605664489
2812.530517578125	0.06258348409335858	-9.903267752280307	-2.32282038105591	-1.053141992857473	-0.7778629165021421	1.124296842533092	0.1584362139917695	-0.4205020920502092	0.6775599128540306
2832.061767578125	-0.1173555260335381	-9.715350583151793	-2.072799670276511	-0.7071521715131499	0.3519197632128144	-0.3738392929339096	0.1625514403292181	-0.4205020920502092	0.6819172113289761
2851.593017578125	-0.06723538936735109	-9.75384196703814	-1.781293745174874	-0.338477524595112	0.3629800026203556	0.3809882905922413	0.1584362139917695	-0.405857740585774	0.6906318082788672
2871.124267578125	0.04281894910974264	-9.859519230439879	-2.027901307384432	-0.3082804022721863	0.7370202446482523	1.516804164710634	0.1604938271604938	-0.405857740585774	0.6906318082788672
2890.655517578125	-0.1675585159213731	-9.685144521430246	-2.182902508200423	-1.0682356228414	-1.151450053759869	0.7432024805944768	0.1625514403292181	-0.4330543933054393	0.6906318082788672
2910.186767578125	0.0239385186254194	-9.727360258670185	-1.98107812269675	-0.3460194084095394	-0.01038058225228618	0.3772546847435149	0.1831275720164609	-0.4079497907949791	0.6753812636165578
2929.718017578125	-0.177728243676094	-9.692016286801319	-1.880317490716221	-0.3158518731518299	1.483061757238281	0.3921891081384206	0.1584362139917695	-0.4142259414225941	0.6949891067538128
2949.249267578125	-0.03866517357078016	-9.927123417684079	-1.880581206458296	-1.444462015928937	-1.162736845552495	-0.3889858590215627	0.1522633744855967	-0.403765690376569	0.6797385620915033
2968.780517578125	0.012659366024729	-9.845174508638213	-1.663849303488835	-1.444462015928937	-1.162736845552495	-0.3889858590215627	0.1831275720164609	-0.4205020920502092	0.6666666666666667
2988.311767578125	0.1248416177309775	-9.738060449124481	-1.839189959814268	-0.6995905629885782	-0.02098771688965735	0.3771486133971412	0.1563786008230453	-0.4121338912133891	0.6906318082788672
3007.843017578125	-0.1575595466356585	-9.695348602959795	-2.173211712483034	-0.6995905629885782	-0.02098771688965735	0.3771486133971412	0.1481481481481482	-0.4205020920502092	0.6884531590413944
3027.374267578125	-0.1903815472699707	-9.947245636087979	-2.176033774044776	-1.053171579922689	0.3415391809605283	0.003415391809605283	0.1522633744855967	-0.405857740585774	0.6753812636165578
3046.905517578125	-0.04799323384217438	-9.84982843472249	-2.250547111650304	-1.053141992857473	-0.7778629165021421	1.124296842533092	0.168724279835391	-0.403765690376569	0.6906318082788672
3066.436767578125	0.1557226300874139	-9.680262243783867	-2.058213461645895	-0.7222063520767882	-1.51420350399514	0.7395749460921242	0.1707818930041153	-0.4205020920502092	0.6819172113289761
3085.968017578125	0.03404054923562297	-9.727258207750838	-1.950668969541651	-0.3309257784256125	0.3632065550054406	0.75834904668213	0.1522633744855967	-0.4121338912133891	0.673202614379085
3105.499267578125	0.03424364066917478	-9.706949064395657	-1.939550471358546	-0.6694230277308688	1.47245462260091	0.3920830367920469	0.1625514403292181	-0.4121338912133891	0.6840958605664489
3125.030517578125	-0.1897530752716164	-9.884398436252544	-1.950662907110798	-0.6467875139325145	2.219402344731279	0.7769110045793883	0.1625514403292181	-0.4205020920502092	0.6993464052287582
3144.561767578125	-0.1160490721848691	-9.584705198284887	-2.13696140720175	-0.01506404291871051	-1.492989234720397	0.7397870887848715	0.1769547325102881	-0.4205020920502092	0.6906318082788672
3164.093017578125	0.1264400786656986	-9.578214355652367	-2.012999852349497	-0.3460095460544673	-0.383514614739843	0.7508818349846771	0.1646090534979424	-0.4205020920502092	0.6557734204793029
3183.624267578125	0.3785280783657296	-9.621939638174528	-1.840948064761433	-0.6920486791741509	0.3523728679829845	0.3808822192458676	0.1666666666666667	-0.4142259414225941	0.6797385620915033
3203.155517578125	-0.07754859465224286	-9.775061485426308	-1.903669974359252	0.03772914378228104	1.120534859388095	0.7659223297259565	0.168724279835391	-0.405857740585774	0.6623093681917211
3222.686767578125	0.08192263851217198	-9.989554330600987	-1.821890813377251	-0.6845067953597235	0.7257334528556262	0.384615825094594	0.1502057613168724	-0.403765690376569	0.69281045751634
3242.218017578125	-0.3092051919749057	-9.708397985369356	-1.76123922391549	-0.3459996836993952	-0.7566486472273998	1.124508985225839	0.1790123456790124	-0.403765690376569	0.6623093681917211
3261.749267578125	-0.03796193159191421	-9.856799219797484	-1.917462004548218	-1.053161717567617	-0.03159485152702852	0.3770425420507675	0.1604938271604938	-0.4142259414225941	0.6710239651416122
3281.280517578125	-0.05624925425785485	-9.665329466189528	-1.99898048100357	0.03771928142720893	1.493668891875652	0.3922951794847943	0.1666666666666667	-0.4246861924686192	0.6819172113289761
3300.811767578125	-0.02515201520101996	-9.585908590809069	-2.07550654565206	-1.068255347551544	-0.4051819887847553	-0.004051819887847552	0.1625514403292181	-0.4100418410041841	0.6710239651416122
3320.343017578125	0.144722349305929	-9.77018931183135	-1.982011737048003	-0.3309257784256125	0.3632065550054406	0.75834904668213	0.1604938271604938	-0.4142259414225941	0.6753812636165578
3339.874267578125	-0.1285811271616999	-9.827809685866963	-2.230050032938703	-0.007522159104283147	-1.119628649847755	0.7435206946335979	0.1666666666666667	-0.4121338912133891	0.6862745098039217
3359.405517578125	0.1162410491618583	-9.588016295935381	-2.003490929557676	-0.6920486791741509	0.3523728679829845	0.3808822192458676	0.1646090534979424	-0.4142259414225941	0.6840958605664489
3378.936767578125	-0.1274302757049064	-9.712724540187608	-1.830344873200773	0.03020698467799789	0.0009062095403399367	1.509443024359554	0.1646090534979424	-0.4121338912133891	0.6797385620915033
3398.468017578125	-0.09834778450131672	-9.834778450131674	-1.856358763987961	-0.6920486791741509	0.3523728679829845	0.3808822192458676	0.1748971193415638	-0.4121338912133891	0.6579520697167757
3417.999267578125	0.02423557773718174	-9.69765434749395	-2.040195917152881	-1.060713463737117	-0.0318214039121135	-0.000318214039121135	0.1584362139917695	-0.4100418410041841	0.6949891067538128
3437.530517578125	-0.2182283129848347	-9.70161917727135	-1.91150566623584	-0.3384479375298957	-0.7564220948423148	1.501869741315728	0.1625514403292181	-0.3933054393305439	0.673202614379085
3457.061767578125	-0.2180322943872773	-9.682017317515605	-1.971129673668138	0.02266510086357052	-0.3724543753323019	1.505709418510828	0.1625514403292181	-0.3953974895397489	0.6884531590413944
3476.593017578125	0.03290081223539197	-9.841231907773938	-2.239207334741091	0.05281291141113576	1.867256029133379	0.7733895414234093	0.1728395061728395	-0.4079497907949791	0.6797385620915033
3496.124267578125	-0.06370200258560656	-9.400503288863687	-1.793894507701364	-0.6769846362554405	1.845362102703382	-0.358904869539004	0.1522633744855967	-0.4079497907949791	0.6819172113289761
3515.655517578125	-0.1482476528465371	-9.774260234148663	-1.964942962983373	-0.3535514298688947	-0.7568751996124847	0.7471482291359507	0.1625514403292181	-0.3953974895397489	0.6797385620915033
3535.186767578125	0.2164348438576982	-9.669646927361502	-1.885358401969902	-0.7071028597377893	-1.513750399224969	1.494296458271901	0.1584362139917695	-0.4079497907949791	0.6840958605664489
3554.718017578125	0.1436179764856697	-9.880626593857277	-1.916837574170432	-1.075787369010899	-1.151676606144954	0.3658417245045882	0.1831275720164609	-0.4121338912133891	0.6840958605664489
3574.249267578125	0.07160943322728021	-10.01077384898915	-1.94426704256163	-1.023013907020052	2.208115552938652	-0.3552773350366513	0.1625514403292181	-0.3953974895397489	0.6710239651416122
3593.780517578125	-0.1582678406402347	-9.766178003417416	-2.18686127554697	-1.045629696108262	0.7148997658331701	0.007148997658331701	0.1604938271604938	-0.4414225941422594	0.6688453159041395
3613.311767578125	0.0229129574062399	-9.829916380588134	-2.137731335919991	0.3762362554426094	-0.3618472406949307	1.505815489857202	0.1707818930041153	-0.4246861924686192	0.6710239651416122
3632.843017578125	-0.03546016846020147	-9.60662290662621	-2.147352413682579	0.04526116524163629	1.867029476748294	0.3960287853335207	0.1604938271604938	-0.4142259414225941	0.6840958605664489
3652.374267578125	-0.1877534834955019	-9.684439258641095	-2.152766164433677	-0.3083297140475468	2.602690407086036	-0.3513315864951774	0.1646090534979424	-0.405857740585774	0.6840958605664489
3671.905517578125	-0.2150950466393415	-9.388292542722029	-1.885706991743909	-1.068245485196472	-0.7783160212723121	0.3695753303533146	0.1604938271604938	-0.403765690376569	0.6753812636165578
3691.436767578125	0.226542936898754	-9.668938633356925	-1.794312815430172	-0.3459898213443231	-1.129782679714956	1.498136135467002	0.168724279835391	-0.4121338912133891	0.6819172113289761
3710.968017578125	0.2170299724863649	-9.610134064494828	-1.993487918651393	-0.3384873869501842	0.7361140351079124	0.007361140351079124	0.1666666666666667	-0.4184100418410042	0.6862745098039217
3730.499267578125	-0.2278039225160309	-9.649079120289958	-1.727156237663901	-1.023013907020052	2.208115552938652	-0.3552773350366513	0.1584362139917695	-0.4121338912133891	0.6775599128540306
3750.030517578125	-0.1762197087990152	-9.541162799093438	-1.943466801689127	0.03773900613735315	0.7474008269005386	1.139549479967119	0.1604938271604938	-0.4142259414225941	0.6775599128540306
3769.561767578125	0.0423976101655083	-9.901653124863314	-2.201729387212218	0.02265523850849842	0.0006796571552549525	1.132082268269666	0.1666666666666667	-0.4121338912133891	0.6797385620915033
3789.093017578125	0.03128921603382418	-10.00239152793072	-2.196776381205895	-0.3233937569662573	1.109701172365639	0.3884555022896942	0.191358024691358	-0.3933054393305439	0.6688453159041395
3808.624267578125	-0.2696296433711396	-9.791247165396788	-1.886198048642945	-1.038087812293834	1.088260350705812	0.01088260350705812	0.1460905349794239	-0.4121338912133891	0.69281045751634
3828.155517578125	-0.2597458602716186	-9.812969865545693	-2.018498477132527	-1.805545467257187	-2.666106662525178	0.7280559145068237	0.1522633744855967	-0.405857740585774	0.6775599128540306
3847.686767578125	0.05422844397375732	-9.728670754139422	-2.051547818923799	-0.3535317051587504	-1.503143264587598	1.494402529618275	0.1625514403292181	-0.397489539748954	0.6775599128540306
3867.218017578125	0.3367993564042575	-9.754407793917688	-2.039907951687398	-0.6618811439164415	1.845815207473552	0.3958166426407733	0.1625514403292181	-0.4079497907949791	0.673202614379085
3886.749267578125	-0.10773950029666	-9.763849019564994	-1.85290620961758	-0.6619107309816579	2.965217304936222	-0.7250648080827133	0.1707818930041153	-0.4100418410041841	0.6862745098039217
3906.280517578125	-0.2301500832558681	-9.883695194273681	-1.961132725192708	-0.6995807006335061	-0.3941217493772142	0.7507757636383033	0.1604938271604938	-0.4267782426778242	0.6797385620915033
3925.811767578125	-0.2690658373018763	-9.734866558470465	-2.307615804478361	-1.068206035776183	-2.270852151222539	1.864083931317963	0.1666666666666667	-0.403765690376569	0.6623093681917211
3945.343017578125	0.2459113930666868	-9.752295036765663	-2.010408163160142	-1.083319390470254	-1.898171223505152	0.735735268897024	0.1522633744855967	-0.4079497907949791	0.6797385620915033
3964.874267578125	0.09322604083627152	-9.869315108292042	-1.896573899046644	-0.6769944986105125	2.218496135190938	-0.7325320197801661	0.1563786008230453	-0.3953974895397489	0.6862745098039217
3984.405517578125	-0.2606532040891784	-9.903704247301674	-2.002842249456481	-0.3234036193213294	1.482835204853196	0.01482835204853196	0.1522633744855967	-0.405857740585774	0.6862745098039217
4003.936767578125	-0.04635738791719742	-9.686243842224796	-2.050432331646978	-0.300748380812831	1.483514862008451	1.146910620318198	0.1646090534979424	-0.4121338912133891	0.6862745098039217
4023.468017578125	0.01283416611430344	-9.827694499680769	-1.93570082776734	0.3686845092731099	-0.3620737930800156	1.128454733767313	0.1502057613168724	-0.403765690376569	0.6623093681917211
4042.999267578125	-0.0654621283430555	-9.576515864608583	-2.226955161988607	-0.3611229007485384	-0.01083368702245615	-0.3774668274362623	0.1893004115226338	-0.4246861924686192	0.6710239651416122
4062.530517578125	-0.04755370760538317	-9.80587581104337	-1.894809731668627	-1.421826502130583	-0.4157891234221265	-0.004157891234221264	0.1460905349794239	-0.4205020920502092	0.6949891067538128
4082.061767578125	-0.02625638802127925	-9.696345872834998	-2.010332382774488	0.02266510086357052	-0.3724543753323019	1.505709418510828	0.154320987654321	-0.4225941422594142	0.6797385620915033
4101.593017578125	-0.05856914446399882	-9.897318486803925	-1.970199090532311	-0.6920388168190788	-0.02076116450457237	0.7545093694870298	0.1604938271604938	-0.4309623430962343	0.6862745098039217
4121.124267578125	-0.06658064683530349	-9.688367713833381	-2.303266010341841	-0.669442752441013	2.218722687576024	-0.3551712636902775	0.168724279835391	-0.401673640167364	0.6840958605664489
4140.655517578125	-0.3798183657321258	-9.699008290384295	-1.973597083025021	-0.3309257784256125	0.3632065550054406	0.75834904668213	0.1666666666666667	-0.4079497907949791	0.6906318082788672
4160.186767578125	-0.1362187796304466	-9.581473922640615	-1.854173257665709	-0.6920092297538625	-1.140163261967243	1.875390820210517	0.1748971193415638	-0.4100418410041841	0.6819172113289761
4179.718017578125	0.166040887398016	-9.658537522824677	-1.885306871307658	-1.060703601382045	-0.4049554363996703	0.3733089362020411	0.1707818930041153	-0.4100418410041841	0.6797385620915033
4199.249267578125	0.05241375633863773	-9.91013951765138	-2.020235363571708	-1.406772321566944	1.450334143785827	-1.117572130260255	0.1481481481481482	-0.3933054393305439	0.6862745098039217
4218.780517578125	-0.3917259903311706	-9.879669740187756	-1.881739130751084	-1.053171579922689	0.3415391809605283	0.003415391809605283	0.1666666666666667	-0.4121338912133891	0.6884531590413944
4238.311767578125	0.06372827311929982	-9.788788849686183	-1.983751654702611	-1.060664151961756	-1.897491566349897	1.86781753716669	0.1625514403292181	-0.4142259414225941	0.6688453159041395
4257.843017578125	0.2453051499814576	-9.81291934528859	-2.013445441017141	-0.6769649115452961	1.099094037728268	0.3883494309433204	0.1666666666666667	-0.397489539748954	0.6644880174291939
4277.374267578125	-0.2181222204449196	-9.691009923279839	-1.860469092105815	-0.6920684038842951	1.098640932958098	-0.3663720812364568	0.1625514403292181	-0.405857740585774	0.673202614379085
4296.905517578125	-0.2903389071625711	-9.841971524337918	-1.949547419833976	-0.7146546059072888	-1.513976951610055	1.116935702182013	0.1625514403292181	-0.403765690376569	0.6819172113289761
4316.436767578125	0.2256972277948592	-9.753509543746405	-2.172287191778059	0.4139752615799626	0.3855535862056079	2.64536496982432	0.168724279835391	-0.405857740585774	0.6906318082788672
4335.968017578125	0.113705942660458	-9.841526946075417	-2.107100904038782	0.3988619068858915	0.7582345139229947	1.517016307403381	0.1604938271604938	-0.3953974895397489	0.6884531590413944
4355.499267578125	-0.03807004494211343	-9.867610554817407	-1.988710723139786	-0.676955049190224	0.7259600052407112	0.7619765811844826	0.1584362139917695	-0.399581589958159	0.6644880174291939
4375.030517578125	-0.05806192108269034	-9.846596148673076	-1.947455881189935	0.04528088995178051	1.12076141177318	1.143283085815845	0.1460905349794239	-0.403765690376569	0.6906318082788672
4394.561767578125	-0.1790559160327461	-9.824783522466527	-2.028383270637189	-0.3158321484416857	0.7367936922631674	1.139443408620745	0.1748971193415638	-0.4121338912133891	0.6753812636165578
4414.093017578125	0.04363535646451805	-9.777878494962339	-1.943003025728927	0.406413653055391	0.7584610663080796	1.89437706349327	0.1728395061728395	-0.4121338912133891	0.6666666666666667
4433.624267578125	0.176547080065039	-9.618019266223378	-1.852872866247892	0.03020698467799789	0.0009062095403399367	1.509443024359554	0.1584362139917695	-0.4121338912133891	0.6862745098039217
4453.155517578125	0.4177206834206592	-9.743083173085605	-1.755704224547347	-1.060743050802333	1.087580693550557	-1.121199664762608	0.154320987654321	-0.4205020920502092	0.6753812636165578
4472.686767578125	-0.1383699321778684	-9.796589177382799	-2.157879824857586	-0.3083198516924747	2.229556374598479	0.0222955637459848	0.1563786008230453	-0.4121338912133891	0.6884531590413944
4492.218017578125	0.05525703640836296	-9.625811510678858	-1.864576389008243	0.3536106039993273	-1.481928995312856	1.494614672311023	0.1563786008230453	-0.401673640167364	0.6753812636165578
4511.749267578125	0.09240357105064383	-9.951562086854812	-2.04210861408678	-0.6694230277308688	1.47245462260091	0.3920830367920469	0.1584362139917695	-0.3912133891213389	0.6862745098039217
4531.280517578125	0.0233211610836276	-9.789096012849365	-2.095282195092238	-1.444491602994153	-0.04333474808982461	-1.509867309745049	0.1522633744855967	-0.4184100418410042	0.6862745098039217
4550.811767578125	0.0351327971941777	-9.618033411895365	-2.137115999188483	-0.3384676622400399	-0.0101540298672012	0.7546154408334035	0.1769547325102881	-0.4163179916317991	0.673202614379085
4570.343017578125	-0.01698288962755566	-9.779097043563652	-2.186094378044155	-1.075767644300755	-1.897944671120067	1.113096024986913	0.1604938271604938	-0.397489539748954	0.673202614379085
4589.874267578125	0.1948970478497866	-9.803224507950635	-2.154878921585701	-0.3007582431679031	1.856648894496008	0.7732834700770356	0.1728395061728395	-0.397489539748954	0.6840958605664489
4609.405517578125	-0.1276586272670094	-9.73555969639791	-2.094115177153172	-1.045659283173478	1.834301863295841	-1.113732453065155	0.1748971193415638	-0.403765690376569	0.6644880174291939
4628.936767578125	-0.451219655500144	-9.768430196479043	-1.987883201328449	0.05281291141113576	1.867256029133379	0.7733895414234093	0.1707818930041153	-0.4225941422594142	0.6688453159041395
4648.468017578125	0.003628364865097128	-9.73817361450039	-2.092933003136975	-0.01504431820856629	-2.239257299695511	1.487041389267196	0.1502057613168724	-0.405857740585774	0.673202614379085
4667.999267578125	0.0439162490940076	-9.749789232013383	-2.163817975877406	-0.3460194084095394	-0.01038058225228618	0.3772546847435149	0.168724279835391	-0.4163179916317991	0.6884531590413944
4687.530517578125	-0.2583353346933185	-9.671917307715686	-2.051835784389283	-0.3158617355069021	1.856195789725838	0.01856195789725838	0.1707818930041153	-0.4205020920502092	0.6862745098039217
4707.061767578125	-0.07652909586391565	-9.673111606593586	-1.807653194520642	-1.060693739026972	-0.7780894688872271	0.7469360864432033	0.1790123456790124	-0.4100418410041841	0.673202614379085
4726.593017578125	-0.06734855474326056	-9.765158504629088	-1.903072824920301	-0.3535415675138225	-1.130009232100041	1.120775379377113	0.1563786008230453	-0.403765690376569	0.6710239651416122
4746.124267578125	0.05313619601520261	-9.837895549994894	-1.865100789276967	-0.6845265200698678	1.47200151783074	-0.3626384753877304	0.1790123456790124	-0.397489539748954	0.6753812636165578
4765.655517578125	-0.1370240725286594	-9.662003212461903	-1.827904744782725	-0.3384972493052563	1.109248067595469	-0.3662660098900831	0.1522633744855967	-0.4100418410041841	0.673202614379085
4785.186767578125	-0.2686111549879545	-9.689398327078271	-1.800287341035106	-0.6694033030207246	0.7261865576257962	1.139337337274371	0.1625514403292181	-0.4184100418410042	0.6710239651416122
4804.718017578125	0.04311398741122088	-9.830015400292055	-2.107231246302107	-0.7221964897217161	-1.887337536482696	1.113202096333286	0.1481481481481482	-0.4079497907949791	0.6753812636165578
4824.249267578125	0.1047183889219342	-9.730181309826785	-2.101623497763736	-0.3158617355069021	1.856195789725838	0.01856195789725838	0.1893004115226338	-0.4142259414225941	0.6623093681917211
4843.780517578125	-0.3918361244916538	-9.89068315623609	-1.973199993804196	-1.429388110655154	-0.04288164331965463	-0.7551457975652721	0.1769547325102881	-0.4121338912133891	0.6688453159041395
4863.311767578125	-0.1780293444084246	-9.722126360034371	-1.861623985183177	-0.3535415675138225	-1.130009232100041	1.120775379377113	0.1481481481481482	-0.403765690376569	0.673202614379085
4882.843017578125	-0.1690619987727417	-9.835492806567101	-2.069222836073659	-0.6392357677630152	2.219628897116364	1.154271760669277	0.1625514403292181	-0.4205020920502092	0.6819172113289761
4902.374267578125	-0.08776985306920818	-9.78708631702183	-2.11649464064441	-0.7222162144318603	-1.141069471507583	0.3659477958509619	0.1604938271604938	-0.4330543933054393	0.6862745098039217
4921.905517578125	-0.09855087593486853	-9.855087593486854	-1.867477262171065	-0.692058541529223	0.7255069004705412	0.007255069004705413	0.1646090534979424	-0.4142259414225941	0.6775599128540306
4941.436767578125	-0.06696359038413997	-9.72666206871703	-2.093063345400299	-0.3384479375298957	-0.7564220948423148	1.501869741315728	0.168724279835391	-0.4184100418410042	0.6862745098039217
4960.968017578125	0.1056307847652042	-9.638941725499782	-2.066749364285923	-0.7146546059072888	-1.513976951610055	1.116935702182013	0.1563786008230453	-0.4100418410041841	0.6666666666666667
4980.499267578125	0.2435904924554008	-9.984385097894267	-1.991732844919655	-0.669432890085941	1.845588655088467	0.01845588655088467	0.1790123456790124	-0.3953974895397489	0.6819172113289761
5000.030517578125	-0.4105104323269992	-9.737911919568601	-1.884940094241094	-0.6468171009977309	3.338804442193949	-0.3439704461440983	0.1460905349794239	-0.401673640167364	0.6862745098039217
5019.561767578125	-0.1790306559041949	-9.822257509611404	-1.775731464867895	0.02266510086357052	-0.3724543753323019	1.505709418510828	0.1563786008230453	-0.4079497907949791	0.6775599128540306
5039.093017578125	0.1653356246088659	-9.729063801739679	-1.868638217679279	0.3988816315960357	0.01196644894788107	2.264270607885706	0.1563786008230453	-0.4100418410041841	0.6797385620915033
5058.624267578125	0.1641261696538335	-9.850009297242917	-1.844394556700961	-1.053181442277761	0.7146732134480851	-0.3702117584315569	0.1584362139917695	-0.4100418410041841	0.6688453159041395
5078.155517578125	-0.3203287421837205	-9.810651996149833	-1.907877301370743	-1.038097674648906	1.461394383193369	-0.3627445467341041	0.1481481481481482	-0.4100418410041841	0.673202614379085
5097.686767578125	0.02420728639320437	-9.700483481891688	-2.323165939614491	-0.6995708382784341	-0.7672557818647709	1.124402913879466	0.154320987654321	-0.4121338912133891	0.6884531590413944
5117.218017578125	0.004027474896206391	-9.698262611389463	-2.141438512386168	-0.3082705399171141	0.3638862121606956	1.890431314951796	0.1584362139917695	-0.4184100418410042	0.6840958605664489
5136.749267578125	-0.07703126721951389	-9.723328742153409	-1.779866042709159	-0.6996102876987225	0.7252803480854563	-0.3701056870851832	0.1522633744855967	-0.4163179916317991	0.6862745098039217
5156.280517578125	-0.05765472781044469	-9.805876821448511	-1.915112812592954	0.06034493287049102	2.613750646493577	0.4034959970309736	0.1502057613168724	-0.4205020920502092	0.6753812636165578
5175.811767578125	-0.1994751935484096	-9.84650925383086	-2.221592941899754	2.958706521632559e-05	-1.11940209746267	1.120881450723487	0.1707818930041153	-0.399581589958159	0.6840958605664489
5195.343017578125	0.08380704410209294	-9.801113771608893	-2.165985294907101	-0.3158321484416857	0.7367936922631674	1.139443408620745	0.1522633744855967	-0.403765690376569	0.6797385620915033
5214.874267578125	-0.05869039308104467	-9.90944334850851	-2.172826748123913	-0.6694131653757966	1.099320590113353	0.765710187033209	0.1522633744855967	-0.4079497907949791	0.6644880174291939
5234.405517578125	-0.2057245493519812	-9.461343824087011	-2.101387062960497	-1.068245485196472	-0.7783160212723121	0.3695753303533146	0.1584362139917695	-0.4100418410041841	0.69281045751634
5253.936767578125	-0.2376088940144721	-9.619475260033072	-1.816683185275132	-0.3158420107967578	1.109927724750724	0.7658162583795828	0.1666666666666667	-0.4246861924686192	0.6710239651416122
5273.468017578125	-0.008671296929062504	-9.958038783815345	-1.881827035998442	-0.3309159160705404	-0.009927477482116214	1.131976196923292	0.1563786008230453	-0.4121338912133891	0.6819172113289761
5292.999267578125	-0.01614829498022338	-9.695637578830423	-1.919286796234758	-0.3233838946111852	0.7365671398780824	0.7620826525308564	0.1769547325102881	-0.4142259414225941	0.6797385620915033
5312.530517578125	0.1553053327637478	-9.72199197615048	-2.191617252550594	-0.7146841929725051	-0.3945748541473841	-0.003945748541473841	0.1625514403292181	-0.405857740585774	0.6840958605664489
5332.061767578125	-0.04807406625353827	-9.85791167585888	-2.048931880011035	-0.2856547508289042	1.857101999266178	1.528004982256813	0.1625514403292181	-0.4100418410041841	0.6775599128540306
5351.593017578125	-0.1783435804076017	-9.753549959952087	-1.974309418650166	0.01512321704914316	-0.7458149602049436	1.501975812662102	0.1707818930041153	-0.397489539748954	0.6775599128540306
5371.124267578125	0.2166197479986931	-9.651156513262009	-2.05614920394069	-0.6920388168190788	-0.02076116450457237	0.7545093694870298	0.1522633744855967	-0.4184100418410042	0.6840958605664489
5390.655517578125	0.1454589346544826	-9.696530776975994	-1.685392151522457	-0.6920388168190788	-0.02076116450457237	0.7545093694870298	0.1563786008230453	-0.3933054393305439	0.673202614379085
5410.186767578125	-0.1286478139010751	-9.834478359804486	-1.886949790068629	0.03017739761278156	1.12030830700301	0.3885615736360679	0.1646090534979424	-0.4351464435146443	0.6862745098039217
5429.718017578125	0.1640998991201403	-9.852636350612244	-2.107152434701027	-0.6769747739003683	1.472228070215825	0.01472228070215825	0.154320987654321	-0.397489539748954	0.6710239651416122
5449.249267578125	-0.1686679407673427	-9.7960870060272	-2.16825870647671	-0.6920486791741509	0.3523728679829845	0.3808822192458676	0.1646090534979424	-0.4205020920502092	0.6753812636165578
5468.780517578125	-0.1191712240737998	-9.896920387177957	-2.051593287155192	-0.7071028597377893	-1.513750399224969	1.494296458271901	0.1584362139917695	-0.403765690376569	0.6688453159041395
5488.311767578125	0.1048265022721334	-9.719369974806863	-2.030374779172167	-0.7146546059072888	-1.513976951610055	1.116935702182013	0.1522633744855967	-0.399581589958159	0.6840958605664489
5507.843017578125	0.407294312759858	-9.775619229064718	-1.999859533477153	-0.6845067953597235	0.7257334528556262	0.384615825094594	0.1502057613168724	-0.397489539748954	0.6601307189542485
5527.374267578125	0.08332103922876748	-9.849714258941438	-1.976500987403269	-1.038097674648906	1.461394383193369	-0.3627445467341041	0.1790123456790124	-0.3933054393305439	0.6797385620915033
5546.905517578125	-0.2693214698028147	-9.7604298085643	-1.834149048560587	-0.714674330617433	-0.767708886634941	0.3696814016996884	0.1646090534979424	-0.401673640167364	0.7037037037037037
5566.436767578125	-0.1192682229674364	-9.906620276541625	-2.011675211208271	-0.2856448884738321	1.483967966778621	1.901632132497975	0.154320987654321	-0.4163179916317991	0.6862745098039217
5585.968017578125	0.2649080201423458	-9.872834349401797	-1.905134051410081	-0.6694131653757966	1.099320590113353	0.765710187033209	0.1625514403292181	-0.397489539748954	0.6753812636165578
5605.499267578125	-0.05849740569891336	-9.890144610295378	-2.262768972248526	-0.6467973762875867	2.592536377218835	0.4032838543382261	0.1604938271604938	-0.4288702928870293	0.6819172113289761
5625.030517578125	-0.1869471801921469	-9.603808928305602	-2.168928605085889	-0.7071225844479335	-0.7674823342498559	0.7470421577895769	0.1563786008230453	-0.4121338912133891	0.6710239651416122
5644.561767578125	0.08454666066607264	-9.727152115210922	-1.839047492689239	0.03773900613735315	0.7474008269005386	1.139549479967119	0.1707818930041153	-0.4225941422594142	0.673202614379085
5664.093017578125	-0.02767600724585777	-9.838307795292851	-2.067949725594677	0.07544842520948997	2.614203751263747	1.158217509210751	0.1625514403292181	-0.4330543933054393	0.6862745098039217
5683.624267578125	-0.1387458028907105	-9.834176248667012	-1.876934654300642	0.04526116524163629	1.867029476748294	0.3960287853335207	0.1707818930041153	-0.4184100418410042	0.6666666666666667
5703.155517578125	-0.2097631387047501	-9.865202759363905	-2.091317365314839	-0.6920388168190788	-0.02076116450457237	0.7545093694870298	0.154320987654321	-0.4225941422594142	0.6797385620915033
5722.686767578125	-0.1157419090216862	-9.553988881966605	-2.095018479350164	-1.053141992857473	-0.7778629165021421	1.124296842533092	0.1604938271604938	-0.4121338912133891	0.6819172113289761
5742.218017578125	0.2230701744255324	-10.01621488067908	-2.185448729158386	-1.04561983375319	0.3417657333456133	0.3807761478994939	0.1646090534979424	-0.4184100418410042	0.6710239651416122
5761.749267578125	-0.228758755375267	-9.744562406213566	-2.186485404834128	-0.6618910062715135	2.218949239961109	0.02218949239961108	0.1728395061728395	-0.4079497907949791	0.6884531590413944
5781.280517578125	-0.3495324820043561	-9.700722947910354	-2.084491068175157	-1.444462015928937	-1.162736845552495	-0.3889858590215627	0.1625514403292181	-0.4121338912133891	0.6840958605664489
5800.811767578125	-0.1893438611890866	-9.843477027999571	-1.898107694052274	-0.007502434394138929	-1.865896714822869	1.490774995115922	0.1646090534979424	-0.4205020920502092	0.6644880174291939
5820.343017578125	0.1459550435792285	-9.646919884501399	-1.773815736718571	0.03773900613735315	0.7474008269005386	1.139549479967119	0.154320987654321	-0.405857740585774	0.6775599128540306
5839.874267578125	0.206010494007181	-9.701980902312203	-2.109301566438165	0.4063840659901746	1.87786316377075	0.7734956127697831	0.1666666666666667	-0.405857740585774	0.6862745098039217
5859.405517578125	-0.04837516698586881	-9.888021749091934	-2.030238374477991	-0.7146940553275772	-0.02144082165982732	-0.3775728987826361	0.1625514403292181	-0.4142259414225941	0.6797385620915033
5878.936767578125	-0.0872525256364792	-9.735353573748933	-1.992690708994317	0.4516649559419552	2.998624575543931	1.916778698585628	0.1707818930041153	-0.4184100418410042	0.6884531590413944
5898.468017578125	-0.1773321648604109	-9.652408405233007	-1.959141216657729	-0.6618614192062973	1.099547142498438	1.143070943123098	0.1646090534979424	-0.4142259414225941	0.6775599128540306
5917.999267578125	-0.01778616171548443	-9.859424252356527	-2.139613720699628	-1.075807093721043	-0.4054085411698403	-0.3814125759777361	0.168724279835391	-0.399581589958159	0.6840958605664489
5937.530517578125	-0.3313472102577624	-9.902397793453003	-2.013584876926743	-1.060733188447261	0.714446661063	-0.7475725145214456	0.168724279835391	-0.4142259414225941	0.6579520697167757
5957.061767578125	-0.09704941389378406	-9.704941389378407	-2.001369078759374	-0.3988027327554589	-2.997038708848335	0.7247465940435922	0.1522633744855967	-0.4100418410041841	0.6862745098039217
5976.593017578125	0.2750949247844814	-9.864244895289241	-2.035915840971163	0.02266510086357052	-0.3724543753323019	1.505709418510828	0.1316872427983539	-0.4142259414225941	0.6819172113289761
5996.124267578125	0.132828870378873	-9.949436194435942	-1.748668773543261	-0.007551746169499472	-0.0002265523850849842	-0.3773607560898886	0.1604938271604938	-0.4079497907949791	0.6775599128540306
6015.655517578125	-0.1660166376746068	-9.530956696753604	-1.912551435557861	-0.6769846362554405	1.845362102703382	-0.358904869539004	0.1666666666666667	-0.4100418410041841	0.6819172113289761
6035.186767578125	-0.471712692591177	-9.79753188538033	-1.908735135336343	-1.030516341414191	0.3422188381157832	1.135497660079271	0.1563786008230453	-0.4163179916317991	0.6753812636165578
6054.718017578125	0.1545960283540296	-9.792922417122304	-2.215372887845303	-0.7146546059072888	-1.513976951610055	1.116935702182013	0.1625514403292181	-0.4100418410041841	0.6710239651416122
6074.249267578125	0.03422747418690199	-9.708565712622935	-2.101247627050894	0.02265523850849842	0.0006796571552549525	1.132082268269666	0.168724279835391	-0.4142259414225941	0.6623093681917211
6093.780517578125	-0.01706877406462982	-9.787685487271066	-2.035009507558745	-1.060723326092188	0.3413126285754433	-0.3739453642802834	0.1646090534979424	-0.405857740585774	0.6819172113289761
6113.311767578125	-0.02585222596445974	-9.655929667153048	-2.008307530869823	-0.3007385184577589	1.110380829520894	1.52053777055936	0.1769547325102881	-0.405857740585774	0.6753812636165578
6132.843017578125	0.1061471017927912	-9.587310022741089	-1.953051504866602	0.4214974206842457	1.505182236053363	1.901844275190723	0.1831275720164609	-0.401673640167364	0.6840958605664489
6152.374267578125	0.08615017362650403	-9.566800819167783	-1.962327024070609	0.4138963627393857	3.370625846106063	-0.3436522321049771	0.1625514403292181	-0.4267782426778242	0.6775599128540306
6171.905517578125	-0.301153273397919	-9.913307137771705	-2.0340304249761	-0.3083297140475468	2.602690407086036	-0.3513315864951774	0.1563786008230453	-0.4246861924686192	0.6753812636165578
6191.436767578125	-0.2989121947928549	-9.689199277265287	-1.840984439346546	0.03019712232292578	0.3740402420278968	1.135815874118392	0.1790123456790124	-0.3953974895397489	0.6906318082788672
6210.968017578125	0.04475892698247627	-9.665521443166517	-1.816161816221834	-0.6844772082945072	-0.3936686446070442	1.505497275818081	0.1502057613168724	-0.4246861924686192	0.6840958605664489
6230.499267578125	0.01243303527291008	-9.867807583820104	-1.90740746297969	-1.083339115180399	-1.151903158530039	-0.01151903158530039	0.1646090534979424	-0.4100418410041841	0.6797385620915033
6250.030517578125	-0.1784446209218065	-9.763654011372576	-1.974815631626332	-1.053191304632833	1.087807245935642	-0.7438389086727191	0.154320987654321	-0.4163179916317991	0.6906318082788672
6269.561767578125	-0.2512645195092612	-9.974936799410969	-2.036613020519177	0.3913002983613199	1.131141994025466	0.7660284010723302	0.1502057613168724	-0.4079497907949791	0.6753812636165578
6289.093017578125	0.0648215314829966	-9.679463013316505	-2.160092612118672	-0.7146447435522166	-1.887110984097611	1.490562852423175	0.154320987654321	-0.4184100418410042	0.673202614379085
6308.624267578125	0.2852909230728954	-9.854746076548841	-2.075742980455299	-1.053161717567617	-0.03159485152702852	0.3770425420507675	0.154320987654321	-0.401673640167364	0.6644880174291939
6328.155517578125	0.0323440790021231	-9.896905231100826	-1.747047073290273	-1.391678691583018	1.823921281043554	-0.73647776832164	0.1502057613168724	-0.3953974895397489	0.6840958605664489
6347.686767578125	0.002945330989072154	-9.806477002102888	-1.853930760431618	0.007561608524571581	-0.3729074801024718	0.7509879063310508	0.1810699588477366	-0.4205020920502092	0.6840958605664489
6367.218017578125	0.1042434985051713	-9.777670351503078	-1.800972395721415	-1.030536066124335	1.088486903090897	0.3882433595969467	0.1625514403292181	-0.4142259414225941	0.6819172113289761
6386.749267578125	-0.2883312321453202	-9.641204022612829	-2.070802099310681	-0.3234134816764015	1.855969237340753	-0.3587987981926302	0.1707818930041153	-0.4163179916317991	0.69281045751634
6406.280517578125	-0.3205399168584088	-9.831769463618652	-1.999844377400022	-0.7297876853115041	-0.3950279589175541	-0.7586672607212511	0.1481481481481482	-0.4246861924686192	0.6775599128540306
6425.811767578125	0.1853163862928802	-9.751189653540264	-2.02105985416762	-0.6995511135682898	-1.513523846839885	1.87165721436179	0.1522633744855967	-0.397489539748954	0.6644880174291939
6445.343017578125	-0.1577323259149489	-9.71262653088883	-1.881148043742985	-0.3459898213443231	-1.129782679714956	1.498136135467002	0.1666666666666667	-0.4100418410041841	0.673202614379085
6464.874267578125	0.1037251606673003	-9.829504135290179	-1.934882399602281	-1.075807093721043	-0.4054085411698403	-0.3814125759777361	0.1625514403292181	-0.4205020920502092	0.6666666666666667
6484.405517578125	-0.1684699013595012	-9.776283065243044	-2.207670569447465	-0.6920486791741509	0.3523728679829845	0.3808822192458676	0.1584362139917695	-0.4184100418410042	0.6601307189542485
6503.936767578125	-0.006543383699907807	-9.745247460899874	-1.810560130114316	-1.04561983375319	0.3417657333456133	0.3807761478994939	0.1769547325102881	-0.4079497907949791	0.6993464052287582
6523.468017578125	-0.2881109638243536	-9.619177190516167	-1.887880373204456	-0.3611130383934663	-0.383967719510013	-0.003839677195100129	0.1563786008230453	-0.4121338912133891	0.6819172113289761
6542.999267578125	-0.1972320941330613	-9.622199312296035	-2.008334811808658	-0.6996004253436504	0.3521463155978994	0.003521463155978994	0.1728395061728395	-0.403765690376569	0.6797385620915033
6562.530517578125	-0.1459318042609614	-9.542675375591084	-2.03414864237772	-0.699560975923362	-1.140389814352328	1.498030064120628	0.1666666666666667	-0.4079497907949791	0.6819172113289761
6582.061767578125	0.1028834931839736	-9.913670883622842	-2.27243248702708	-0.6920289544640067	-0.3938951969921292	1.128136519728192	0.1666666666666667	-0.4163179916317991	0.6840958605664489
6601.593017578125	-0.1269432604264389	-9.664023012340857	-2.009723108473833	-0.676955049190224	0.7259600052407112	0.7619765811844826	0.1748971193415638	-0.4184100418410042	0.6775599128540306
6621.124267578125	0.2266318525512543	-9.660047068106897	-1.915079469223267	-0.3611031760383941	-0.7571017519975698	0.3697874730460621	0.1790123456790124	-0.3933054393305439	0.6906318082788672
6640.655517578125	-0.1801754449301361	-9.93673641220553	-2.114800191221194	-1.023013907020052	2.208115552938652	-0.3552773350366513	0.1728395061728395	-0.4121338912133891	0.673202614379085
6660.186767578125	-0.1596733141928246	-9.906725358676399	-2.102993607136354	0.0678966790399905	2.613977198878663	0.7808567531208621	0.1666666666666667	-0.397489539748954	0.6884531590413944
6679.718017578125	-0.2306643794731709	-9.935124816003963	-2.054618440150485	-0.7071225844479335	-0.7674823342498559	0.7470421577895769	0.1358024691358025	-0.4079497907949791	0.6623093681917211
6699.249267578125	0.003118110268362493	-9.789199074173853	-2.145994429171666	-1.083319390470254	-1.898171223505152	0.735735268897024	0.1748971193415638	-0.4267782426778242	0.6971677559912854
6718.780517578125	0.06421933001833553	-9.739683159782611	-2.122705601052584	-1.090880998994826	-1.525263743402681	-0.01525263743402681	0.1646090534979424	-0.4246861924686192	0.6688453159041395
6738.311767578125	0.1855012904338751	-9.732699239440771	-2.191850656138407	-0.02266510086357052	0.3724543753323019	-1.505709418510828	0.1790123456790124	-0.4163179916317991	0.6819172113289761
6757.843017578125	0.233938092133409	-9.939524119992443	-2.575444905886369	0.0829705843137731	3.733832401111503	0.4146968145771528	0.1728395061728395	-0.4100418410041841	0.6819172113289761
6777.374267578125	-0.1175555862516638	-9.735356604964359	-2.0535999517673	-0.300748380812831	1.483514862008451	1.146910620318198	0.168724279835391	-0.4225941422594142	0.6819172113289761
6796.905517578125	-0.03697577617327461	-9.758183677933525	-2.154945608325076	-1.083329252825327	-1.525037191017595	0.3621081186558618	0.1666666666666667	-0.4225941422594142	0.6644880174291939
6816.436767578125	-0.0756288248823502	-9.583084508437041	-1.89405192781209	-0.6694230277308688	1.47245462260091	0.3920830367920469	0.1831275720164609	-0.4142259414225941	0.6753812636165578
6835.968017578125	-0.2686050925571021	-9.688792083993041	-1.739650907650476	-0.7297482358912155	-1.887564088867781	0.7358413402433978	0.1604938271604938	-0.4079497907949791	0.6753812636165578
6855.499267578125	0.01413859915268841	-9.697251195842274	-2.020074709154122	-1.068225760486328	-1.524584086247426	1.116829630835639	0.1584362139917695	-0.4079497907949791	0.6797385620915033
6875.030517578125	-0.05573394763540997	-9.613798803945039	-1.89538869381502	-0.6844969330046514	0.3525994203680694	0.7582429753357562	0.1481481481481482	-0.4142259414225941	0.6710239651416122
6894.561767578125	-0.04573497834969539	-9.624002885474592	-1.885697898097631	-0.7071127220928615	-1.140616366737413	1.120669308030739	0.1337448559670782	-0.401673640167364	0.6949891067538128
6914.093017578125	0.1364471311925496	-9.587610113068278	-1.922460478785933	-1.060693739026972	-0.7780894688872271	0.7469360864432033	0.1584362139917695	-0.405857740585774	0.673202614379085
6933.624267578125	0.1741049308367071	-9.862234189056565	-2.036825205599007	-1.045609971398118	-0.03136829914194354	0.7544032981406561	0.1625514403292181	-0.4142259414225941	0.6797385620915033
6953.155517578125	-0.00421541025262744	-9.51245011617184	-1.758492942739401	-0.692058541529223	0.7255069004705412	0.007255069004705413	0.1646090534979424	-0.4121338912133891	0.6775599128540306
6972.686767578125	0.00436697102393477	-9.664312998616625	-1.776101273149885	0.05282277376620787	1.494121996645822	1.147016691664571	0.1666666666666667	-0.4121338912133891	0.6775599128540306
6992.218017578125	-0.300136805825018	-9.811660380481598	-1.968331861829805	0.06035479522556313	2.240616614006021	0.7771231472721357	0.1728395061728395	-0.4079497907949791	0.6753812636165578
7011.749267578125	-0.2194589864478501	-9.824686523572892	-2.099489522103729	-0.6920486791741509	0.3523728679829845	0.3808822192458676	0.1604938271604938	-0.4100418410041841	0.6775599128540306
7031.280517578125	0.02372633354558915	-9.748578766653209	-2.083151270956801	0.01510349233899894	0.0004531047701699683	0.7547215121797772	0.1481481481481482	-0.4142259414225941	0.6797385620915033
7050.811767578125	-0.3207531123433811	-9.853089012115881	-2.112023597890844	-0.3459898213443231	-1.129782679714956	1.498136135467002	0.1604938271604938	-0.4100418410041841	0.6753812636165578
7070.343017578125	0.1260298541780268	-9.619236804419547	-2.075661137638793	-0.3384676622400399	-0.0101540298672012	0.7546154408334035	0.168724279835391	-0.4121338912133891	0.6775599128540306
7089.874267578125	0.3272197052524932	-9.702271898993114	-1.895982812038545	0.05280304905606366	2.240390061620936	0.3997623911822471	0.168724279835391	-0.3912133891213389	0.6601307189542485
7109.405517578125	-0.2504662994470426	-9.895114793189117	-2.133624039017563	-1.030545928479407	1.461620935578454	0.01461620935578454	0.1790123456790124	-0.399581589958159	0.6971677559912854
7128.936767578125	-0.04796191128277087	-9.846696178782139	-1.937258872496379	-0.7071225844479335	-0.7674823342498559	0.7470421577895769	0.1522633744855967	-0.4142259414225941	0.6470588235294118
7148.468017578125	-0.05746679245402361	-9.787083285806405	-2.055585397871426	-0.7222260767869325	-0.7679354390200259	-0.007679354390200259	0.1584362139917695	-0.4184100418410042	0.6710239651416122
7167.999267578125	-0.04683935116995468	-9.734440167500521	-1.820523735220059	-0.6920486791741509	0.3523728679829845	0.3808822192458676	0.1666666666666667	-0.4163179916317991	0.6819172113289761
7187.530517578125	-0.03666760260494974	-9.727366321101037	-2.102896608242718	-0.3459996836993952	-0.7566486472273998	1.124508985225839	0.1666666666666667	-0.4205020920502092	0.6644880174291939
7207.061767578125	0.2950827593044901	-9.88566346349039	-2.117594971844101	-0.3233937569662573	1.109701172365639	0.3884555022896942	0.1748971193415638	-0.4100418410041841	0.6840958605664489
7226.593017578125	-0.1266502429352447	-9.634721263221444	-2.109265191853051	0.4139358121596741	1.878089716155835	1.150856368859672	0.1748971193415638	-0.4142259414225941	0.6884531590413944
7246.124267578125	-0.1098775175772352	-9.97765074762251	-2.025233837809423	-0.7071324468030056	-0.3943483017622991	0.3734150075484148	0.1522633744855967	-0.4121338912133891	0.6884531590413944
7265.655517578125	-0.0254409910716459	-9.614806177871662	-1.935540173349754	-1.068255347551544	-0.4051819887847553	-0.004051819887847552	0.1502057613168724	-0.4079497907949791	0.6819172113289761
7285.186767578125	0.1354316740247906	-9.68915582984418	-1.978052969701456	-1.053141992857473	-0.7778629165021421	1.124296842533092	0.1625514403292181	-0.4100418410041841	0.6819172113289761
7304.718017578125	-0.05948558192783705	-9.988962233187747	-2.045497512933211	-1.053161717567617	-0.03159485152702852	0.3770425420507675	0.154320987654321	-0.4121338912133891	0.6884531590413944
7324.249267578125	-0.03726374163875851	-9.786980224481916	-2.004873163791999	-1.414284618316155	-0.04242853854948467	-0.0004242853854948467	0.168724279835391	-0.4100418410041841	0.6644880174291939
7343.780517578125	0.02161054517813904	-9.960157603398221	-2.033145310071665	-1.782939540524049	-0.7997568429321394	-0.007997568429321394	0.168724279835391	-0.4079497907949791	0.6666666666666667
7363.311767578125	0.003124172699214786	-9.788592831088625	-2.085357995787035	-0.676945186835152	0.3528259727531544	1.135603731425645	0.1810699588477366	-0.397489539748954	0.6862745098039217
7382.843017578125	0.05606333971171788	-9.545181180343366	-1.880738829660455	0.03017739761278156	1.12030830700301	0.3885615736360679	0.1748971193415638	-0.4121338912133891	0.6601307189542485
7402.374267578125	-0.2278079641365991	-9.649483282346777	-1.767580526586988	-0.3083001269823305	1.483288309623366	0.7695498642283092	0.1440329218106996	-0.4079497907949791	0.673202614379085
7421.905517578125	-0.07885201728548577	-9.905403748750599	-1.809190020741698	-0.6845067953597235	0.7257334528556262	0.384615825094594	0.1625514403292181	-0.403765690376569	0.6644880174291939
7441.436767578125	0.023412097546412	-9.780002366570926	-2.195836704423789	-0.300748380812831	1.483514862008451	1.146910620318198	0.1625514403292181	-0.4225941422594142	0.6819172113289761
7460.968017578125	-0.04687875697049458	-9.73838074755451	-2.214660552220158	-0.3309257784256125	0.3632065550054406	0.75834904668213	0.1460905349794239	-0.403765690376569	0.6753812636165578
7480.499267578125	-0.1793721728422074	-9.856409203412653	-2.161280848565722	-0.6845067953597235	0.7257334528556262	0.384615825094594	0.1769547325102881	-0.4246861924686192	0.6753812636165578
7500.030517578125	0.2372966788255791	-9.603665450775432	-2.316194144134355	-1.060693739026972	-0.7780894688872271	0.7469360864432033	0.1851851851851852	-0.4079497907949791	0.6775599128540306
7519.561767578125	0.1341171369349851	-9.820609538824725	-1.994739810622391	-0.6769649115452961	1.099094037728268	0.3883494309433204	0.1584362139917695	-0.4309623430962343	0.6797385620915033
7539.093017578125	0.03251079585056114	-9.880233546257021	-2.099747175414952	-0.676955049190224	0.7259600052407112	0.7619765811844826	0.1646090534979424	-0.3912133891213389	0.6579520697167757
7558.624267578125	0.2753101410797378	-9.842723265763603	-1.903524476018797	-0.3309356407806847	0.7363405874929974	0.3847218964409677	0.1646090534979424	-0.4184100418410042	0.6840958605664489
7578.155517578125	-0.05805990027240624	-9.846394067644667	-1.927243736728392	-0.3007582431679031	1.856648894496008	0.7732834700770356	0.1604938271604938	-0.405857740585774	0.6840958605664489
7597.686767578125	0.2970176851515134	-9.692170878788053	-1.956385841835362	0.03019712232292578	0.3740402420278968	1.135815874118392	0.139917695473251	-0.397489539748954	0.6971677559912854
7617.218017578125	-0.0142568165543081	-9.506489736238894	-2.192638772149205	0.007541883814427364	0.3733605848726418	0.003733605848726418	0.154320987654321	-0.397489539748954	0.6906318082788672
7636.749267578125	0.06499431076228694	-9.662185085387472	-2.452156280858721	0.4214776959741015	2.251450301028477	1.154589974708398	0.1337448559670782	-0.401673640167364	0.6797385620915033
7656.280517578125	-0.1382648500430953	-9.786080963905491	-2.116949322958332	-1.060713463737117	-0.0318214039121135	-0.000318214039121135	0.1460905349794239	-0.4163179916317991	0.673202614379085
7675.811767578125	0.08502357189311965	-9.679460992506222	-2.119486450270017	0.3762165307324652	0.3844208242801829	0.7585611893748774	0.1707818930041153	-0.401673640167364	0.6906318082788672
7695.343017578125	-0.1171221224457249	-9.692010224370467	-1.758499005170253	-0.6618515568512251	0.7264131100108812	1.51669809336426	0.1728395061728395	-0.405857740585774	0.6862745098039217
7714.874267578125	-0.05865199768564682	-9.905603808968724	-1.788796003354586	-0.3158518731518299	1.483061757238281	0.3921891081384206	0.1502057613168724	-0.405857740585774	0.673202614379085
7734.405517578125	-0.3302297021706564	-9.790646984742409	-1.947380100804282	-0.3535711545790389	-0.01060713463737117	-0.0001060713463737117	0.1563786008230453	-0.399581589958159	0.6819172113289761
7753.936767578125	0.03481451957443233	-9.649861173869903	-2.290225721578559	-1.0606838766719	-1.151223501374784	1.120563236684365	0.1728395061728395	-0.4225941422594142	0.6601307189542485
7773.468017578125	-0.01788720222968932	-9.869528303777015	-2.140119933675794	-0.6845067953597235	0.7257334528556262	0.384615825094594	0.1563786008230453	-0.3953974895397489	0.6753812636165578
7792.999267578125	-0.299743758224761	-9.772355620455901	-2.077473804463629	-1.399200850687301	0.7042926311957989	0.007042926311957989	0.168724279835391	-0.401673640167364	0.6797385620915033
7812.530517578125	-0.03746885388259442	-9.807491448865505	-2.036203806436647	-0.6920388168190788	-0.02076116450457237	0.7545093694870298	0.154320987654321	-0.3933054393305439	0.6797385620915033
7832.061767578125	-0.1290762256813038	-9.877319537827352	-2.131520375511817	-0.2931769099331873	0.7374733494184224	2.271525676890411	0.1584362139917695	-0.4142259414225941	0.6753812636165578
7851.593017578125	0.155122449433037	-9.740280309221562	-2.000614306118263	0.03772914378228104	1.120534859388095	0.7659223297259565	0.1604938271604938	-0.405857740585774	0.6644880174291939
7871.124267578125	-0.06881869422494151	-9.912172452797185	-2.465993779279079	0.07540897578920154	4.106739881213975	-0.336291091753898	0.1584362139917695	-0.4163179916317991	0.673202614379085
7890.655517578125	-0.2992527013257253	-9.723249930552329	-2.216427750813601	-0.3384676622400399	-0.0101540298672012	0.7546154408334035	0.1646090534979424	-0.4184100418410042	0.6775599128540306
7910.186767578125	-0.03655645803932437	-9.716251864538501	-2.001329672958834	-1.459516196492575	-3.028860112760449	0.7244283800044711	0.1584362139917695	-0.405857740585774	0.6884531590413944
7929.718017578125	0.2467409356883089	-9.669340774603461	-1.794130942504603	-0.7071225844479335	-0.7674823342498559	0.7470421577895769	0.1522633744855967	-0.4163179916317991	0.6884531590413944
7949.249267578125	0.1150245213708316	-9.709669075038054	-2.04998977419476	-0.3158715978619742	2.229329822213395	-0.3550651923439038	0.1563786008230453	-0.4079497907949791	0.6775599128540306
7968.780517578125	-0.3198255604229803	-9.760333820075806	-1.925558380951454	-1.007930139391197	2.954836722683936	-0.3478101233391984	0.154320987654321	-0.4163179916317991	0.6971677559912854
7988.311767578125	-0.3000377861210973	-9.801758410089521	-1.988037793315182	-0.3535514298688947	-0.7568751996124847	0.7471482291359507	0.168724279835391	-0.403765690376569	0.6840958605664489
8007.843017578125	-0.01687174506193031	-9.767982587001116	-2.084527442760271	-1.075757781945683	-2.271078703607624	1.486723175228075	0.168724279835391	-0.3953974895397489	0.6884531590413944
8027.374267578125	0.06557327290868088	-9.604288870748077	-1.71188194313155	-0.6995905629885782	-0.02098771688965735	0.3771486133971412	0.1604938271604938	-0.4184100418410042	0.6906318082788672
8046.905517578125	0.1231027104815115	-9.911951174071076	-2.060023097255304	-0.6920486791741509	0.3523728679829845	0.3808822192458676	0.1625514403292181	-0.4100418410041841	0.6840958605664489
8066.436767578125	-0.04957855951004889	-10.00836100150994	-1.945358280115042	-0.3460194084095394	-0.01038058225228618	0.3772546847435149	0.154320987654321	-0.4100418410041841	0.6797385620915033
8085.968017578125	0.08290071068967519	-9.891747112850666	-2.140222995000283	0.05281291141113576	1.867256029133379	0.7733895414234093	0.1584362139917695	-0.4184100418410042	0.6753812636165578
8105.499267578125	-0.2279322439690711	-9.661911265593977	-2.000526400870905	0.0226355137983542	0.7469477221303685	0.3848279677873415	0.1728395061728395	-0.4205020920502092	0.6601307189542485
8125.030517578125	0.1038009410529539	-9.821926096724814	-2.187027992395408	-0.714674330617433	-0.767708886634941	0.3696814016996884	0.1646090534979424	-0.4184100418410042	0.6862745098039217
8144.561767578125	-0.2378261311200126	-9.641198970587119	-1.969286694689041	-0.300748380812831	1.483514862008451	1.146910620318198	0.1502057613168724	-0.4079497907949791	0.6666666666666667
8164.093017578125	0.03281997982402806	-9.849315148910328	-2.037592103101822	-1.075777506655827	-1.524810638632511	0.7394688747457504	0.1378600823045268	-0.401673640167364	0.6688453159041395
8183.624267578125	0.1653325933934398	-9.729366923282294	-1.898956434371595	-0.6995708382784341	-0.7672557818647709	1.124402913879466	0.1707818930041153	-0.399581589958159	0.6753812636165578
8203.155517578125	0.05282701204173568	-9.868813947341586	-1.927255861590097	-0.692058541529223	0.7255069004705412	0.007255069004705413	0.1563786008230453	-0.401673640167364	0.6906318082788672
8222.686767578125	-0.05624319182700255	-9.664723223104298	-1.93834404761894	-0.6920684038842951	1.098640932958098	-0.3663720812364568	0.1563786008230453	-0.4184100418410042	0.701525054466231
8242.218017578125	-0.09686349934764708	-9.68634993476471	-2.162053808499389	-0.6995905629885782	-0.02098771688965735	0.3771486133971412	0.1707818930041153	-0.401673640167364	0.69281045751634
8261.749267578125	-0.01706069082349343	-9.786877163157428	-1.954160929712571	-0.3158420107967578	1.109927724750724	0.7658162583795828	0.1604938271604938	-0.4079497907949791	0.6840958605664489
8281.280517578125	0.3485271288880176	-9.591731555642696	-1.910444740836689	-0.361093313683322	-1.130235784485127	0.7434146232872243	0.1625514403292181	-0.4079497907949791	0.6862745098039217
8300.811767578125	0.1438210679192215	-9.860317450502098	-1.905719075987327	-1.421816639775511	-0.7889231559096833	0.3694692590069409	0.1584362139917695	-0.405857740585774	0.6819172113289761
8320.343017578125	0.1976423186207331	-9.528697430855985	-1.969407943306087	-0.6618712815613693	1.472681174985995	0.7694437928819354	0.1790123456790124	-0.4330543933054393	0.6601307189542485
8339.874267578125	-0.03493374738119405	-9.553980798725469	-1.93259383195554	0.3988520445308194	1.131368546410551	1.143389157162219	0.1707818930041153	-0.4121338912133891	0.6644880174291939
8359.405517578125	-0.2396691100991095	-9.825496868496813	-2.220944261798559	-0.3233937569662573	1.109701172365639	0.3884555022896942	0.154320987654321	-0.403765690376569	0.6797385620915033
8378.936767578125	-0.1791539253315248	-9.8345844523444	-1.99857126692104	-1.105964766623681	-2.271984913147964	-0.02271984913147964	0.1707818930041153	-0.4100418410041841	0.6906318082788672
8398.468017578125	0.1143334042536703	-9.77878078675419	-1.891836109335577	-0.3309356407806847	0.7363405874929974	0.3847218964409677	0.1707818930041153	-0.4225941422594142	0.6688453159041395
8417.999267578125	-0.08633103614693073	-9.643204624794086	-1.866861925439558	0.03773900613735315	0.7474008269005386	1.139549479967119	0.1790123456790124	-0.3891213389121339	0.673202614379085
8437.530517578125	0.1231997093751482	-9.902251284707408	-2.099941173202225	-0.3460194084095394	-0.01038058225228618	0.3772546847435149	0.168724279835391	-0.4184100418410042	0.6971677559912854
8457.061767578125	-0.1692448821034526	-9.853781139638183	-1.878219889641328	0.06036465758063524	1.867482581518464	1.150750297513298	0.1563786008230453	-0.403765690376569	0.6666666666666667
8476.593017578125	0.1855225089418582	-9.73057738864247	-1.9796231392922	-0.3158518731518299	1.483061757238281	0.3921891081384206	0.1502057613168724	-0.397489539748954	0.6601307189542485
8496.124267578125	0.03605630749401027	-9.525682381912109	-1.991075071172181	-0.3384676622400399	-0.0101540298672012	0.7546154408334035	0.1460905349794239	-0.4079497907949791	0.6644880174291939
8515.655517578125	0.01545818826820409	-9.565292284290704	-1.952857507079328	0.03019712232292578	0.3740402420278968	1.135815874118392	0.1707818930041153	-0.4100418410041841	0.6753812636165578
8535.186767578125	0.1857326732114043	-9.709560961687854	-1.897762135493693	-0.2706005702652657	3.723225266474131	0.4145907432307791	0.1625514403292181	-0.401673640167364	0.6644880174291939
8554.718017578125	-0.3305328237132711	-9.820959139003872	-1.948898739732781	-0.6467776515774426	1.846268312243722	1.15053815482055	0.1604938271604938	-0.4142259414225941	0.6906318082788672
8574.249267578125	-0.004443761814730461	-9.535285272382142	-2.0222632466918	-1.09085141192961	-2.644665840865351	1.10562881328946	0.1769547325102881	-0.4100418410041841	0.6862745098039217
8593.780517578125	-0.05927642806343296	-9.968046846747338	-1.973742581365476	-0.7071127220928615	-1.140616366737413	1.120669308030739	0.1522633744855967	-0.405857740585774	0.6753812636165578
8613.311767578125	-0.09664727264724865	-9.664727264724867	-2.019556371316251	-0.6995807006335061	-0.3941217493772142	0.7507757636383033	0.1584362139917695	-0.405857740585774	0.6840958605664489
8632.843017578125	-0.1060036242626202	-9.590261416161013	-1.662391288868859	-0.2856843378941205	2.976504096728848	0.4071235315333263	0.1728395061728395	-0.4100418410041841	0.673202614379085
8652.374267578125	-0.2085425692931553	-9.743145818204413	-2.004394231754667	-1.068245485196472	-0.7783160212723121	0.3695753303533146	0.139917695473251	-0.4079497907949791	0.6862745098039217
8671.905517578125	0.06575615623939171	-9.586000537676993	-1.90288488956388	-1.053141992857473	-0.7778629165021421	1.124296842533092	0.1625514403292181	-0.4121338912133891	0.6753812636165578
8691.436767578125	0.1748000895744367	-9.792718315283611	-2.154554581535103	-1.444452153573865	-1.535870878040052	-0.01535870878040052	0.168724279835391	-0.4121338912133891	0.6644880174291939
8710.968017578125	-0.1486609085496351	-9.815585804458458	-2.057922464964985	-0.6317234710138041	3.712391579451676	0.03712391579451676	0.1831275720164609	-0.4163179916317991	0.6906318082788672
8730.499267578125	-0.06785880933999518	-9.816183964302551	-1.956134250954992	-1.42936838594501	-0.7891497082947683	-0.007891497082947682	0.1419753086419753	-0.3933054393305439	0.6840958605664489
8750.030517578125	-0.1267502730443076	-9.644724274127727	-2.099665332598446	-0.3535711545790389	-0.01060713463737117	-0.0001060713463737117	0.1563786008230453	-0.397489539748954	0.6819172113289761
8769.561767578125	0.1148325443938424	-9.72886677273698	-1.949941477839375	1.972471014421648e-05	-0.7462680649751136	0.7472543004823244	0.1419753086419753	-0.4163179916317991	0.69281045751634
8789.093017578125	0.3665093092010595	-9.813715544540527	-1.85065704777138	-0.3309356407806847	0.7363405874929974	0.3847218964409677	0.1502057613168724	-0.4079497907949791	0.6884531590413944
8808.624267578125	-0.05843273976982224	-9.883678017386265	-1.615980349479133	-0.3083099893374026	1.856422342110923	0.395922713987147	0.1604938271604938	-0.4163179916317991	0.6862745098039217
8828.155517578125	0.2526538265795783	-10.08815269557753	-2.249355843987829	-0.3309257784256125	0.3632065550054406	0.75834904668213	0.1481481481481482	-0.4246861924686192	0.6753812636165578
8847.686767578125	0.1030825429969572	-9.89376590232448	-2.301738277767063	0.767516829093785	1.51556281830565	1.524589590447208	0.1522633744855967	-0.4309623430962343	0.6557734204793029
8867.218017578125	-0.1573493823661124	-9.674332176005182	-2.091350708684526	-0.676945186835152	0.3528259727531544	1.135603731425645	0.1460905349794239	-0.3891213389121339	0.6906318082788672
8886.749267578125	0.01567946699431277	-9.543164411679836	-1.759829708742332	-0.3535415675138225	-1.130009232100041	1.120775379377113	0.1584362139917695	-0.4163179916317991	0.6688453159041395
8906.280517578125	-0.03442450318960148	-9.503056379566212	-1.889638478151621	-0.6995708382784341	-0.7672557818647709	1.124402913879466	0.1728395061728395	-0.4163179916317991	0.6753812636165578
8925.811767578125	0.04455280433349832	-9.686133708064311	-1.857598531097254	-1.022994182309908	1.461847487963539	0.3919769654456732	0.1666666666666667	-0.4205020920502092	0.6644880174291939
8945.343017578125	-0.1182467033688251	-9.804468316680495	-1.895446286908117	0.02264537615342631	0.3738136896428118	0.7584551180285036	0.1481481481481482	-0.4121338912133891	0.6819172113289761
8964.874267578125	-0.118037549504421	-9.783552930240086	-1.823691355340382	-0.3309257784256125	0.3632065550054406	0.75834904668213	0.1604938271604938	-0.4246861924686192	0.6775599128540306
8984.405517578125	-0.1077526355635067	-9.765162546249657	-1.984285148617613	-0.6995807006335061	-0.3941217493772142	0.7507757636383033	0.1604938271604938	-0.4079497907949791	0.6840958605664489
9003.936767578125	0.2157992990233495	-9.733201410796369	-2.181471774519282	-1.43692013211451	-0.7893762606798532	-0.3852522531728363	0.1666666666666667	-0.4079497907949791	0.6753812636165578
9023.468017578125	-0.03736781336838953	-9.797387397445018	-2.03569759346048	0.03019712232292578	0.3740402420278968	1.135815874118392	0.154320987654321	-0.397489539748954	0.6797385620915033
9042.999267578125	0.1543070524834036	-9.821820004184898	-2.075406515542997	-0.3309159160705404	-0.009927477482116214	1.131976196923292	0.1748971193415638	-0.3891213389121339	0.6797385620915033
9062.530517578125	0.1650042117222739	-9.762205090398879	-2.153126879069388	-0.3309257784256125	0.3632065550054406	0.75834904668213	0.1522633744855967	-0.4267782426778242	0.6884531590413944
9082.061767578125	-0.1191631408326634	-9.896112063064319	-1.970744709309017	-0.6845166577147956	1.098867485343183	0.01098867485343183	0.1563786008230453	-0.3933054393305439	0.69281045751634
9101.593017578125	-0.1357358059725472	-9.533176556850686	-2.073975781861856	-0.6844969330046514	0.3525994203680694	0.7582429753357562	0.1666666666666667	-0.397489539748954	0.6688453159041395
9121.124267578125	0.06413243517611933	-9.748372644004231	-1.981726802797946	-0.7146546059072888	-1.513976951610055	1.116935702182013	0.1728395061728395	-0.4121338912133891	0.6840958605664489
9140.655517578125	0.173895776972303	-9.883149575496974	-2.108580137166742	-1.075797231365971	-0.7785425736573971	-0.007785425736573971	0.1769547325102881	-0.4205020920502092	0.6840958605664489
9160.186767578125	0.1158237518381922	-9.629746028301996	-2.136894720462374	-1.060733188447261	0.714446661063	-0.7475725145214456	0.1604938271604938	-0.4163179916317991	0.6797385620915033
9179.718017578125	-0.3095355944563556	-9.74143823351435	-2.035621813074827	-0.6769747739003683	1.472228070215825	0.01472228070215825	0.1646090534979424	-0.4246861924686192	0.6710239651416122
9199.249267578125	-0.167140208192565	-9.643313748549426	-2.039392645064953	-0.3158222860866136	0.3636596597756105	1.513070558861907	0.154320987654321	-0.3933054393305439	0.6688453159041395
9218.780517578125	-0.016057358517439	-9.686543932551984	-2.019841305566309	-0.3610735889731778	-1.87650384946024	1.490668923769549	0.1625514403292181	-0.4288702928870293	0.6862745098039217
9238.311767578125	0.1233128747510577	-9.890934747116459	-1.978162093456797	-1.053171579922689	0.3415391809605283	0.003415391809605283	0.1810699588477366	-0.397489539748954	0.6775599128540306
9257.843017578125	-0.1174484833066066	-9.724646310458642	-1.992457305406503	-0.3007779678780473	2.602916959471121	0.02602916959471122	0.1563786008230453	-0.4225941422594142	0.6710239651416122
9277.374267578125	-0.0668504250082305	-9.715345531126083	-1.971284265654871	-0.676945186835152	0.3528259727531544	1.135603731425645	0.1625514403292181	-0.4079497907949791	0.6710239651416122
9296.905517578125	0.30540000620995	-9.864039783045406	-1.954794453736636	-0.6920388168190788	-0.02076116450457237	0.7545093694870298	0.1769547325102881	-0.4205020920502092	0.6775599128540306
9316.436767578125	0.002322921421570113	-9.86871795885309	-2.018665193980964	-0.3007779678780473	2.602916959471121	0.02602916959471122	0.1460905349794239	-0.3912133891213389	0.6775599128540306
9335.968017578125	-0.2393649781513529	-9.795083673721146	-2.209319550639288	-1.075797231365971	-0.7785425736573971	-0.007785425736573971	0.1584362139917695	-0.4079497907949791	0.673202614379085
9355.499267578125	-0.08571367860513894	-9.581468870614906	-1.75265785304407	-0.3535317051587504	-1.503143264587598	1.494402529618275	0.1604938271604938	-0.4225941422594142	0.6862745098039217
9375.030517578125	0.2860204355854547	-9.781794825292922	-1.849865900545155	-0.323364169901041	-0.009700925097031229	1.509336953013181	0.1625514403292181	-0.4205020920502092	0.6753812636165578
9394.561767578125	0.2085557045600019	-9.447459847030119	-1.904630869649341	-0.3233838946111852	0.7365671398780824	0.7620826525308564	0.1625514403292181	-0.4079497907949791	0.6840958605664489
9414.093017578125	0.0136435006330845	-9.746761047802663	-1.921545051727237	-0.2856744755390484	2.603370064241291	0.7807506817744885	0.1646090534979424	-0.4267782426778242	0.6644880174291939
9433.624267578125	0.06311899881864443	-9.849716279751721	-2.017107149251925	-0.6844969330046514	0.3525994203680694	0.7582429753357562	0.1584362139917695	-0.4184100418410042	0.6753812636165578
9453.155517578125	-0.1885365474805897	-9.762745657149875	-1.904164062473714	-0.3309356407806847	0.7363405874929974	0.3847218964409677	0.1625514403292181	-0.3891213389121339	0.6644880174291939
9472.686767578125	-0.3005439990972637	-9.852379707706163	-2.000674930426786	-1.015432573785336	1.088940007861067	1.142964871776724	0.1646090534979424	-0.401673640167364	0.6797385620915033
9492.218017578125	-0.09716662089026171	-9.716662089026173	-2.163572447427888	-1.444452153573865	-1.535870878040052	-0.01535870878040052	0.1728395061728395	-0.3891213389121339	0.69281045751634
9511.749267578125	0.06444363995987036	-9.717252165629128	-1.899359586023272	-1.068265209906616	-0.03204795629719848	-0.3776789701290098	0.1707818930041153	-0.4205020920502092	0.6797385620915033
9531.280517578125	-0.05623106696529797	-9.663510736933841	-1.817071180849678	-1.04561983375319	0.3417657333456133	0.3807761478994939	0.1522633744855967	-0.4246861924686192	0.6688453159041395
9550.811767578125	0.08394850082197976	-9.786968099620211	-1.761236192700063	-0.6995807006335061	-0.3941217493772142	0.7507757636383033	0.1604938271604938	-0.4163179916317991	0.6906318082788672
9570.343017578125	0.0824076329803554	-9.941054883782646	-2.021481193111854	-0.3007681055229752	2.229782926983564	0.3996563198358734	0.1646090534979424	-0.4184100418410042	0.6666666666666667
9589.874267578125	-0.1474453911637504	-9.694034065869991	-2.021529692558673	-0.3158715978619742	2.229329822213395	-0.3550651923439038	0.1481481481481482	-0.4288702928870293	0.6862745098039217
9609.405517578125	-0.1004696352996191	-10.04696352996192	-1.866989236487456	-1.068245485196472	-0.7783160212723121	0.3695753303533146	0.1604938271604938	-0.4288702928870293	0.673202614379085
9628.936767578125	0.2260054013631841	-9.722692186913919	-2.120238191695701	-0.6995708382784341	-0.7672557818647709	1.124402913879466	0.1584362139917695	-0.4205020920502092	0.6840958605664489
9648.468017578125	0.06352720249603212	-9.808895912012952	-1.974658008424172	-0.3158321484416857	0.7367936922631674	1.139443408620745	0.1707818930041153	-0.4205020920502092	0.6840958605664489
9667.999267578125	-0.0372778873107472	-9.788394791680783	-2.146358175022804	-0.3158518731518299	1.483061757238281	0.3921891081384206	0.154320987654321	-0.4163179916317991	0.6753812636165578
9687.530517578125	-0.1079638102381948	-9.786280013718475	-2.076252224646892	0.03018725996785367	0.7471742745154536	0.76218872387723	0.1707818930041153	-0.399581589958159	0.6579520697167757
9707.061767578125	-0.1879596061444798	-9.70505152353889	-2.194202879309096	-0.300748380812831	1.483514862008451	1.146910620318198	0.1563786008230453	-0.401673640167364	0.6819172113289761
9726.593017578125	0.1445051122003885	-9.791913022385398	-2.134615246461913	-0.3158420107967578	1.109927724750724	0.7658162583795828	0.1604938271604938	-0.4142259414225941	0.6884531590413944
9746.124267578125	-0.3979066385850829	-9.487633555477981	-2.084421350220356	-1.045639558463334	1.088033798320727	-0.3664781525828305	0.1707818930041153	-0.403765690376569	0.673202614379085
9765.655517578125	-0.2186334854467963	-9.742136423467507	-1.923636590371278	-0.7448320035200703	-2.634285258613065	0.7283741285459449	0.1502057613168724	-0.4288702928870293	0.6753812636165578
9785.186767578125	0.113602881335969	-9.851833078524315	-2.127819261476493	-0.6844772082945072	-0.3936686446070442	1.505497275818081	0.1563786008230453	-0.397489539748954	0.6623093681917211
9804.718017578125	0.1774695799597295	-9.525769276754326	-1.716938010462361	0.4290393044986731	1.878542820926005	1.905577881039449	0.168724279835391	-0.401673640167364	0.6819172113289761
9824.249267578125	0.006008879379764017	-9.500122163033701	-1.515350059761928	1.136171751301679	2.272891122688304	1.532162873491034	0.1748971193415638	-0.4288702928870293	0.6753812636165578
9843.780517578125	0.4098546793898096	-9.519582566069561	-1.643597753226752	2.234624221176148	3.052113353500956	2.672030567497274	0.1502057613168724	-0.401673640167364	0.673202614379085
9863.311767578125	0.04419512091321306	-9.721902050092837	-1.394744060386419	4.416396081520872	5.72950680781876	3.07616299260649	0.1646090534979424	-0.4393305439330544	0.6644880174291939
9882.843017578125	0.8928869407873589	-9.70120491116311	-0.6579495579684638	12.77479901362666	16.80115441816999	3.56423795927604	0.154320987654321	-0.4079497907949791	0.6601307189542485
9902.374267578125	0.4859008015958258	-9.995778426276008	-0.6262430446109735	16.10775735641641	25.11009839233429	2.892610417885607	0.154320987654321	-0.4142259414225941	0.6514161220043574
9921.905517578125	-0.5000242446713835	-9.598384063097944	-0.2323941930763584	23.07442242280875	40.24447147865442	0.4024447147865441	0.1522633744855967	-0.4309623430962343	0.6666666666666667
9941.436767578125	-1.44292320877473	-9.948886534038667	-0.8048028517189736	23.07357434988506	20.84146096183984	2.095207062448587	0.1481481481481482	-0.4142259414225941	0.6557734204793029
9960.968017578125	-1.159705637053319	-9.909957644725811	-0.3858828173947025	23.7053569950293	14.89026518746282	4.299846048101044	0.1604938271604938	-0.4246861924686192	0.6318082788671024
9980.499267578125	-0.8410521465951152	-10.36784092213777	-1.092459133229405	22.07239719551504	2.527843557656496	5.685655794067132	0.1707818930041153	-0.4393305439330544	0.6122004357298475
10000.06103515625	-0.3510733498459804	-9.854809732072789	-1.334635058485938	19.53707390530142	-0.9064250962737932	6.028671598093866	0.1707818930041153	-0.4644351464435146	0.6296296296296297
10019.56176757812	-0.1471786442062495	-9.667359370119902	-1.373728643836947	18.89785786224855	0.5669357358674566	7.930197659245468	0.1604938271604938	-0.4748953974895397	0.6187363834422659
10039.09301757812	0.1680677601129658	-9.455850251329693	-0.8044451682986884	21.02680694882706	1.750207193539439	7.187313392690112	0.1563786008230453	-0.4811715481171548	0.5577342047930284
10058.62426757812	0.2177119959572478	-9.541931717406536	-0.2223942133855018	26.44346307530877	9.002259116139861	5.750399949651965	0.1604938271604938	-0.4874476987447698	0.5599128540305012
10078.15551757812	-0.09403436494991053	-9.403436494991055	-0.1276778249647083	28.23395436200232	9.802242511457084	6.135758274171175	0.1666666666666667	-0.5292887029288702	0.5468409586056645
10097.68676757812	-0.06182365942653789	-10.22276998305783	-0.1784234024138236	30.17430704144479	3.517169509750806	3.431398110191848	0.1851851851851852	-0.5313807531380753	0.5315904139433552
10117.21801757812	-0.01992114778063349	-10.07292285887143	-0.2614211119971354	34.07113162562865	4.007208575634531	3.436298500850685	0.1769547325102881	-0.5523012552301255	0.5294117647058824
10136.74926757812	-0.3183796706647085	-10.62584585434964	-0.5950821500301895	34.49259945924768	6.631792909150565	4.217261325317921	0.1975308641975309	-0.5753138075313807	0.5076252723311547
10156.28051757812	-0.3008188292959009	-10.8899637376709	-0.7091225367926655	34.90657472082763	7.017346495356173	6.862626295142242	0.2016460905349794	-0.5836820083682008	0.5032679738562092
10175.81176757812	0.07394447951055493	-10.78737023076269	-0.8113563394703019	32.74743837428127	5.086900763168737	6.843321837820367	0.1934156378600823	-0.6297071129707112	0.477124183006536
10195.34301757812	0.1127248392675286	-9.939637285368352	-0.8089859290070555	31.55101045130474	-3.157947298401156	8.27030731946882	0.1954732510288066	-0.6234309623430961	0.485838779956427
10214.87426757812	0.2058922766055613	-9.713802642474173	-0.2614089871354308	31.20495159347492	-1.675791750703215	7.153053403247686	0.1975308641975309	-0.6569037656903766	0.4596949891067539
10234.40551757812	-0.09291079443195231	-9.291079443195231	-0.0008366154576163395	31.12195142209593	-4.290222054352048	5.617475137947046	0.1954732510288066	-0.6610878661087866	0.4727668845315904
10253.93676757812	-0.2209220530935368	-9.970993188141552	-0.5714659506450837	30.06115905951824	-1.336971198363707	2.628139721978627	0.2139917695473251	-0.6589958158995816	0.4684095860566449
10273.46801757812	-0.1421730971325399	-10.17690567284995	-0.803196307543116	30.36947891121071	-3.566527572962186	2.605844158232642	0.2181069958847737	-0.6966527196652719	0.4466230936819173
10292.99926757812	0.009015845082501155	-10.209526602861	-0.7326083939144471	28.24053968698727	-5.122933063121725	3.722355575029161	0.2366255144032922	-0.7112970711297071	0.4640522875816994
10312.53051757812	0.1403129412660282	-10.21113011582143	-0.6303654975905324	26.74329434671241	-9.272328035270268	3.680861625307675	0.1934156378600823	-0.7259414225941422	0.4618736383442266
10332.06176757812	0.08014634627245025	-10.16718355457316	-0.3964466031548224	25.67497982503043	-7.438705829129684	1.435046903972854	0.2139917695473251	-0.7217573221757322	0.4596949891067539
10351.59301757812	0.1829540590707702	-9.987422375751265	-0.3965314771867545	24.65945849004945	-2.991559528880606	-0.7846325764208816	0.2181069958847737	-0.7573221757322175	0.4596949891067539
10371.12426757812	0.01071736734171128	-10.03937437693999	0.1244010810890442	24.67452253296816	-1.498570294160209	-1.524419665205753	0.2304526748971193	-0.7594142259414225	0.4596949891067539
10390.65551757812	-0.147209966765653	-9.670491626060254	0.3331851372111491	24.41899586797668	3.344510174546763	-1.475988860518683	0.2181069958847737	-0.7489539748953974	0.4596949891067539
10410.18676757812	-0.1167907095591329	-9.658868935711267	0.5461916764218758	24.8555671939347	5.969547612832967	0.05969547612832967	0.2427983539094651	-0.7615062761506276	0.4466230936819173
10429.71801757812	-0.620699962001694	-9.544743674916859	0.8498891499674737	26.73662026053182	9.011053831696552	2.73161997227923	0.2510288065843622	-0.7803347280334727	0.485838779956427
10449.24926757812	-0.8863748796468546	-9.849609176806666	1.145120438827845	28.24904799198625	10.17582964871481	6.51685263610979	0.2448559670781893	-0.7803347280334727	0.477124183006536
10468.78051757812	-0.7750635971730522	-9.829592040537536	1.349254610486242	30.34038628304334	5.760957857148017	9.491571842722424	0.2407407407407408	-0.7887029288702928	0.4814814814814815
10488.31176757812	-1.09172658950142	-10.18275996024298	1.76277301892112	33.1539407885323	2.487155537088805	12.1003432534841	0.2345679012345679	-0.7970711297071129	0.4880174291938998
10507.84301757812	-0.9804375359407426	-10.16496571528636	1.744573601502537	34.5154913942779	-2.322744213395544	14.31639519937548	0.2407407407407408	-0.811715481171548	0.5010893246187365
10527.37426757812	-0.6672462956804543	-10.15897300238887	1.960126361671227	35.60639211798288	-1.543748534967976	15.07890213729183	0.2407407407407408	-0.8305439330543932	0.4880174291938998
10546.90551757812	-0.6848091578595461	-9.895057200096019	2.053954603972159	37.49491803190891	4.483056496181147	15.13917018760332	0.2181069958847737	-0.8200836820083681	0.5010893246187365
10566.43676757812	-0.6008434801501515	-9.579297509964645	2.484723659397237	40.09058625499301	10.53107579660501	15.19965038060756	0.2386831275720165	-0.8451882845188283	0.5098039215686275
10585.96801757812	-0.9117481735739832	-9.356635539216498	2.91699013524283	43.05495871206038	15.47075323897375	17.13583960786144	0.2119341563786008	-0.8179916317991631	0.5315904139433552
10605.49926757812	-1.488482376629709	-9.454298269031506	3.108359858741724	43.97994785420303	7.662682017715643	18.18983436734697	0.2222222222222222	-0.8410041841004183	0.5250544662309369
10625.03051757812	-1.59167505378715	-9.67255588376546	3.298435253253654	46.22874859595391	-5.702689780927352	20.32033159275677	0.2119341563786008	-0.8493723849372384	0.5490196078431373
10644.56176757812	-1.513201938429932	-9.906052428851792	3.33805020765796	48.51523903206678	-16.45499059023203	21.72224254692787	0.220164609053498	-0.8577405857740585	0.5620915032679739
10664.09301757812	-1.311517999241004	-9.939678711979175	3.409092803600551	51.63705421511778	-19.71954508996438	22.06695549249659	0.2263374485596708	-0.8744769874476986	0.5860566448801744
10683.62426757812	-0.7243725816016076	-9.810995533898129	3.310287305569886	55.61686910832555	-16.24194168794427	23.2338069982149	0.205761316872428	-0.8870292887029287	0.5860566448801744
10703.15551757812	-1.248168628049972	-9.665347653482083	3.696170122964589	58.28796603190901	-6.833450571281535	23.70525039994756	0.1995884773662552	-0.8870292887029287	0.5838779956427016
10722.68676757812	-1.407747974564587	-9.461666143327326	3.543142243391019	60.07846718095763	-6.406601208451868	24.46423587470793	0.1893004115226338	-0.8849372384937237	0.6252723311546842
10742.21801757812	-1.340262004722008	-9.783776229776477	3.79033786139325	61.05621006038098	-10.10861220565126	24.04985727416991	0.1954732510288066	-0.8828451882845187	0.6448801742919391
10761.74926757812	-1.429031148476702	-9.569781514336828	3.800149905727685	63.07207033916337	-16.01828565101913	24.7454775208483	0.1790123456790124	-0.8828451882845187	0.6296296296296297
10781.28051757812	-1.359145466421757	-9.651920379549397	3.806842829388616	64.85502960439756	-15.9647968730621	25.50072938975995	0.1790123456790124	-0.8912133891213389	0.6535947712418301
10800.81176757812	-1.165651871314276	-9.4944800607205	3.776245740877096	66.36739816172157	-12.5612168611185	27.04419915214353	0.1769547325102881	-0.905857740585774	0.6753812636165578
10820.34301757812	-1.105759096114193	-9.565808601318292	3.833884302205267	68.59447063672822	-9.509330060002631	29.33886896355092	0.1790123456790124	-0.8912133891213389	0.7080610021786493
10839.87426757812	-1.133294657045306	-9.28906166412656	4.180779626788876	69.33182979291936	-9.860343613675106	31.22215128084438	0.168724279835391	-0.899581589958159	0.7124183006535948
10859.40551757812	-1.166390477473114	-9.568340676604265	4.469515020991016	70.73858238977616	-10.56440969248582	31.59246911062231	0.1810699588477366	-0.8849372384937237	0.7603485838779958
10878.93676757812	-1.385292730687695	-9.236343775840167	4.9081682677395	71.78416277410906	-9.413639295881206	29.71718436175817	0.1666666666666667	-0.8912133891213389	0.7886710239651417
10898.46801757812	-1.495285434451123	-9.124503041071931	4.761145225925126	72.87501418603867	-6.768973455015855	28.61155554846871	0.1584362139917695	-0.8765690376569036	0.7952069716775599
10917.99926757812	-1.817232845672406	-8.996011839967874	4.845158392676196	71.09203519609434	-6.076194167997767	27.10904937907474	0.1502057613168724	-0.8577405857740585	0.823529411764706
10937.53051757812	-1.613005716740941	-8.775319148841582	5.100659540946068	71.00902516236027	-8.317490439159043	25.19984396353294	0.1316872427983539	-0.8472803347280334	0.8431372549019609
10957.06176757812	-1.783364065310932	-8.639436834123437	5.216861184307387	70.98637978620685	-8.691304128801855	24.44138884550444	0.1358024691358025	-0.8347280334728032	0.860566448801743
10976.59301757812	-1.931707706645963	-8.32228581611146	5.322144389703726	69.12046966136903	-13.2248933728455	24.01869446249796	0.1440329218106996	-0.8263598326359832	0.8954248366013072
10996.12426757812	-1.567030261967438	-8.218177711895324	5.351198589563338	70.1585476113078	-13.94001969106375	23.63418470874974	0.1255144032921811	-0.7928870292887029	0.9084967320261439
11015.65551757812	-1.483511183330829	-7.947077929042503	5.355487759391336	69.51171078559992	-9.854947183894689	22.54295996212332	0.1193415637860082	-0.7949790794979079	0.9368191721132898
11035.18676757812	-1.632056905694271	-7.6501350138715	5.459758538835342	67.44304745776145	-6.185663800147753	21.44757732426267	0.1213991769547325	-0.7803347280334727	0.9498910675381265
11054.71801757812	-2.01438713860953	-7.499319921559017	5.635193162838985	66.0362751361945	-4.735329656361926	20.33000519400242	0.1131687242798354	-0.7635983263598326	0.9738562091503269
11074.24926757812	-2.023640428900412	-7.414547940546268	6.013076602724087	64.17788717046096	-8.149290250557812	19.16379011636235	0.1069958847736626	-0.7426778242677824	0.9738562091503269
11093.78051757812	-1.932456416856221	-7.387055827036263	5.914352947509928	63.07944456294157	-9.301646513858021	18.39754957259727	0.1049382716049383	-0.7322175732217573	1.006535947712418
11113.31176757812	-1.847998671842649	-7.022089406487112	6.216274128815805	60.25839748541354	-8.266874941109235	17.65318030719268	0.102880658436214	-0.7175732217573221	1.013071895424837
11132.84301757812	-2.010301060215085	-7.090712082114496	6.1001088600396	59.19013227550693	-8.298922897406433	17.27550133706367	0.0925925925925926	-0.6861924686192468	1.028322440087146
11152.37426757812	-1.945442143741832	-6.665426495395318	6.334142940661504	58.50560575543706	-6.826921379575693	16.91286286167594	0.1111111111111111	-0.6694560669456067	1.056644880174292
11171.90551757812	-2.18587006810262	-6.465794689049891	6.62454853456345	54.97744595581617	-6.93276617356432	17.2891629043021	0.1111111111111111	-0.6694560669456067	1.071895424836601
11191.43676757812	-2.020839585846653	-6.124362625069339	6.754381553696149	54.93973653674404	-8.799569097927529	17.27049487505846	0.1152263374485597	-0.6192468619246861	1.082788671023965
11210.96801757812	-1.981205433744649	-6.201351455272888	7.215574918353456	53.84884567539414	-9.951698808842652	16.88161508738327	0.1049382716049383	-0.6297071129707112	1.113289760348584
11230.49926757812	-2.169376214563816	-5.826510345270494	6.949606983217101	53.48016116612103	-9.589625015762639	15.75316035361596	0.1008230452674897	-0.5941422594142259	1.117647058823529
11250.03051757812	-1.86820475387334	-6.012394579253204	7.145344688145072	53.49524493374988	-8.842903846017355	15.76062756531341	0.1111111111111111	-0.5815899581589957	1.130718954248366
11269.56176757812	-1.875346297417341	-5.716447923552264	7.432797878221952	51.78018234755568	-6.282415425095718	15.78623244952263	0.09465020576131689	-0.5564853556485355	1.139433551198257
11289.09301757812	-2.229933836347367	-5.821666463019511	7.312879964748178	50.7647300490602	-4.447207352259537	16.18194302081703	0.09465020576131689	-0.5376569037656903	1.137254901960784
11308.62426757812	-2.022175341444441	-5.247837174747175	7.535568206030017	50.36590759159459	-6.697977996132759	16.1594353143783	0.1090534979423868	-0.5167364016736401	1.139433551198257
11328.15551757812	-2.203965413791572	-5.245026227641996	7.453082771853723	49.2825684764142	-7.849881154662799	16.14791628279299	0.1008230452674897	-0.5167364016736401	1.159041394335512
11347.68676757812	-1.837777413425684	-4.989862554689569	7.439199805201973	48.15396819599216	-10.86881378994113	15.74036846587417	0.1111111111111111	-0.50418410041841	1.172113289760349
11367.21801757812	-1.856563876231796	-4.84830681509882	7.415786697250419	46.83773792961863	-6.430688757633829	16.16210820676329	0.1213991769547325	-0.4602510460251046	1.185185185185185
11386.74926757812	-1.92795809316382	-4.917021437594131	7.472243084562394	44.71630113978933	-6.121197532970499	15.78784462844388	0.102880658436214	-0.4581589958158995	1.206971677559913
11406.28051757812	-2.087512179549883	-4.710813914584251	7.571867010758118	42.94843550453906	-5.801099173669799	15.41368712147085	0.1049382716049383	-0.4707112970711297	1.217864923747277
11425.81176757812	-1.861601756270052	-4.341993808823325	7.531961059672902	41.45869259865835	-8.084597430995474	13.88141817663344	0.08847736625514405	-0.4205020920502092	1.226579520697168
11445.34301757812	-1.993303014510398	-4.380806501544845	7.427693311444322	40.78171782475798	-6.612369360779649	13.8961404573356	0.1069958847736626	-0.4079497907949791	1.224400871459695
11464.87426757812	-1.708282880015572	-4.16162133489049	7.69402802364724	39.39003913317496	-4.788448079736094	13.15966268901396	0.1090534979423868	-0.3807531380753138	1.226579520697168
11484.40551757812	-1.727254246962679	-4.038556009399234	7.841405717666474	37.96066088487487	-5.204463755543307	12.77814404168985	0.1090534979423868	-0.3661087866108786	1.213507625272331
11503.93676757812	-2.284111760064022	-4.168751763977928	7.849529375008546	35.4705593104826	-5.279166802775074	12.02268003008546	0.09670781893004116	-0.3514644351464435	1.241830065359477
11523.46801757812	-1.78620431416523	-3.872956669048293	8.121823456739268	34.40985570910056	-5.684122239174745	12.3959889662875	0.09876543209876544	-0.3535564853556485	1.226579520697168
11542.99926757812	-1.663106655709429	-3.684402944680289	8.031472018532124	32.2657834054729	-6.121578736641784	11.63689742018075	0.1049382716049383	-0.3368200836820083	1.254901960784314
11562.53051757812	-1.83355897195763	-3.557917397783198	8.217909954532679	31.52843411163683	-6.143699215456865	10.12724225312845	0.08847736625514405	-0.3138075313807531	1.254901960784314
11582.06176757812	-1.619639026498491	-3.378044063990534	8.451265042899125	30.46772064789971	-6.175520619368979	10.12692403908933	0.117283950617284	-0.3200836820083682	1.254901960784314
11601.59301757812	-1.376854837346446	-3.342049391210189	8.495896658833704	30.16690323060137	-2.080067529947631	8.658444607719392	0.1255144032921811	-0.2845188284518828	1.250544662309368
11621.12426757812	-1.789598265037373	-3.202250746161464	8.518961177011251	29.9339923546981	4.256228725864823	8.344449079711479	0.1049382716049383	-0.299163179916318	1.276688453159041
11640.65551757812	-1.991759115453347	-3.216315585738783	8.728357538649439	27.79747179723994	3.81899878078287	7.962718289694622	0.08230452674897121	-0.2907949790794979	1.28322440087146
11660.18676757812	-2.190697783871329	-2.90816222551675	8.842785920986461	26.29265498608544	0.4156453212243542	6.796609283400923	0.102880658436214	-0.2468619246861924	1.28322440087146
11679.71801757812	-2.046810029212733	-2.660800901071223	8.61416862233108	25.14900052509977	-4.469410581261933	7.502475705508136	0.102880658436214	-0.2531380753138075	1.261437908496732
11699.24926757812	-1.817451093183089	-2.957230530430064	8.722852851435556	24.78791707377152	-5.972780398234615	8.619517479036523	0.1255144032921811	-0.2364016736401673	1.263616557734205
11718.78051757812	-2.138498233422806	-2.738712231169461	8.720467284895179	23.64420343865541	-8.619032105795561	7.083620999696762	0.1069958847736626	-0.2092050209205021	1.291938997821351
11738.31176757812	-1.785965858551707	-2.839010097594932	8.486654482999384	25.13393648218106	-5.96239981598233	8.242262794293007	0.1152263374485597	-0.2112970711297071	1.294117647058824
11757.84301757812	-1.670960534878575	-2.449588841392775	8.26485135662198	25.98442389558861	-0.7130045965651775	10.18154919931737	0.1111111111111111	-0.205020920502092	1.30718954248366
11777.37426757812	-1.679219586509681	-2.265392994402427	8.486099770576399	24.57012941491739	-0.3822991026271052	9.80749776369071	0.1069958847736626	-0.198744769874477	1.291938997821351
11796.90551757812	-1.810760190332442	-2.288140245365371	8.97859649693952	23.46418437300385	-3.400552080750183	10.53203221504156	0.1131687242798354	-0.1799163179916318	1.294117647058824
11816.43676757812	-1.677874737265614	-2.130908069995736	8.805968778420487	22.6665197333625	-7.155825303521514	9.739762501681767	0.1131687242798354	-0.1569037656903766	1.281045751633987
11835.96801757812	-1.335324154792815	-2.219284166150173	8.734268408730424	22.9672779765304	-9.012474198017522	8.966479031604731	0.1049382716049383	-0.1757322175732217	1.296296296296297
11855.49926757812	-1.596587643587791	-2.083006783021488	8.708166612695877	22.0045892776707	-3.444339933610177	8.267443393116729	0.1234567901234568	-0.1485355648535565	1.313725490196079
11875.03051757812	-1.627470676754512	-2.141007069390513	8.906977970065961	22.04985044291234	-1.577310456861884	8.663472178450251	0.1111111111111111	-0.1234309623430962	1.302832244008715
11894.56176757812	-1.644835499525762	-1.857287326313503	8.961394349396139	21.32006275760083	-1.972338415779438	7.904804917728999	0.1213991769547325	-0.1527196652719665	1.305010893246187
11914.09301757812	-1.978105510768843	-1.850955117288284	8.92807522943194	22.0045892776707	-3.444339933610177	8.267443393116729	0.1213991769547325	-0.1317991631799163	1.305010893246187
11933.62426757812	-1.773996599238997	-1.642084166323963	9.011266936802524	20.88353088106309	-6.089911984015869	7.863629182046634	0.1111111111111111	-0.1108786610878661	1.313725490196079
11953.15551757812	-1.743192377673356	-1.591965040062918	9.034282955533254	20.79302827528996	-10.57023900248757	7.818825911861917	0.1111111111111111	-0.104602510460251	1.300653594771242
11972.68676757812	-1.684423172991232	-1.775650632456531	8.965080307354333	20.44699900452535	-10.2074855522523	7.82245344636427	0.1296296296296297	-0.07740585774058577	1.305010893246187
11992.21801757812	-1.522717934057747	-1.766742900724229	9.169162948350484	19.76244289739027	-7.616081936958889	6.338933520253053	0.1213991769547325	-0.08368200836820083	1.305010893246187
12011.74926757812	-1.389200977777139	-1.546360403976547	9.252224313457747	19.40130027193159	-6.880647559006232	5.214212392334466	0.1255144032921811	-0.07322175732217573	1.300653594771242
12031.28051757812	-1.549846301716615	-1.449276636307933	9.548401341531076	18.32545372879025	-5.793519970225845	3.338291215392081	0.1316872427983539	-0.05439330543933054	1.300653594771242
12050.81176757812	-1.578540797345658	-1.288423168909195	9.414742928530581	16.96391298539973	-1.356754252229053	1.495866419741861	0.1316872427983539	-0.05857740585774058	1.302832244008715
12070.34301757812	-1.66916807615658	-1.260241959092313	9.02130632229392	18.09251326582176	1.66217838304928	1.903414236660682	0.1193415637860082	-0.03765690376569037	1.324618736383442
12089.87426757812	-1.647131140008496	-1.076750364485973	9.23272147340592	16.68576066896496	2.366244461859993	1.533096406882751	0.1522633744855967	-0.06903765690376569	1.318082788671024
12109.40551757812	-1.849817401098337	-1.143356271449828	9.23746532554784	14.85756982555435	-0.6736758903079964	1.502697203361071	0.139917695473251	-0.01882845188284519	1.315904139433551
12128.93676757812	-2.115519599682333	-1.450949867223166	9.259832664177374	12.9087088411129	-9.687365600438255	1.412560306259768	0.1337448559670782	-0.01673640167364017	1.305010893246187
12148.46801757812	-1.534758932135543	-0.9506406883017244	8.937120376263559	11.87816291263349	-8.225744664859802	1.427176515615553	0.1440329218106996	-0.02301255230125523	1.32244008714597
12167.99926757812	-1.454471129143206	-1.0026684698761	8.945422875315774	12.29965047096266	-6.347428396318882	2.955393640565113	0.1502057613168724	0	1.305010893246187
12187.53051757812	-1.606959452370921	-1.099985641132527	9.009739204227747	10.92308513407372	-4.896188042992715	3.347264534664413	0.1625514403292181	-0.008368200836820083	1.300653594771242
12207.06176757812	-1.816614477725472	-0.8533669644664057	9.009872577706497	9.80957848363561	-7.541533541013321	3.320811079684207	0.1646090534979424	-0.002092050209205021	1.318082788671024
12226.59301757812	-1.462143135386782	-0.7597680841327181	8.977693194742528	8.711155600826356	-9.440157869288642	3.301824836401453	0.1460905349794239	0.006276150627615062	1.315904139433551
12246.12426757812	-1.199491349926631	-0.7572158007439028	8.748124094443337	6.920654451777735	-9.867007232118308	2.542839361641081	0.1460905349794239	-0.008368200836820083	1.320261437908497
12265.65551757812	-1.36178060303222	-0.8245249496866235	8.763337764667167	5.52898562254979	-8.416219983562312	2.179988743560604	0.1522633744855967	0.008368200836820083	1.296296296296297
12285.18676757812	-1.390664044422826	-0.6825660584441979	8.760045864714371	5.205552416163243	-5.813982681246447	1.073935644885649	0.1790123456790124	0.008368200836820083	1.291938997821351
12304.71801757812	-1.30985891399776	-0.6828610967456761	8.892152295416679	4.520986446673088	-2.849445033465479	-0.7832114314667303	0.168724279835391	0.004184100418410041	1.315904139433551
12324.24926757812	-1.33165234250661	-0.842001927428641	9.096098531718654	4.235351420554327	-1.738611099174415	1.492047851272407	0.1604938271604938	0.01255230125523012	1.302832244008715
12343.78051757812	-1.482135011527359	-0.7387536779883878	9.018948036692379	2.836140707511955	-0.6611844354910592	1.125463627343203	0.1769547325102881	0.01882845188284519	1.315904139433551
12363.31176757812	-1.422630231901823	-0.8488817760408511	9.236258901808233	1.790491286693549	0.7999833953172244	0.38535832451921	0.1790123456790124	-0.004184100418410041	1.313725490196079
12382.84301757812	-1.635415492386441	-0.915286612381438	9.240911817487369	1.828230292830902	1.547384222217763	1.524907804486329	0.191358024691358	0.02928870292887029	1.315904139433551
12402.37426757812	-1.601595211471785	-0.5635615512188362	9.127523142041513	1.09845246987447	0.7792222308126521	1.13986769400624	0.1707818930041153	0.02719665271966527	1.305010893246187
12421.90551757812	-1.643689700094678	-0.7326063731041631	9.31056914798021	0.7147236423927935	-1.097961275802843	1.498454349506123	0.1584362139917695	0.03347280334728033	1.305010893246187
12441.43676757812	-1.524194135970281	-0.904262081876544	9.555706570708088	-0.0301083611272768	-3.732246534415908	2.226828478052068	0.1502057613168724	0.04184100418410042	1.318082788671024
12460.96801757812	-1.389988083382795	-0.6149699544411354	9.460402126494621	0.6544082965875189	-4.831114019759091	2.215839803198635	0.1666666666666667	0.02928870292887029	1.30718954248366
12480.49926757812	-1.147420120931148	-0.6005979517006337	9.362536305246062	1.737767136478062	-4.425478926204166	2.974613135266261	0.1831275720164609	0.03138075313807531	1.318082788671024
12500.03051757812	-1.258612175598188	-0.6086923072935865	9.340817646717724	1.090950035480331	-1.086674484010217	2.630642689122162	0.1790123456790124	0.02301255230125523	1.315904139433551
12519.56176757812	-1.55219145205131	-0.6736906596764415	9.32453092623304	0.3837781392570367	0.0115133441777111	1.509549095705928	0.1728395061728395	0.01255230125523012	1.333333333333333
12539.09301757812	-1.350716666726786	-0.728232329244234	9.323818590607896	0.4064235154104631	0.3853270338205229	2.268004213734432	0.1893004115226338	0.01673640167364017	1.30718954248366
12558.62426757812	-1.291868650443582	-0.9040367615298672	9.032788566328163	-0.3158124237315415	-0.009474372711946247	1.886697709103069	0.1728395061728395	0.02510460251046025	1.320261437908497
12578.15551757812	-1.310922870612337	-0.7892567582034112	9.361569347525121	0.06039424464585157	0.7480804840557935	2.271631748236785	0.1666666666666667	0.02092050209205021	1.311546840958606
12597.68676757812	-1.441806711092766	-0.7463276749331853	9.352305953182819	-2.121397340409017	-1.183044905286897	1.120245022645244	0.168724279835391	0.03556485355648535	1.32244008714597
12617.21801757812	-1.301040097917958	-0.8110804988665227	9.219162846804769	-0.684457483584363	-1.139936709582158	2.252751576300405	0.1604938271604938	0.03138075313807531	1.335511982570806
12636.74926757812	-1.379907271280575	-0.6169897543200908	9.278583762803514	-1.820629234886042	-3.412827832270462	0.7205887028093709	0.1769547325102881	0.0397489539748954	1.318082788671024
12656.28051757812	-1.289504302411188	-0.6676019582904558	9.448674354010862	-1.828180981055541	-3.413054384655547	0.3432279467194823	0.1831275720164609	0.01464435146443514	1.320261437908497
12675.81176757812	-1.099231878896558	-0.8322787987467057	9.523151317031276	-1.828190843410613	-3.03992035216799	-0.0303992035216799	0.1975308641975309	0.0397489539748954	1.30718954248366
12695.34301757812	-1.109564281879149	-0.8554180869047646	9.208759715462234	-1.436910269759438	-1.16251029316741	-0.0116251029316741	0.1893004115226338	0.01882845188284519	1.320261437908497
12714.87426757812	-1.280509675836669	-0.7782403109396536	9.513939453351218	-1.090880998994826	-1.525263743402681	-0.01525263743402681	0.1728395061728395	0.03347280334728033	1.302832244008715
12734.40551757812	-1.329899289585155	-0.66669663528318	9.458416680390496	-1.444471878284009	-0.7896028130649383	-0.7626130092627249	0.1810699588477366	0.01882845188284519	1.311546840958606
12753.93676757812	-1.442116905471375	-0.7773471127940825	9.280044808638918	-0.7599453582141414	-2.261604330895678	-0.3999745338749945	0.1810699588477366	0.02510460251046025	1.320261437908497
12773.46801757812	-1.299813466075511	-0.6884173146218023	9.366722413749571	0.03015767290263735	1.866576371978124	-0.3586927268462565	0.1831275720164609	0.03138075313807531	1.309368191721133
12792.99926757812	-1.411989655350907	-0.7949251310503049	9.602699503459634	-1.053201166987905	1.460941278423199	-1.117466058913881	0.1995884773662552	0.03138075313807531	1.313725490196079
12812.53051757812	-1.42112472824017	-0.6983314098755847	9.142791374143012	-0.3309455031357568	1.109474619980554	0.01109474619980554	0.1769547325102881	0.03138075313807531	1.309368191721133
12832.06176757812	-1.421504640573581	-0.7363226432166183	9.38331225577687	-1.429378248300082	-0.4160156758072115	-0.3815186473241099	0.1995884773662552	0.02092050209205021	1.313725490196079
12851.59301757812	-1.33001043415078	-0.6778110918457164	9.356849745106611	-0.7373098444157872	-1.514656608765309	-0.0151465660876531	0.1872427983539095	0.01464435146443514	1.309368191721133
12871.12426757812	-1.279096119042943	-0.6368846315670311	9.510920362786775	-1.083348977535471	-0.7787691260424821	-0.3851461818264626	0.1934156378600823	0.008368200836820083	1.311546840958606
12890.65551757812	-1.299191056508009	-0.6261763578715983	9.531456847298918	-1.782959265234193	-0.0534887779570258	-0.7552518689116458	0.1728395061728395	0.01464435146443514	1.298474945533769
12910.18676757812	-1.379608191358528	-0.5870817621154474	9.239678112808926	-1.436939856824654	-0.04310819570473962	-1.132506553655161	0.1790123456790124	0.01673640167364017	1.324618736383442
12929.71801757812	-1.300016557509063	-0.7087264579769826	9.355603915566466	-1.444481740639081	-0.4164687805773815	-1.136240159503887	0.1810699588477366	0.008368200836820083	1.320261437908497
12949.24926757812	-1.147490849291091	-0.6076707876949752	9.66521225919305	-0.6769747739003683	1.472228070215825	0.01472228070215825	0.1954732510288066	0.01673640167364017	1.294117647058824
12968.78051757812	-1.584465813098632	-0.8708237341055822	9.748694963244544	-1.782949402879121	-0.4266228104445826	-0.3816247186704836	0.1769547325102881	0.01464435146443514	1.318082788671024
12988.31176757812	-1.229615568831673	-0.7393346609450658	9.465888626415946	-2.166697955070941	-1.557538252084964	-0.7702923636529252	0.1851851851851852	0.01882845188284519	1.318082788671024
13007.84301757812	-1.321301752231462	-0.8170439100148944	9.592399433441589	-0.3309356407806847	0.7363405874929974	0.3847218964409677	0.2078189300411523	0.004184100418410041	1.309368191721133
13027.37426757812	-1.35109354784477	-0.765920441042653	9.594657688934067	-1.038077949938762	0.715126318218255	0.3845097537482203	0.168724279835391	0.02510460251046025	1.309368191721133
13046.90551757812	-1.428772484760337	-0.4530060517912863	9.417607427108289	-0.3158617355069021	1.856195789725838	0.01856195789725838	0.1893004115226338	0.02928870292887029	1.30718954248366
13066.43676757812	-1.24131707078174	-0.8993838458507327	9.599183293565304	-0.338477524595112	0.3629800026203556	0.3809882905922413	0.191358024691358	0.01882845188284519	1.300653594771242
13085.96801757812	-1.331897870956128	-0.8665547723804261	9.670626009944145	-0.6844969330046514	0.3525994203680694	0.7582429753357562	0.1934156378600823	0.008368200836820083	1.318082788671024
13105.49926757812	-1.360694417504518	-0.715906396916381	9.526355311736713	0.04529075230685262	0.7476273792856235	1.516910236057007	0.1790123456790124	0.02719665271966527	1.300653594771242
13125.03051757812	-1.298677770695848	-0.574847776655521	9.614836490025924	1.090920448415114	0.03272761345245344	1.509761238398676	0.1934156378600823	0.01673640167364017	1.315904139433551
13144.56176757812	-1.39219986023874	-0.8361476400356105	9.56043223555745	0.3535908792891831	-0.7356609303377424	0.7473603718286981	0.1790123456790124	0.01673640167364017	1.320261437908497
13164.09301757812	-1.432009822835461	-0.7767398593037111	9.360984322947875	1.090910586060042	0.4058616459400103	1.136134088157513	0.168724279835391	0.008368200836820083	1.335511982570806
13183.62426757812	-1.079035900917287	-0.8328830210216509	9.503121045495302	1.474649275896791	1.909911120067949	1.151174582898793	0.1810699588477366	0.03765690376569037	1.309368191721133
13203.15551757812	-1.381513815456432	-0.7776441719058448	9.37154507749257	0.3988421821757472	1.504502578898108	0.7697620069210566	0.1790123456790124	0.02301255230125523	1.296296296296297
13222.68676757812	-1.221446443258209	-0.932523113699648	9.355300794023851	0.767516829093785	1.51556281830565	1.524589590447208	0.1872427983539095	0.03556485355648535	1.313725490196079
13242.21801757812	-1.180141081051255	-0.8423909334083298	9.360220456660487	0.04529075230685262	0.7476273792856235	1.516910236057007	0.1893004115226338	0.03138075313807531	1.302832244008715
13261.74926757812	-1.218826462724876	-0.6705250603664028	9.297719825788777	0.4441329344825999	2.252129958183732	2.286672242978064	0.1769547325102881	0.02510460251046025	1.333333333333333
13281.28051757812	-1.300921880516339	-0.7992587587045521	9.391472287704055	0.4139456745147462	1.504955683668278	1.524483519100834	0.1851851851851852	0.002092050209205021	1.30718954248366
13300.81176757812	-1.642607556187544	-0.6243919823907402	9.02306139602566	-0.3083001269823305	1.483288309623366	0.7695498642283092	0.168724279835391	0.01464435146443514	1.296296296296297
13320.34301757812	-1.400025448063908	-0.6086054124513702	9.066680586007905	-0.6844772082945072	-0.3936686446070442	1.505497275818081	0.1810699588477366	0.0397489539748954	1.311546840958606
13339.87426757812	-1.400398287561324	-0.6458893621929697	9.377943973257164	-1.038058225228618	-0.03114174675685855	1.131764054230545	0.1748971193415638	0.02719665271966527	1.30718954248366
13359.40551757812	-1.249648871583074	-0.7224629158831355	9.092794506904156	-1.053151855212545	-0.4047288840145853	0.7506696922919297	0.168724279835391	0.01464435146443514	1.309368191721133
13378.93676757812	-1.097344442091211	-0.643535118211996	9.209375052193742	-1.406742734501728	0.3309320463231571	0.003309320463231571	0.1851851851851852	0.03138075313807531	1.32244008714597
