Time Stamp	Accelerometer X	Accelerometer Y	Accelerometer Z	Gyroscope X	Gyroscope Y	Gyroscope Z	Magnetometer X	Magnetometer Y	Magnetometer Z
938.507080078125	0.4288971518203465	-9.640652607881842	-2.073388651422405	30.11122080949986	122.6762105894133	-4.22165999186241	0.1974248927038627	-0.3816964285714285	0.7120181405895691
958.038330078125	0.5217506052511063	-9.651682152517157	-2.175060525110626	3.339842470362098	4.261679830275751	-1.054956639542998	0.2060085836909871	-0.3883928571428571	0.6848072562358277
977.569580078125	0.2358729881095015	-9.547813275335642	-2.158727382378725	-0.4193411494730987	3.209082259900325	-1.119614336235947	0.1974248927038627	-0.3861607142857142	0.7006802721088435
997.100830078125	0.2791582612204393	-9.790670370490995	-2.405622040411278	-0.0539515039992382	1.03296876635957	-1.090545408391063	0.1974248927038627	-0.3928571428571428	0.6757369614512472
1016.632080078125	0.09350994056902294	-9.69790479637539	-2.20813691404515	0.6675602423026528	0.3381561088337781	-0.3497425864581121	0.1952789699570815	-0.3772321428571428	0.6984126984126985
1036.163330078125	0.1629773126402106	-9.62789239938903	-2.012016978306777	-0.02756429584502254	-1.502233001687766	-1.064665646547505	0.2081545064377682	-0.3816964285714285	0.6848072562358277
1055.694580078125	-0.220501302393508	-9.684663673844753	-2.439665679016544	0.2954955656570434	1.772077481045532	-0.7312353239289692	0.2060085836909871	-0.3816964285714285	0.6825396825396826
1075.225830078125	0.2340123708851921	-9.982138103506832	-1.972665659947784	0	0	0	0.203862660944206	-0.3883928571428571	0.7029478458049887
1094.757080078125	0.1565004648737437	-9.779342782426516	-2.384740364925389	0.328557804983008	-0.02093216567280204	-0.3529317524594392	0.2103004291845494	-0.3772321428571428	0.6848072562358277
1114.288330078125	0.1412033621655451	-9.708482740692364	-1.875438257370835	-0.02552303699618864	1.068666284419095	-0.3709093537999421	0.1995708154506438	-0.390625	0.6938775510204082
1133.819580078125	0.18453914063002	-9.698815088375998	-2.127383450757105	0.32478820381812	0.3412395154768173	-0.3566288612942332	0.2081545064377682	-0.3794642857142857	0.6848072562358277
1153.350830078125	0.1344941897728072	-9.809425749978537	-2.224929181362349	-0.6846799058110384	-1.460368670342161	-0.3588021416286265	0.1974248927038627	-0.390625	0.6893424036281179
1172.882080078125	0.4680854306523489	-9.620842470468142	-1.910583881561422	1.367318552773243	0.3498380545774623	0.02384799050969024	0.2210300429184549	-0.3861607142857142	0.6802721088435374
1192.413330078125	0.3477286582128069	-9.740851023955868	-2.119804596790888	0.2812813321555186	1.754228722015769	-1.09105335122453	0.2103004291845494	-0.3816964285714285	0.7052154195011338
1211.944580078125	0.2977079499252919	-9.891865968388144	-2.219774584365915	0.003769601164887951	-0.3621716811496193	0.003697108834793953	0.2017167381974249	-0.3861607142857142	0.6961451247165533
1231.475830078125	0.4699743308746391	-9.570356308965314	-2.099473903790444	-2.105085791425493	-2.243773442188294	-1.818225132485764	0.203862660944206	-0.4017857142857142	0.6961451247165533
1251.007080078125	0.5110959546400444	-9.742484696920139	-2.130003627269754	0.1893208999746211	0.9049440465081912	-3.602385324623863	0.1995708154506438	-0.3861607142857142	0.7097505668934241
1270.538330078125	-0.1215548418831639	-9.746259199055917	-2.1302300973979	0.9810396426261089	1.765910667759453	-0.7174627742567271	0.1802575107296137	-0.375	0.7006802721088435
1290.069580078125	0.2465417802195537	-10.15398056931735	-2.205198430118637	0.6826386469622047	-1.110530615764699	-0.3349541511189363	0.2103004291845494	-0.3772321428571428	0.6802721088435374
1309.600830078125	0.2783824989901083	-10.01288483509091	-2.328045817378182	0.328557804983008	-0.02093216567280204	-0.3529317524594392	0.184549356223176	-0.3861607142857142	0.7052154195011338
1329.132080078125	0.04904082197117384	-9.333823741553047	-1.842857707321466	2.74594590904115	-0.3868389342939336	0.05878730752376234	0.1974248927038627	-0.375	0.6984126984126985
1348.663330078125	0.1431811518100607	-9.637795447881739	-2.073217221822399	-0.02465886583816162	-0.3978691992091449	-0.7159389457563266	0.1974248927038627	-0.3928571428571428	0.7006802721088435
1368.194580078125	0.05710753703813091	-9.647035721835028	-2.649529214017173	0.2963597368150704	0.3055419974172918	-1.076264915885354	0.1974248927038627	-0.3839285714285714	0.6802721088435374
1387.725830078125	0.1945352014309571	-9.688814038882999	-2.106581367585505	-2.530237800912313	-1.243418787245211	-3.635292870304068	0.2103004291845494	-0.3950892857142857	0.6961451247165533
1407.257080078125	0.1759087445887281	-9.628021713708515	-2.284752009893218	0.004633772322914974	-1.828707164777859	-0.3413324831215905	0.1802575107296137	-0.3727678571428571	0.7120181405895691
1426.788330078125	0.3978665389205281	-9.448423109833653	-2.031551851236484	0.6817744758041775	0.3560048678635408	0.01007544083744814	0.2081545064377682	-0.3727678571428571	0.6916099773242631
1446.319580078125	0.295766524135323	-9.518109180392869	-2.025632005369027	0.328557804983008	-0.02093216567280204	-0.3529317524594392	0.203862660944206	-0.3883928571428571	0.6961451247165533
1465.850830078125	0.09052002363962237	-9.596864796195995	-1.909145221105093	0.260392067482245	0.9941878416570049	-1.803295188146062	0.1974248927038627	-0.3928571428571428	0.6961451247165533
1485.382080078125	0.09276448155081428	-9.465574109461976	-2.133591012224284	0.3323274061478959	-0.3831038468224214	-0.3492346436246452	0.1974248927038627	-0.375	0.7074829931972789
1504.913330078125	0.2407235222632115	-10.22462945744486	-2.643780797749722	-0.01711966350838571	-1.122212561508384	-0.7085447280867386	0.2060085836909871	-0.390625	0.7074829931972789
1524.444580078125	0.2845320720656544	-9.821027138902476	-1.922594961667482	-0.7566152444766894	-0.08307698186273527	-1.812862686150043	0.2124463519313305	-0.3816964285714285	0.6984126984126985
1543.975830078125	0.1541206526150722	-10.02174322672817	-2.146759139058236	0.6666960711446257	1.804691592462018	-0.004712994501727668	0.1995708154506438	-0.3772321428571428	0.6802721088435374
1563.507080078125	0.1973129958755015	-9.941367069352696	-2.38436081203995	-0.3598917019929185	-1.119129154865344	-0.7154310029228597	0.1909871244635193	-0.3928571428571428	0.7006802721088435
1583.038330078125	0.2452589442397095	-9.699422286412096	-2.076914832134221	1.034991146625347	0.7329419013998837	0.3730826341343355	0.1759656652360515	-0.3727678571428571	0.7006802721088435
1602.569580078125	0.04380640590172134	-9.535791599412553	-2.339824263641521	0.3038989391448463	-0.4188013648819469	-1.068870698215766	0.184549356223176	-0.3683035714285714	0.671201814058957
1622.100830078125	-0.1329145472296046	-9.503721359578211	-2.014667726019137	-0.07861036983739982	0.6350995671504248	-1.806484354147389	0.2017167381974249	-0.3861607142857142	0.7029478458049887
1641.632080078125	0.2015615474439084	-9.779793393252218	-1.788807805615335	0.725281347466779	-1.056984338675411	0.7444999307677445	0.2060085836909871	-0.3616071428571428	0.6825396825396826
1661.163330078125	-0.2093759418874798	-9.704976947651835	-2.53179356635406	0.3360970073127839	-0.7452755279720408	-0.3455375347898513	0.2103004291845494	-0.3705357142857142	0.6916099773242631
1680.694580078125	0.2040383299813713	-9.699010080269511	-2.036486059361625	-0.3816451378242192	-0.4126345515958683	-1.082643247888008	0.1952789699570815	-0.3928571428571428	0.6938775510204082
1700.225830078125	0.3659086477297672	-9.730931813750027	-1.896987221956315	0.6713298434675408	-0.02401557231584131	-0.3460454776233181	0.1866952789699571	-0.3816964285714285	0.6870748299319728
1719.757080078125	0.2623884224030968	-9.790502672102821	-1.749046321942331	1.371088153938131	-0.0123336265721571	0.02754509934448419	0.2081545064377682	-0.390625	0.7097505668934241
1739.288330078125	0.3911412048146583	-9.690780098916836	-2.379426603914808	1.395747019776292	0.3855355726369878	0.7434840451008107	0.2017167381974249	-0.3928571428571428	0.6825396825396826
1758.819580078125	0.3246900536855705	-9.397186294476251	-1.856760470597868	0.3210186026532321	0.7034111966264366	-0.3603259701290271	0.1974248927038627	-0.3883928571428571	0.6825396825396826
1778.350830078125	0.2853159151525513	-9.780630936929304	-2.000979270357173	0.2775117309906307	2.116400403165388	-1.094750460059323	0.1931330472103004	-0.3794642857142857	0.6984126984126985
1797.882080078125	0.08269165261250071	-9.51597843167764	-2.146716281658235	0.07861036983739982	-0.6350995671504248	1.806484354147389	0.2017167381974249	-0.3772321428571428	0.6825396825396826
1817.413330078125	0.001278713093841133	-9.545467332585485	-2.168687635914725	-0.0388730993396864	-0.4157179582389076	-1.075756973051887	0.1995708154506438	-0.3794642857142857	0.6961451247165533
1836.944580078125	0.294990761904992	-9.740323644992788	-1.948055782335931	0.2972239079730974	-1.160993486210948	-1.421294507841738	0.2124463519313305	-0.375	0.7052154195011338
1856.475830078125	0.04051547706523922	-9.606465760831259	-2.01073137999331	-0.4631609376684799	-0.8818987869240642	-3.237854302826575	0.2103004291845494	-0.3839285714285714	0.7097505668934241
1876.007080078125	0.3975877493690029	-9.993874867392682	-2.003672896083965	0.3569862719860575	0.01476535238672349	0.3667043021316813	0.203862660944206	-0.3705357142857142	0.7074829931972789
1895.538330078125	0.4578509845827164	-9.570235075502394	-1.907547437863477	0.01130880349466385	-1.086515043448858	0.01109132650438186	0.1931330472103004	-0.3950892857142857	0.6938775510204082
1915.069580078125	0.4671702736462554	-9.61073230879707	-1.819068180952067	0.6420372053064641	1.406822393252873	-0.7206519402580541	0.1974248927038627	-0.3772321428571428	0.6870748299319728
1934.600830078125	-0.5055102274542734	-9.681813584594146	-2.510201744368578	-0.07484076867251187	0.2729278860008055	-1.802787245312595	0.1824034334763948	-0.375	0.6938775510204082
1954.132080078125	0.1309224511706584	-9.748783971986455	-1.86775532114747	-0.6855440769690655	0.00616681328607855	-0.0137725496722421	0.2167381974248927	-0.3973214285714285	0.7006802721088435
1973.663330078125	0.2668268328719434	-9.780446046106499	-2.192887368826996	-0.01798383466641273	0.3443229221198566	-0.3635151361303542	0.2017167381974249	-0.3861607142857142	0.7052154195011338
1993.194580078125	0.09197659803563439	-9.667586432647024	-2.054802660706296	0.6475351487874061	-1.888420255153226	-1.407014015336029	0.1952789699570815	-0.3950892857142857	0.6893424036281179
2012.725830078125	0.4365760270009981	-9.640729396633647	-1.820868006222261	0.6855440769690655	-0.00616681328607855	0.0137725496722421	0.2103004291845494	-0.3772321428571428	0.6893424036281179
2032.257080078125	0.6631015255066999	-9.834913843537896	-2.024438264955708	0.5985303336438628	2.819811599791825	-1.455076430188351	0.2081545064377682	-0.3883928571428571	0.6961451247165533
2051.788330078125	0.03024668735520144	-9.666969133540219	-2.004260572254838	1.669489149602035	2.864107656951996	-0.3549635237933066	0.1931330472103004	-0.4017857142857142	0.6961451247165533
2071.319580078125	0.2473215828781676	-9.770149983505551	-2.28317869598003	0.6855440769690655	-0.00616681328607855	0.0137725496722421	0.2124463519313305	-0.3883928571428571	0.6848072562358277
2090.850830078125	0.3487064418572864	-9.518638579570089	-2.217582961238852	1.014101881952074	-0.02709897895888059	-0.3391592027871971	0.1995708154506438	-0.3705357142857142	0.6848072562358277
2110.382080078125	0.2549802559174044	-9.568206368215741	-2.028637836638399	-0.04727647282748933	1.775160887688571	-0.7381215987650902	0.2081545064377682	-0.3950892857142857	0.6893424036281179
2129.913330078125	-0.06214009660887485	-9.928671528326843	-1.949255645234964	0.6788690457973167	-0.7483589346150801	-0.3386512599537302	0.1974248927038627	-0.4017857142857142	0.6893424036281179
2149.444580078125	0.01152124002003959	-9.272842485127475	-2.172532165269265	0.001728342316054045	-2.93307096725648	-0.6900591839127689	0.1974248927038627	-0.3883928571428571	0.6893424036281179
2168.975830078125	0.4221112112902321	-9.276948384840177	-2.415202761676269	0.6817744758041775	0.3560048678635408	0.01007544083744814	0.1866952789699571	-0.4017857142857142	0.6848072562358277
2188.507080078125	0.0122586181816823	-9.828405414464648	-2.246269981433536	-0.0539515039992382	1.03296876635957	-1.090545408391063	0.1995708154506438	-0.3683035714285714	0.6848072562358277
2208.038330078125	0.2967140045676803	-9.750441887520427	-2.120380048604761	0.01130880349466385	-1.086515043448858	0.01109132650438186	0.1759656652360515	-0.3883928571428571	0.6870748299319728
2227.569580078125	0.4474003755999448	-9.832756832038829	-1.882894702851623	0.3900485113120221	-1.77824429433161	0.7450078736012112	0.1995708154506438	-0.3638392857142857	0.6916099773242631
2247.100830078125	0.436670977065648	-9.630629336033284	-1.83036301268725	-0.3958593713257439	-0.4304833106256311	-1.442461275183568	0.203862660944206	-0.3861607142857142	0.6825396825396826
2266.632080078125	0.02855374790463544	-9.707356244549755	-1.834966627198238	-0.4318270406585694	0.258162533614082	-2.169491547444276	0.2017167381974249	-0.375	0.7142857142857143
2286.163330078125	-0.04157019376253548	-9.524836823314903	-1.965429603338288	0.6997583104705902	0.01168194574368421	0.3735905769678023	0.2081545064377682	-0.3883928571428571	0.7233560090702948
2305.694580078125	0.4233475823448221	-9.822415294005269	-2.538839867135266	1.032085716618486	-0.3714219010787372	0.0243559333431571	0.1866952789699571	-0.3816964285714285	0.7120181405895691
2325.225830078125	0.3079322949242169	-9.588937908807829	-2.221800920993116	0.6571156099660159	-0.04186433134560408	-0.7058635049188784	0.2060085836909871	-0.3794642857142857	0.6916099773242631
2344.757080078125	0.3663207714146305	-9.407703611754552	-1.938199590442647	-0.4100736048272687	-0.4483320696553939	-1.802279302479128	0.2081545064377682	-0.3861607142857142	0.6848072562358277
2364.288330078125	0.2959059189110856	-9.75043380666386	-2.039571482945286	0.3540808419791966	-1.089598450091897	0.01797760134050291	0.1909871244635193	-0.3727678571428571	0.6780045351473923
2383.819580078125	0.5621813157801231	-10.18743999497598	-2.136498924951085	-0.01798383466641273	0.3443229221198566	-0.3635151361303542	0.1888412017167382	-0.3772321428571428	0.7142857142857143
2403.350830078125	0.3800077634520641	-9.993699067533512	-2.286490630920698	0.3143435714814832	-0.03878092470256481	-0.7127497797549994	0.2060085836909871	-0.390625	0.6848072562358277
2422.882080078125	0.3168475411594585	-9.629431101674223	-2.092917381251969	-0.4431358441532333	1.34467757706294	-2.180582873948658	0.1974248927038627	-0.3839285714285714	0.6893424036281179
2442.413330078125	-0.01124867602637897	-9.545342058694283	-1.936356887158021	0.64957640763624	0.6824790309536346	-0.7132577225884663	0.1952789699570815	-0.3861607142857142	0.6938775510204082
2461.944580078125	0.2665924880315309	-9.558221480435872	-2.169452884785748	1.020776913123822	0.7150931423701209	0.01326460683877524	0.2103004291845494	-0.3839285714285714	0.6848072562358277
2481.475830078125	0.01497176577369916	-9.636513354021377	-2.517584740635222	-0.01130880349466385	1.086515043448858	-0.01109132650438186	0.203862660944206	-0.3861607142857142	0.6870748299319728
2501.007080078125	0.4685440192624664	-9.711756147263335	-1.956442742573174	0.3427720384845327	-0.003083406643039275	0.006886274836121049	0.2017167381974249	-0.3973214285714285	0.6780045351473923
2520.538330078125	0.1343426737121956	-9.556898982292678	-2.209777575301197	0.2917259644921555	2.134249162195151	-0.7349324327637631	0.203862660944206	-0.3839285714285714	0.6916099773242631
2540.069580078125	0.193244284594547	-9.557487998401502	-1.977489683944494	0.3465416396494207	-0.3652550877926586	0.010583383670915	0.1974248927038627	-0.3705357142857142	0.6984126984126985
2559.600830078125	0.2531378206203684	-9.527783903458731	-1.844394306934797	0.3143435714814832	-0.03878092470256481	-0.7127497797549994	0.2103004291845494	-0.3705357142857142	0.6893424036281179
2579.132080078125	0.1421548830261854	-9.77919932660804	-1.970590343434866	-0.06439613633587504	0.6529483261801876	-1.446666326851829	0.1952789699570815	-0.3928571428571428	0.6802721088435374
2598.663330078125	0.305687837013025	-9.720228595541849	-1.997355129873925	1.042530348955123	0.008598539100644939	0.3804768518039234	0.2081545064377682	-0.3861607142857142	0.6961451247165533
2618.194580078125	0.07382287130251333	-9.38457661255141	-2.280246313924802	1.039624918948262	-1.095765263377976	0.031750151012745	0.1866952789699571	-0.3772321428571428	0.6848072562358277
2637.725830078125	0.3878906802610059	-9.660444563368268	-2.054374148549571	0.9848092437909969	1.403738986609834	-0.7137656654219331	0.1952789699570815	-0.4017857142857142	0.6938775510204082
2657.257080078125	0.5470639709016568	-9.914561548799927	-2.665580763635067	-0.4222465794799596	2.104718457421704	-1.468341037027126	0.1931330472103004	-0.3816964285714285	0.6870748299319728
2676.788330078125	-0.07031594446833224	-9.605357446615923	-2.152079022554531	0.7102029428072271	0.3917023859230663	0.7297114954285686	0.1866952789699571	-0.3816964285714285	0.6961451247165533
2696.319580078125	0.1657995517958678	-9.617819611679577	-2.294240893872492	-0.327693633824981	-1.445603317955438	0.007902160503054765	0.1909871244635193	-0.375	0.673469387755102
2715.850830078125	0.4370184538979838	-9.87305705322585	-1.865110695920824	-0.3891843401539951	0.3117088107033704	-1.090037465557596	0.2145922746781116	-0.3839285714285714	0.6938775510204082
2735.382080078125	0.07107133964180821	-9.849195561881269	-2.00509314785429	0.6487122364782131	2.149014514581875	-0.3682281306320819	0.2145922746781116	-0.3839285714285714	0.7006802721088435
2754.913330078125	-0.05183898347257327	-9.585340196023861	-1.958958795599816	-0.02175343583130069	0.7064946032694759	-0.3672122449651481	0.2060085836909871	-0.3839285714285714	0.7029478458049887
2774.444580078125	0.3701632187117386	-9.751176379661867	-2.322444320153449	0.3465416396494207	-0.3652550877926586	0.010583383670915	0.1974248927038627	-0.3705357142857142	0.6938775510204082
2793.975830078125	0.2961140009676587	-9.760536897585435	-2.060379688602601	-0.03510349817479845	-0.777889639388527	-1.072059864217093	0.2145922746781116	-0.3973214285714285	0.6870748299319728
2813.507080078125	0.2960352126161407	-9.629222978388789	-2.052500853450802	-0.03596766933282547	0.6886458442397132	-0.7270302722607084	0.2231759656652361	-0.3705357142857142	0.6870748299319728
2833.038330078125	0.0312224507855396	-9.778090002285634	-2.101836915288653	-0.3456774684913937	-1.101280395835581	-0.3556129756272994	0.2017167381974249	-0.3861607142857142	0.6938775510204082
2852.569580078125	0.418206137354738	-9.670848728040216	-2.024695368126857	0.03683184049085249	-2.155181327867953	0.3820006803043239	0.2124463519313305	-0.3839285714285714	0.6802721088435374
2872.100830078125	0.2954008653757139	-9.750428756128507	-1.989066129408114	-0.3749701066524703	0.3295575697331331	-0.7302194382620355	0.1995708154506438	-0.3973214285714285	0.6893424036281179
2891.632080078125	-0.07037453067843535	-9.676063931460893	-2.14622040154422	0.323924032660093	1.807774999105058	-0.01159926933784872	0.2060085836909871	-0.3839285714285714	0.6893424036281179
2911.163330078125	0.3061908703342552	-9.548516454157889	-2.047658461996948	1.028316115453598	-0.009250219929117825	0.02065882450836315	0.1952789699570815	-0.40625	0.6961451247165533
2930.694580078125	0.4719137364504665	-9.772395905041275	-2.293414461373184	0.2879563633272675	2.496420843344771	-0.7386295415985571	0.1824034334763948	-0.3794642857142857	0.6938775510204082
2950.225830078125	0.1851290431593342	-9.840235128815433	-2.186373703688522	-0.3787397078173582	0.6917292508827525	-0.7339165470968294	0.1974248927038627	-0.390625	0.6802721088435374
2969.757080078125	0.09090588454064635	-9.566565624501974	-1.947731311207492	-0.2917259644921555	-2.134249162195151	0.7349324327637631	0.2017167381974249	-0.3995535714285714	0.6938775510204082
2989.288330078125	0.3970705745487823	-9.468617170391955	-1.951955414061901	0.3465416396494207	-0.3652550877926586	0.010583383670915	0.2124463519313305	-0.390625	0.6848072562358277
3008.819580078125	0.09396852917914045	-9.788818473170581	-2.253995775056902	0.2775117309906307	2.116400403165388	-1.094750460059323	0.203862660944206	-0.3928571428571428	0.7074829931972789
3028.350830078125	0.4105515047437842	-10.21622672716865	-2.279640270296786	-0.06439613633587504	0.6529483261801876	-1.446666326851829	0.203862660944206	-0.3883928571428571	0.7006802721088435
3047.882080078125	0.05127315859751683	-9.687381418454665	-2.066091369955765	-0.05018190283435026	0.6707970852099504	-1.086848299556268	0.1824034334763948	-0.3928571428571428	0.7006802721088435
3067.413330078125	-0.01909320876663251	-9.60586967397294	-2.172311776397973	0.3427720384845327	-0.003083406643039275	0.006886274836121049	0.1995708154506438	-0.3705357142857142	0.6893424036281179
3086.944580078125	0.3407366558402607	-10.04381140696244	-2.441012522801585	0.6750994446324288	-0.3861872534654606	-0.3423483687885241	0.2296137339055794	-0.3950892857142857	0.6938775510204082
3106.475830078125	0.2974372412303326	-9.609034978472911	-2.192703714869991	0.6750994446324288	-0.3861872534654606	-0.3423483687885241	0.203862660944206	-0.3794642857142857	0.6938775510204082
3126.007080078125	0.1600480021350547	-9.627863106283979	-1.71908592779118	0.2812813321555186	1.754228722015769	-1.09105335122453	0.1909871244635193	-0.3794642857142857	0.7029478458049887
3145.538330078125	-0.01040422651523746	-9.605956563795456	-2.020801838272172	1.009468109629158	1.801608185818979	0.002173280334393381	0.2188841201716738	-0.375	0.6780045351473923
3165.069580078125	0.2947988415615507	-9.588806574274203	-1.928863747991806	0.6571156099660159	-0.04186433134560408	-0.7058635049188784	0.1909871244635193	-0.3995535714285714	0.6961451247165533
3184.600830078125	0.1547529796413575	-9.728820257069144	-2.209991841686775	-0.03219806816793752	0.3264741630900938	-0.7233331634259144	0.1952789699570815	-0.3727678571428571	0.6916099773242631
3204.132080078125	0.1752723771341597	-9.577510299528919	-2.221115264436382	-0.7235530051507248	-1.876086628581069	-1.434559114680513	0.2060085836909871	-0.3772321428571428	0.6916099773242631
3223.663330078125	0.103966610194219	-9.950534615596894	-2.23339571329945	0.02929263816107659	-1.430837965568715	0.374606462634736	0.1931330472103004	-0.3950892857142857	0.7006802721088435
3243.194580078125	0.5605065582568305	-9.753079813057317	-1.969023172621823	0.3360970073127839	-0.7452755279720408	-0.3455375347898513	0.203862660944206	-0.3727678571428571	0.6938775510204082
3262.725830078125	0.2680268400719866	-9.76025602597648	-2.312888088831316	-0.07193533866565094	1.377291688479426	-1.454060544521417	0.2060085836909871	-0.375	0.6802721088435374
3282.257080078125	-0.04123685842919014	-9.575345207173287	-1.998763136672822	0.2850509333204066	1.39205704086615	-1.087356242389735	0.1781115879828326	-0.375	0.6870748299319728
3301.788330078125	0.1103889121788658	-9.708174596192499	-1.855217748498823	0.7223759174599179	-2.161348141154031	0.3957732299765661	0.1931330472103004	-0.3705357142857142	0.6893424036281179
3321.319580078125	0.3982099753245808	-9.347416443187591	-2.065895491641761	0.3398666084776718	-1.10744720912166	-0.3418404259550573	0.2103004291845494	-0.3772321428571428	0.6689342403628118
3340.850830078125	0.3989089694175353	-9.670655756360844	-2.135794900937206	-0.7783686803079901	0.6234176214067407	-2.180074931115191	0.2060085836909871	-0.3839285714285714	0.6870748299319728
3360.382080078125	0.163456103391743	-9.415775975175334	-2.059896053460015	0.3703363343295553	1.499149595044726	1.071551921383626	0.1931330472103004	-0.390625	0.6870748299319728
3379.913330078125	0.2400629122389453	-9.628663255385016	-2.577719795323101	0.02638720815421566	-2.535201768047335	0.02587976184355767	0.203862660944206	-0.3816964285714285	0.6961451247165533
3399.444580078125	0.3914745401480036	-9.741288482775218	-2.412760137249342	1.010332280787186	0.3350727021907388	-0.342856311621991	0.2124463519313305	-0.3727678571428571	0.6825396825396826
3418.975830078125	0.1135828707365565	-9.980933808505347	-2.174613604267897	0.2206547969845316	2.045005367046337	-2.534022569241564	0.1802575107296137	-0.3816964285714285	0.6825396825396826
3438.507080078125	0.1116050810920409	-9.546570596265468	-1.976834639816332	0.3001293379799584	-0.05662968373232757	-1.07256780705056	0.2103004291845494	-0.3950892857142857	0.6870748299319728
3458.038330078125	0.2147475263742533	-9.699117172233441	-2.086997535384512	1.089806821782612	-1.766562348587926	1.118598450569014	0.2124463519313305	-0.3839285714285714	0.6780045351473923
3477.569580078125	0.4827481861201207	-9.81290828994201	-2.356451265073289	0.6864082481270926	-1.472702296914319	-0.3312570422841423	0.1952789699570815	-0.3705357142857142	0.673469387755102
3497.100830078125	0.2973180485959849	-9.578730756243539	-2.180784451435219	0.256622466317357	1.356359522806624	-1.806992296980856	0.1866952789699571	-0.3861607142857142	0.6825396825396826
3516.632080078125	0.2139151981479607	-9.658704808547139	-2.003764712755252	-0.789677483802654	1.709932664855599	-2.191166257619573	0.2103004291845494	-0.4017857142857142	0.6916099773242631
3536.163330078125	0.2553115710366082	-9.952048065205318	-2.061769348558784	-0.327693633824981	-1.445603317955438	0.007902160503054765	0.2017167381974249	-0.3861607142857142	0.6870748299319728
3555.694580078125	0.1129990288496668	-9.344564333722843	-2.116229415578926	1.028316115453598	-0.009250219929117825	0.02065882450836315	0.2081545064377682	-0.3772321428571428	0.6916099773242631
3575.225830078125	0.1133687280375589	-9.455679141825833	-2.153199334368136	1.381532786274768	0.367686813607225	0.3836660178052504	0.1759656652360515	-0.3928571428571428	0.6984126984126985
3594.757080078125	0.294754396850438	-9.851432392453354	-1.924419276880535	-0.01044463233663683	-0.3800204401793821	-0.3561209184607663	0.1995708154506438	-0.3816964285714285	0.6825396825396826
3614.288330078125	0.1639106515735776	-9.668305773182404	-2.105350871643469	-0.01711966350838571	-1.122212561508384	-0.7085447280867386	0.2103004291845494	-0.3727678571428571	0.7120181405895691
3633.819580078125	-0.03286909022629151	-9.545125854552284	-1.81513179369738	-0.0388730993396864	-0.4157179582389076	-1.075756973051887	0.1995708154506438	-0.3705357142857142	0.6961451247165533
3653.350830078125	0.3913250443015335	-9.660478907008674	-2.397810552602339	-0.7064333416423392	-0.7538740670726856	-0.7260143865937746	0.2017167381974249	-0.3816964285714285	0.6893424036281179
3672.882080078125	0.08457853262064945	-9.798825583306007	-2.335404282473108	-0.7310922074805007	-1.15174326628183	-1.441953332350101	0.2081545064377682	-0.3683035714285714	0.6961451247165533
3692.413330078125	0.08122497714578125	-9.596771845731055	-2.000048734986288	-0.01798383466641273	0.3443229221198566	-0.3635151361303542	0.1909871244635193	-0.3727678571428571	0.6893424036281179
3711.944580078125	0.504940320922074	-9.924241322401143	-2.534848418738008	0.3465416396494207	-0.3652550877926586	0.010583383670915	0.1931330472103004	-0.3883928571428571	0.6916099773242631
3731.475830078125	0.4839502135343053	-9.964435461731304	-2.476654006491757	1.028316115453598	-0.009250219929117825	0.02065882450836315	0.1909871244635193	-0.3973214285714285	0.6984126984126985
3751.007080078125	0.1697066871743634	-9.728969794144474	-1.664546268456749	-0.02465886583816162	-0.3978691992091449	-0.7159389457563266	0.2103004291845494	-0.3883928571428571	0.6961451247165533
3770.538330078125	0.3068898644272097	-9.366705262280638	-2.117557871292394	1.02164108428185	-0.7514423412581193	-0.3317649851176092	0.1952789699570815	-0.3705357142857142	0.6916099773242631
3790.069580078125	0.316314204626106	-9.750637889521011	-2.039583727916715	1.702551388928	1.071098010233662	0.02334004767622338	0.2060085836909871	-0.390625	0.6870748299319728
3809.600830078125	0.385331068943742	-9.771530078366206	-1.798413016823185	0.2850509333204066	1.39205704086615	-1.087356242389735	0.203862660944206	-0.3794642857142857	0.6893424036281179
3829.132080078125	-0.1200255397780583	-9.938193683996159	-2.283160307908457	0.2963597368150704	0.3055419974172918	-1.076264915885354	0.1888412017167382	-0.3772321428571428	0.7006802721088435
3848.663330078125	0.1545590390837748	-9.910636499481749	-2.190597785928501	0.6893136781339535	-0.3683384944356979	0.01746965850703605	0.2060085836909871	-0.3794642857142857	0.6893424036281179
3868.194580078125	0.4382285621687344	-9.701351982591385	-1.986121522995887	0.6600210399728769	1.062499471133017	-0.3571368041277	0.2167381974248927	-0.3794642857142857	0.6848072562358277
3887.725830078125	0.07378650744796657	-9.829020693357309	-2.276609928470126	-0.3448132973333667	-2.567815879463821	-0.7006425675836838	0.2081545064377682	-0.3727678571428571	0.6825396825396826
3907.257080078125	0.2363477384327509	-10.00236347738433	-2.206202414703666	0.3323274061478959	-0.3831038468224214	-0.3492346436246452	0.203862660944206	-0.3683035714285714	0.6802721088435374
3926.788330078125	0.4565762294594382	-9.802545560274394	-1.780071925535656	-0.327693633824981	-1.445603317955438	0.007902160503054765	0.2017167381974249	-0.3816964285714285	0.6825396825396826
3946.319580078125	0.6555479036028206	-9.875242347722898	-2.289484237833071	-0.03219806816793752	0.3264741630900938	-0.7233331634259144	0.1909871244635193	-0.3772321428571428	0.7074829931972789
3965.850830078125	0.2044302515248198	-9.678811979282926	-2.075678213706471	0.2963597368150704	0.3055419974172918	-1.076264915885354	0.1952789699570815	-0.3660714285714285	0.6984126984126985
3985.382080078125	0.4702389789271739	-9.843086228173114	-2.125938709043922	-0.4109377759852957	1.018203413972846	-1.457249710522744	0.2060085836909871	-0.3973214285714285	0.6984126984126985
4004.913330078125	0.2652955105526963	-9.416794369246944	-2.039755136902291	0.3143435714814832	-0.03878092470256481	-0.7127497797549994	0.2167381974248927	-0.3883928571428571	0.6893424036281179
4024.444580078125	0.1496135548654149	-9.243920377972898	-1.696049364092515	0.6637906411377649	0.7003277899833973	-0.353439695292906	0.1824034334763948	-0.3772321428571428	0.671201814058957
4043.975830078125	0.5150676956422077	-9.964746636552382	-2.527177727486073	-0.6750994446324288	0.3861872534654606	0.3423483687885241	0.184549356223176	-0.3839285714285714	0.6916099773242631
4063.507080078125	0.1969251147603361	-9.799949049127404	-2.345572700523402	-0.3845505678310801	-1.516998354074489	-1.431369948679186	0.1952789699570815	-0.3928571428571428	0.6984126984126985
4083.038330078125	-0.1291791712819953	-9.837092046671021	-2.38820532078006	0.32478820381812	0.3412395154768173	-0.3566288612942332	0.2017167381974249	-0.3727678571428571	0.673469387755102
4102.569580078125	0.3489286654128501	-9.720661003825848	-2.239805316795207	0.004633772322914974	-1.828707164777859	-0.3413324831215905	0.1952789699570815	-0.3772321428571428	0.6916099773242631
4122.100830078125	0.4881987651027122	-9.802861785630826	-1.881101000067143	0.6353621741347153	0.6646302719238718	-1.073075749884026	0.1995708154506438	-0.3816964285714285	0.6848072562358277
4141.632080078125	0.4162222870677978	-9.731434950143408	-1.826310339432847	0.6516176664850739	3.253378317060496	-0.01950142984090348	0.2060085836909871	-0.390625	0.6802721088435374
4161.163330078125	0.1322557925040397	-9.950817507419991	-2.001089454485604	0.6022999348087507	2.457639918642206	-1.451379321353556	0.1931330472103004	-0.3883928571428571	0.673469387755102
4180.694580078125	0.2378265351843193	-9.941772204745783	-2.354082089860505	0.6600210399728769	1.062499471133017	-0.3571368041277	0.1995708154506438	-0.3928571428571428	0.6802721088435374
4200.225830078125	-0.08955452619543175	-9.534457990091582	-2.269037176375192	0.3398666084776718	-1.10744720912166	-0.3418404259550573	0.2017167381974249	-0.3727678571428571	0.7006802721088435
4219.757080078125	0.5412336328893257	-9.793291124207682	-2.082546962401956	0.03015680931910361	-2.897373449196955	0.02957687067835163	0.2124463519313305	-0.3950892857142857	0.6802721088435374
4239.288330078125	0.3469710779097492	-9.488318195627585	-2.04404656648513	-0.3448132973333667	-2.567815879463821	-0.7006425675836838	0.1995708154506438	-0.375	0.6802721088435374
4258.819580078125	0.1820017516683125	-9.67858769428436	-1.873644554586355	0.6449426353133251	2.511186195731494	-0.3719252394668758	0.2060085836909871	-0.3950892857142857	0.6938775510204082
4278.350830078125	0.1637530748705416	-9.910728439839618	-2.089593201339872	0.9630558079596961	2.11023358987931	-1.080977910387081	0.2017167381974249	-0.3861607142857142	0.6802721088435374
4297.882080078125	0.0111353791190156	-9.808192161872	-2.133946075166866	0.6629264699797378	2.166863273611638	-0.008410103336521622	0.1888412017167382	-0.390625	0.6961451247165533
4317.413330078125	-0.06037442944921532	-9.504446760756016	-2.125822361200917	0.3758342778104973	-1.796093053361373	0.3851898463056511	0.1995708154506438	-0.375	0.6938775510204082
4336.944580078125	0.3385164404987667	-9.710455871475697	-2.218990988652179	-0.00667503117174888	-0.7421921213290015	-0.3524238096259723	0.1931330472103004	-0.3638392857142857	0.7074829931972789
4356.475830078125	0.1417245774140487	-9.567073811430708	-1.927559782221196	0.6780048746392896	0.7181765490131601	0.006378332002654191	0.1952789699570815	-0.375	0.6938775510204082
4376.007080078125	0.1535832756534367	-9.799515630736334	-2.093021442894685	-0.396723542483771	1.036052173002609	-1.097431683227184	0.1974248927038627	-0.3839285714285714	0.6893424036281179
4395.538330078125	0.1033342831679336	-9.738407080205418	-2.170163010670911	0.007539202329775903	-0.7243433622992387	0.007394217669587907	0.1888412017167382	-0.3772321428571428	0.6757369614512472
4415.069580078125	0.3781996717954333	-9.842165835101795	-2.105681465257623	0.3398666084776718	-1.10744720912166	-0.3418404259550573	0.1952789699570815	-0.4017857142857142	0.6984126984126985
4434.600830078125	0.05178831320359598	-9.535871418485572	-2.11760683056368	0.3105739703165952	0.3233907564470545	-0.7164468885897933	0.1974248927038627	-0.3794642857142857	0.7006802721088435
4454.132080078125	-0.1209588787114252	-9.392729805152282	-2.189826414571763	-0.01711966350838571	-1.122212561508384	-0.7085447280867386	0.2124463519313305	-0.3883928571428571	0.6825396825396826
4473.663330078125	0.2849724787484985	-9.881637603575365	-1.966635629951896	0.6968528804637294	-1.092681856734937	0.02486387617662396	0.203862660944206	-0.3794642857142857	0.6984126984126985
4493.194580078125	0.2340507549538804	-9.709411214620248	-1.976504066816609	0.6855440769690655	-0.00616681328607855	0.0137725496722421	0.2124463519313305	-0.3772321428571428	0.6848072562358277
4512.725830078125	0.2763057188526599	-9.750237804663277	-2.120367803633332	-0.785907882637766	1.347760983705979	-2.187469148784779	0.1995708154506438	-0.390625	0.6938775510204082
4532.257080078125	0.1654783377473714	-9.587513369236062	-2.262119489022851	-0.0388730993396864	-0.4157179582389076	-1.075756973051887	0.2103004291845494	-0.3816964285714285	0.6961451247165533
4551.788330078125	0.06571975115214947	-9.687525884380211	-2.490342462153722	0.6959887093057022	0.3738536268933035	0.3698934681330084	0.1952789699570815	-0.3705357142857142	0.7006802721088435
4571.319580078125	0.4214283789104096	-9.822396101970925	-2.346919523694013	0.3360970073127839	-0.7452755279720408	-0.3455375347898513	0.2124463519313305	-0.3861607142857142	0.6825396825396826
4590.850830078125	0.1624682186765559	-9.789503470065556	-1.961107581941307	0.3068043691517073	0.6855624375966739	-0.7201439974245873	0.1888412017167382	-0.3794642857142857	0.7210884353741497
4610.382080078125	0.1952422763804775	-9.688821109632494	-2.177288862537546	0.6675602423026528	0.3381561088337781	-0.3497425864581121	0.1931330472103004	-0.375	0.6938775510204082
4629.913330078125	0.4471417881898345	-9.570127983538466	-1.857035961840591	0.3030347679868193	1.047734118746293	-0.7238411062593813	0.1802575107296137	-0.3883928571428571	0.6984126984126985
4649.444580078125	0.1438357011919025	-9.718610074183639	-2.138672160006574	0.6600210399728769	1.062499471133017	-0.3571368041277	0.1974248927038627	-0.390625	0.6825396825396826
4668.975830078125	-0.09084948346012484	-9.564748070821967	-2.139541449905884	0.6675602423026528	0.3381561088337781	-0.3497425864581121	0.1974248927038627	-0.3727678571428571	0.6757369614512472
4688.507080078125	0.2641864129890201	-9.588500449988478	-1.928845380534662	-0.01711966350838571	-1.122212561508384	-0.7085447280867386	0.1888412017167382	-0.3772321428571428	0.6825396825396826
4708.038330078125	0.286368446720266	-9.851348532952052	-2.106232427128639	0.6817744758041775	0.3560048678635408	0.01007544083744814	0.2145922746781116	-0.3861607142857142	0.7006802721088435
4727.569580078125	0.1548580307767148	-9.567205145964333	-2.220496955222507	0	0	0	0.1995708154506438	-0.390625	0.6916099773242631
4747.100830078125	0.4586429085261793	-9.711657136155971	-1.986739832209762	0.329421976141035	-1.487467649301042	-0.6979613444158236	0.203862660944206	-0.3705357142857142	0.6961451247165533
4766.632080078125	0.2756511694708181	-9.669423178361376	-2.054912865449158	-1.026587773137544	-2.923820747327362	-0.710718008421132	0.1974248927038627	-0.3950892857142857	0.6916099773242631
4786.163330078125	0.1255466201113018	-9.54671001165566	-2.350580378477118	0.328557804983008	-0.02093216567280204	-0.3529317524594392	0.2060085836909871	-0.3950892857142857	0.6802721088435374
4805.694580078125	0.2766249126870148	-9.608826855187477	-2.152287187068825	1.034991146625347	0.7329419013998837	0.3730826341343355	0.1931330472103004	-0.3995535714285714	0.6916099773242631
4825.225830078125	0.1157707626517868	-9.587016293485107	-2.393402795790925	0.2537170363104961	0.2519957203280034	-2.155718997772034	0.1931330472103004	-0.3883928571428571	0.6825396825396826
4844.757080078125	0.2270971366500225	-9.739644708740238	-2.301550399696132	-0.3891843401539951	0.3117088107033704	-1.090037465557596	0.203862660944206	-0.3883928571428571	0.6802721088435374
4864.288330078125	0.1149202524982208	-10.02135122272701	-2.308351780434327	0.3059401979936803	2.152097921224914	-0.3751144054682029	0.2060085836909871	-0.3683035714285714	0.6848072562358277
4883.819580078125	0.102505995369924	-9.536378595307236	-2.08733423086995	0.32478820381812	0.3412395154768173	-0.3566288612942332	0.1909871244635193	-0.3861607142857142	0.7029478458049887
4903.350830078125	0.2450751047528343	-9.729723478320258	-2.05853088344669	0.9998876484505487	-0.04494773798864335	-0.6989772300827574	0.1995708154506438	-0.3928571428571428	0.671201814058957
4922.882080078125	0.09050386192649047	-9.233228270942499	-1.907529049791904	-0.3645254743158334	0.7095780099125152	-0.3740985198012692	0.203862660944206	-0.3973214285714285	0.6757369614512472
4942.413330078125	0.02254963024727644	-9.636589132666112	-2.254963024727644	-1.838018692771499	-0.5073934792022878	-3.269096511005853	0.2081545064377682	-0.3950892857142857	0.6938775510204082
4961.944580078125	0.366484408760091	-9.68043252085528	-1.954563324988691	-0.01044463233663683	-0.3800204401793821	-0.3561209184607663	0.2231759656652361	-0.3816964285714285	0.6916099773242631
4981.475830078125	0.3083161356110994	-9.891972050245	-2.260184989681367	-0.04177852934654733	-1.520081760717528	-1.424483673843065	0.1866952789699571	-0.3928571428571428	0.6757369614512472
5001.007080078125	0.684412846942965	-9.82502594665125	-2.1147540820516	-0.3532166708211696	-0.3769370335363428	-0.3630071932968873	0.203862660944206	-0.3995535714285714	0.6984126984126985
5020.538330078125	0.6618893970218077	-9.834901722253047	-1.903225416466496	-1.110696086455886	1.006521468229162	-1.830840287490546	0.1931330472103004	-0.3839285714285714	0.6870748299319728
5040.069580078125	0.4379598736879166	-9.590238184595465	-1.959252674914112	0.2775117309906307	2.116400403165388	-1.094750460059323	0.1931330472103004	-0.3816964285714285	0.6802721088435374
5059.600830078125	-0.3064253800901078	-9.602996352259705	-2.010523215479017	-0.002905430006860929	-1.104363802478621	-0.3487267007911783	0.1995708154506438	-0.375	0.6870748299319728
5079.132080078125	0.3173243116968494	-9.75064799059172	-2.140594434991059	-2.042730913938451	-5.467621054475343	-1.065315098381498	0.203862660944206	-0.3816964285714285	0.7097505668934241
5098.663330078125	0.6524509153239211	-9.764100266728999	-1.979785409943134	-0.3749701066524703	0.3295575697331331	-0.7302194382620355	0.1995708154506438	-0.3883928571428571	0.6916099773242631
5118.194580078125	0.2250870235792431	-9.588109456094379	-2.100539092618188	0.9990234772925217	1.421587745639597	-0.3539476381263729	0.1995708154506438	-0.3928571428571428	0.6870748299319728
5137.725830078125	0.1539206514150649	-9.688407893382839	-2.126759019057516	0.007539202329775903	-0.7243433622992387	0.007394217669587907	0.1995708154506438	-0.3861607142857142	0.6984126984126985
5157.257080078125	0.347857951917862	-9.619640195680798	-2.132733967296403	0.003769601164887951	-0.3621716811496193	0.003697108834793953	0.2103004291845494	-0.3616071428571428	0.6848072562358277
5176.788330078125	0.3672642114187049	-9.801652440093989	-2.032543590850084	2.319929728396303	2.08005120427739	-1.413250838338157	0.2081545064377682	-0.3883928571428571	0.673469387755102
5196.319580078125	-0.1415550443416039	-9.584443035415172	-2.171026178084507	0.64957640763624	0.6824790309536346	-0.7132577225884663	0.2124463519313305	-0.3816964285714285	0.6802721088435374
5215.850830078125	0.2671399660638739	-9.628934025923266	-2.224200688020043	0.05104607399237727	-2.137332568838191	0.7418187075998842	0.1931330472103004	-0.390625	0.671201814058957
5235.382080078125	0.2442124733144194	-9.638805761096783	-1.972267739605201	-1.772758385277597	-2.626877289010716	-2.167459776110409	0.2103004291845494	-0.3772321428571428	0.7006802721088435
5254.913330078125	0.3243163140693955	-9.952738112635645	-1.819386508980361	0.6629264699797378	2.166863273611638	-0.008410103336521622	0.1995708154506438	-0.3683035714285714	0.6916099773242631
5274.444580078125	-0.09141110299145819	-9.807166697050896	-2.083379496772549	1.381532786274768	0.367686813607225	0.3836660178052504	0.203862660944206	-0.3660714285714285	0.6825396825396826
5293.975830078125	0.5224657610571927	-9.833507485893401	-2.246576105719261	0.7290509486316669	-1.41915601982503	0.7481970396025384	0.1974248927038627	-0.3861607142857142	0.6870748299319728
5313.507080078125	0.7990442912766733	-9.593849028771354	-2.353408719504059	1.023682343130683	1.819456944848742	0.3619913076299536	0.1995708154506438	-0.3794642857142857	0.6916099773242631
5333.038330078125	0.2858472314717623	-9.487706957163205	-2.054110902278277	0.5512538608163734	4.594972487480396	-2.193198028953441	0.1974248927038627	-0.3883928571428571	0.7006802721088435
5352.569580078125	-0.3957293172742751	-9.783921494706048	-2.26380296645004	0.5721431254896471	5.35501336783916	-1.480956192031908	0.1995708154506438	-0.3772321428571428	0.6825396825396826
5372.100830078125	-0.1539167759022221	-9.523713357493504	-1.955261185287994	-0.3163848303303171	-2.532118361404296	0.01899348700743662	0.2017167381974249	-0.3794642857142857	0.6870748299319728
5391.632080078125	0.09287761354273753	-9.485777260983914	-2.144904211416611	0.652481837643101	1.786842833432255	-0.3645310217972879	0.1974248927038627	-0.3772321428571428	0.6848072562358277
5411.163330078125	0.1424336725777106	-9.738798074099517	-1.998469298587385	0.3503112408143086	-0.727426768942278	0.01428049250570896	0.184549356223176	-0.3705357142857142	0.7029478458049887
5430.694580078125	0.197783705770468	-9.547432382512252	-2.431431801536594	-0.6997583104705902	-0.01168194574368421	-0.3735905769678023	0.1931330472103004	-0.3861607142857142	0.6893424036281179
5450.225830078125	0.4790451335987752	-9.701760148305686	-1.986146012938745	1.046299950120011	-0.3535731420489744	0.3841739606387173	0.2060085836909871	-0.3772321428571428	0.6780045351473923
5469.757080078125	0.311144435409181	-9.892000333242981	-2.543014969489529	-0.3996289724906319	-0.06831162947601178	-1.446158384018362	0.2017167381974249	-0.3816964285714285	0.6961451247165533
5489.288330078125	0.3678480533055946	-9.932971409825988	-2.090927779539054	1.00569850846427	2.163779866968598	-0.001523828500400573	0.2081545064377682	-0.3861607142857142	0.7006802721088435
5508.819580078125	0.008882840351257738	-9.757664585979272	-1.90869219839108	-0.01421423350152478	-0.01784875902976276	-0.3598180272955602	0.1952789699570815	-0.390625	0.6757369614512472
5528.350830078125	-0.0419055493100223	-9.302611247537206	-1.931894048589606	-0.6733711023163745	-2.54688371379102	-0.3477108151242447	0.1759656652360515	-0.3883928571428571	0.6961451247165533
5547.882080078125	0.1715774054693802	-9.648180420519342	-1.851618097958433	1.02454651428871	0.3529214612205015	0.01696171567356919	0.2060085836909871	-0.3861607142857142	0.6802721088435374
5567.413330078125	0.1741875221401813	-9.789620663100191	-2.112629765038537	1.068053385951311	-1.06006774531845	0.7513862056038655	0.2017167381974249	-0.3683035714285714	0.7006802721088435
5586.944580078125	0.1444357047919241	-9.708515064118629	-2.198672520008734	0.6608852111309039	-0.4040360124952234	-0.7021663960840844	0.2081545064377682	-0.3816964285714285	0.6780045351473923
5606.475830078125	0.4604732225383664	-9.731877459498113	-2.169771233428473	0.325652374976147	-1.125295968151423	-0.7016584532506176	0.1974248927038627	-0.3928571428571428	0.6916099773242631
5626.007080078125	0.525259717214869	-9.944646536566088	-2.525971721486895	-0.02465886583816162	-0.3978691992091449	-0.7159389457563266	0.2103004291845494	-0.3660714285714285	0.6938775510204082
5645.538330078125	-0.07130988982594377	-9.463933365748208	-2.052684486793377	0.6817744758041775	0.3560048678635408	0.01007544083744814	0.1931330472103004	-0.3683035714285714	0.6643990929705216
5665.069580078125	0.3173041095554345	-9.548627586550102	-2.138574220849572	0.6901778492919806	-1.834873978063938	-0.3275599334493484	0.1974248927038627	-0.3883928571428571	0.6870748299319728
5684.600830078125	0.2669621872194231	-9.669336288538863	-2.206422803574958	-0.3825093089822462	1.053900932032372	-0.7376136559316233	0.2060085836909871	-0.375	0.7052154195011338
5704.132080078125	-0.1836887953918942	-9.74563785952083	-2.039283726116705	-1.148705014637545	-0.8757319736379857	-3.251626852498817	0.2210300429184549	-0.3883928571428571	0.6666666666666666
5723.663330078125	-0.02967917209688374	-9.474450683026507	-2.134123606638156	1.39661119093432	-1.080999910991252	0.3984544531444263	0.2081545064377682	-0.3839285714285714	0.7120181405895691
5743.194580078125	0.3154616742583985	-9.508205121793091	-1.954330691145969	0.6855440769690655	-0.00616681328607855	0.0137725496722421	0.1952789699570815	-0.3883928571428571	0.6825396825396826
5762.725830078125	0.5519892942074618	-9.702489589911774	-2.137704930950262	0.6315925729698273	1.026801953073491	-1.07677285871882	0.2081545064377682	-0.3883928571428571	0.6961451247165533
5782.257080078125	-0.1746866799485687	-9.594212729160112	-1.91908710718395	-0.07570493983053889	1.739463369629046	-1.457757653356211	0.2124463519313305	-0.3861607142857142	0.6893424036281179
5801.788330078125	0.1134899408860481	-9.65770055597452	-2.165320619217057	0.328557804983008	-0.02093216567280204	-0.3529317524594392	0.2145922746781116	-0.3727678571428571	0.6802721088435374
5821.319580078125	0.2261254136479674	-9.466907718782947	-2.204378099490613	-1.370223982780104	-1.454201857056083	-0.3725746913008686	0.2167381974248927	-0.3861607142857142	0.6870748299319728
5840.850830078125	0.2142667154085794	-9.739516404527825	-2.038916438817124	-0.7679240479713533	1.003438061586123	-1.823954012654425	0.2081545064377682	-0.3839285714285714	0.6916099773242631
5860.382080078125	0.3987150288599526	-9.852471998773449	-2.116400845178932	0.6846799058110384	1.460368670342161	0.3588021416286265	0.1888412017167382	-0.3839285714285714	0.6893424036281179
5879.913330078125	0.06259245966112779	-9.52587844984914	-2.177613313051554	0.02175343583130069	-0.7064946032694759	0.3672122449651481	0.2103004291845494	-0.3794642857142857	0.6938775510204082
5899.444580078125	0.5590560445032429	-9.692459247313721	-1.823971797263066	-0.06235487748704113	3.223847612287049	-0.752910034104266	0.1931330472103004	-0.3861607142857142	0.7074829931972789
5918.975830078125	0.1218556888748053	-9.960814516484708	-1.981487254827467	0.2783759021486577	0.6498649195371483	-1.439780052015708	0.2103004291845494	-0.3883928571428571	0.6825396825396826
5938.507080078125	-0.1723957571121225	-9.877063921216759	-2.148179390828561	0.3578504431440845	-1.451770131241517	0.02167471017529686	0.203862660944206	-0.390625	0.6961451247165533
5958.038330078125	0.4585540191039538	-9.731858267463769	-1.97785088998722	0.3900485113120221	-1.77824429433161	0.7450078736012112	0.1909871244635193	-0.3816964285714285	0.673469387755102
5977.569580078125	0.4706571632544617	-9.529959096885072	-2.167757141772701	0.3323274061478959	-0.3831038468224214	-0.3492346436246452	0.2103004291845494	-0.3839285714285714	0.6848072562358277
5997.100830078125	0.1546721710756981	-9.930839651003689	-2.201910985120827	0.2812813321555186	1.754228722015769	-1.09105335122453	0.2103004291845494	-0.3794642857142857	0.7029478458049887
6016.632080078125	0.1346073217647304	-9.829628901500476	-2.236242380554675	-0.4811447723348926	-0.5375758648042077	-3.60136943895693	0.2081545064377682	-0.3861607142857142	0.6825396825396826
6036.163330078125	0.07085517672866912	-9.657274208332945	-1.983476856540381	1.695012186598224	1.7954413725329	0.01594583000663547	0.2188841201716738	-0.3816964285714285	0.7006802721088435
6055.694580078125	0.1240678233597334	-9.607301284294206	-2.202700703320279	0.2018067911600918	3.855863772794434	-2.552508113415534	0.2103004291845494	-0.3772321428571428	0.6802721088435374
6075.225830078125	0.1522721566756117	-9.466169186213223	-1.961909545112188	1.034991146625347	0.7329419013998837	0.3730826341343355	0.1995708154506438	-0.3883928571428571	0.6938775510204082
6094.757080078125	0.727429431573085	-9.956769243810681	-2.334779892002378	0.3218827738112591	-0.7631242870018035	-0.7053555620854115	0.2017167381974249	-0.4040178571428571	0.6825396825396826
6114.288330078125	0.1426296333494348	-9.728699023606223	-2.018065375759808	0.3050760268356532	3.618633404853154	-0.03008481351181848	0.1931330472103004	-0.3772321428571428	0.6938775510204082
6133.819580078125	0.02876385017535008	-9.889176527390642	-1.855976854269701	0.3030347679868193	1.047734118746293	-0.7238411062593813	0.1909871244635193	-0.3683035714285714	0.7006802721088435
6153.350830078125	0.1754420751220446	-9.86034027933708	-2.238085063224871	0.6353621741347153	0.6646302719238718	-1.073075749884026	0.2145922746781116	-0.3883928571428571	0.6961451247165533
6172.882080078125	0.1537206502150577	-9.355072560037506	-2.106758899056796	0.6893136781339535	-0.3683384944356979	0.01746965850703605	0.203862660944206	-0.3705357142857142	0.6848072562358277
6192.413330078125	0.4154869291202967	-9.852639717776054	-1.752774544682725	-0.6959887093057022	-0.3738536268933035	-0.3698934681330084	0.1995708154506438	-0.3928571428571428	0.6938775510204082
6211.944580078125	0.06148134188331002	-9.525867338671361	-2.066501535269777	-0.2821455033135457	-0.287693238387529	1.436082943180914	0.1931330472103004	-0.390625	0.6984126984126985
6231.475830078125	0.05151154386621228	-9.747989862913411	-2.08992989682531	-0.3636613031578064	-0.7569574737157249	-0.7191281117576536	0.2060085836909871	-0.390625	0.6984126984126985
6251.007080078125	0.122900139585954	-9.849713849880709	-2.085932325942338	-0.03510349817479845	-0.777889639388527	-1.072059864217093	0.2081545064377682	-0.3705357142857142	0.6984126984126985
6270.538330078125	0.2362002628004224	-9.588220588486591	-2.191454851470812	0.325652374976147	-1.125295968151423	-0.7016584532506176	0.1952789699570815	-0.3638392857142857	0.671201814058957
6290.069580078125	0.407745427301259	-9.579835030030591	-1.99903252604426	0.6997583104705902	0.01168194574368421	0.3735905769678023	0.1781115879828326	-0.4040178571428571	0.6984126984126985
6309.600830078125	0.3671914837096114	-9.680439591604776	-2.025270819940731	0.6571156099660159	-0.04186433134560408	-0.7058635049188784	0.203862660944206	-0.3794642857142857	0.7006802721088435
6329.132080078125	0.1866341026947419	-9.486714825875433	-2.336879657229294	0.3323274061478959	-0.3831038468224214	-0.3492346436246452	0.2188841201716738	-0.3861607142857142	0.7006802721088435
6348.663330078125	0.192543270287451	-9.567581998359442	-1.9073882532349	-0.01798383466641273	0.3443229221198566	-0.3635151361303542	0.1974248927038627	-0.3839285714285714	0.6984126984126985
6368.194580078125	0.1530095348372544	-10.02173211555039	-2.035647361276458	1.013237710794046	1.43943650466936	0.005870389169187333	0.2017167381974249	-0.3861607142857142	0.7006802721088435
6387.725830078125	0.3058070296473727	-9.750532817771223	-2.009274393308698	-0.007539202329775903	0.7243433622992387	-0.007394217669587907	0.2017167381974249	-0.3727678571428571	0.6984126984126985
6407.257080078125	0.4897583704199401	-9.540251119057736	-2.037061531789929	0.328557804983008	-0.02093216567280204	-0.3529317524594392	0.2017167381974249	-0.3883928571428571	0.7006802721088435
6426.788330078125	0.5274052258619879	-9.81335486033943	-1.720114422933497	1.359779350443467	1.074181416876701	0.01645377284010233	0.2145922746781116	-0.3772321428571428	0.6848072562358277
6446.319580078125	0.1725875125401237	-9.648190521590049	-1.952628805032777	0.2859151044784336	-0.07447844276209033	-1.43238583434612	0.1974248927038627	-0.3816964285714285	0.6870748299319728
6465.850830078125	0.3754946050599824	-9.71082565312131	-1.835174791712531	0.9601503779528353	1.005869787400689	-1.42970461117826	0.2210300429184549	-0.3772321428571428	0.6938775510204082
6485.382080078125	0.1241183287132706	-9.354776536822488	-2.207751238673996	0.2850509333204066	1.39205704086615	-1.087356242389735	0.1909871244635193	-0.3883928571428571	0.6938775510204082
6504.913330078125	0.1546964136453959	-9.466193428782921	-2.204335242090612	-0.02465886583816162	-0.3978691992091449	-0.7159389457563266	0.2124463519313305	-0.3839285714285714	0.6780045351473923
6524.444580078125	0.1948988399764247	-9.789827776278555	-2.142945222132269	0.6817744758041775	0.3560048678635408	0.01007544083744814	0.2081545064377682	-0.3995535714285714	0.7029478458049887
6543.975830078125	0.03294771366236939	-9.959925436732584	-2.274363202971632	0.9848092437909969	1.403738986609834	-0.7137656654219331	0.1995708154506438	-0.3772321428571428	0.6893424036281179
6563.507080078125	0.1542014611807316	-9.819723832793628	-2.154839995624183	0.3038989391448463	-0.4188013648819469	-1.068870698215766	0.2103004291845494	-0.390625	0.6870748299319728
6583.038330078125	0.1521186204008587	-9.546975731658556	-1.946555917636887	1.006562679622298	0.6972443833403581	-0.346553420456785	0.2167381974248927	-0.3683035714285714	0.6893424036281179
6602.569580078125	0.4386245241404658	-10.02458826544343	-2.02571772016903	0.6391317752996032	0.3024585907742525	-1.069378641049233	0.2060085836909871	-0.3794642857142857	0.6689342403628118
6622.100830078125	0.3060797585564735	-9.700030494555262	-2.03654728421877	0.6713298434675408	-0.02401557231584131	-0.3460454776233181	0.2103004291845494	-0.3839285714285714	0.6825396825396826
6641.632080078125	0.3798320048217547	-9.700768017017916	-2.268914767889762	-0.7461706121400526	0.2969434583166468	-1.456741767689277	0.2103004291845494	-0.3794642857142857	0.6757369614512472
6661.163330078125	0.2453862177306232	-9.911544771268218	-2.089642181225588	0.3787397078173582	-0.6917292508827525	0.7339165470968294	0.203862660944206	-0.40625	0.6916099773242631
6680.694580078125	0.4666187551856295	-9.701635884521556	-1.763916334889475	-0.3456774684913937	-1.101280395835581	-0.3556129756272994	0.1995708154506438	-0.3839285714285714	0.673469387755102
6700.225830078125	0.2792410900002402	-9.760368168475761	-2.413904918391374	-0.02842846700304957	-0.03569751805952553	-0.7196360545911205	0.2060085836909871	-0.390625	0.6757369614512472
6719.757080078125	0.3993756388842188	-9.943387695782784	-2.182461847605553	-0.05308733284121119	-0.4335667172686704	-1.435575000347447	0.1909871244635193	-0.3660714285714285	0.6757369614512472
6739.288330078125	0.07226124577114398	-9.475470087205188	-2.124083760787867	-0.4100736048272687	-0.4483320696553939	-1.802279302479128	0.2124463519313305	-0.3794642857142857	0.6916099773242631
6758.819580078125	0.1833431738582598	-9.557388987294138	-2.007786773581083	0.01217297465269088	-2.553050527077098	-0.3339382654520026	0.203862660944206	-0.3772321428571428	0.6961451247165533
6778.350830078125	0.1554984386595662	-9.456100438932051	-2.284537743507641	0.3540808419791966	-1.089598450091897	0.01797760134050291	0.2167381974248927	-0.3772321428571428	0.6938775510204082
6797.882080078125	0.399272607963003	-9.266618988705895	-2.17215875548397	0.3181131726463711	-0.4009526058521842	-0.7090526709202054	0.2103004291845494	-0.3861607142857142	0.6848072562358277
6817.413330078125	0.3792784661469873	-10.12500490587359	-2.213560900413022	-0.3996289724906319	-0.06831162947601178	-1.446158384018362	0.2210300429184549	-0.375	0.6893424036281179
6836.944580078125	0.3682682578470239	-9.79156147045726	-2.132948233681981	0.647848065320186	3.615549998210115	-0.02319853867569743	0.2017167381974249	-0.3950892857142857	0.6984126984126985
6856.475830078125	0.1346517664758431	-10.07205358837183	-2.240686851665946	0.3030347679868193	1.047734118746293	-0.7238411062593813	0.2017167381974249	-0.3727678571428571	0.6893424036281179
6876.007080078125	0.07258448003378187	-9.677493521568016	-2.156407187051657	-0.009580461178609809	-1.846555923807622	-0.7011505104171507	0.2124463519313305	-0.375	0.7097505668934241
6895.538330078125	0.2373538050752114	-9.65893919461641	-2.306809078949712	0.01130880349466385	-1.086515043448858	0.01109132650438186	0.1952789699570815	-0.3950892857142857	0.6780045351473923
6915.069580078125	0.5924826313748648	-9.500874321263245	-2.10540599462933	0.3360970073127839	-0.7452755279720408	-0.3455375347898513	0.2145922746781116	-0.3660714285714285	0.6825396825396826
6934.600830078125	0.1211789171374072	-9.506262294221882	-1.913810081087656	0.652481837643101	1.786842833432255	-0.3645310217972879	0.2124463519313305	-0.3861607142857142	0.6689342403628118
6954.132080078125	0.4967907770753159	-9.641331544134392	-1.719894034062205	-0.04264270050457435	-0.05354627708928829	-1.079454081886681	0.2188841201716738	-0.3883928571428571	0.6780045351473923
6973.663330078125	0.2630369111425141	-9.861216227697286	-1.813895195884059	0.9923484461207727	0.6793956243105954	-0.7063714477523452	0.2081545064377682	-0.3861607142857142	0.6780045351473923
6993.194580078125	-0.0513581725068994	-9.544940963729477	-2.007039892167203	-0.3636613031578064	-0.7569574737157249	-0.7191281117576536	0.203862660944206	-0.3816964285714285	0.6893424036281179
7012.725830078125	0.1740299454371453	-9.526992824706898	-2.096872094734939	0.6817744758041775	0.3560048678635408	0.01007544083744814	0.2060085836909871	-0.3772321428571428	0.6848072562358277
7032.257080078125	0.4381497738172164	-9.570038063394739	-1.978242687844088	-0.3665667331646674	-1.861321276194346	-1.067854812548832	0.1931330472103004	-0.3816964285714285	0.6916099773242631
7051.788330078125	0.2663318804072791	-9.628925945066701	-2.143392122360568	-0.002905430006860929	-1.104363802478621	-0.3487267007911783	0.2017167381974249	-0.3839285714285714	0.6961451247165533
7071.319580078125	0.003775697772718903	-9.666704423644394	-2.418386103802502	0.01130880349466385	-1.086515043448858	0.01109132650438186	0.1974248927038627	-0.3705357142857142	0.6666666666666666
7090.850830078125	-0.06080069463306904	-9.130705124366804	-2.083195842815543	-0.03219806816793752	0.3264741630900938	-0.7233331634259144	0.1866952789699571	-0.3772321428571428	0.6870748299319728
7110.382080078125	0.1921190253177388	-9.870608058940048	-1.864963756263676	0.6420372053064641	1.406822393252873	-0.7206519402580541	0.2081545064377682	-0.3883928571428571	0.6870748299319728
7129.913330078125	-0.3037950612778919	-9.441406493831668	-2.273555096700607	0.3360970073127839	-0.7452755279720408	-0.3455375347898513	0.2060085836909871	-0.3861607142857142	0.6938775510204082
7149.444580078125	0.4089009897901895	-9.822270828079722	-2.114588774937309	0.3653896454738604	-2.176113493540755	0.02906892784488477	0.2081545064377682	-0.3861607142857142	0.6870748299319728
7168.975830078125	0.3166354186746024	-9.780944131964526	-2.071705132766357	-0.03219806816793752	0.3264741630900938	-0.7233331634259144	0.2103004291845494	-0.3616071428571428	0.671201814058957
7188.507080078125	0.1410781088887729	-9.668077447755556	-1.862912929693616	-0.3674309043226944	-0.3947857925661056	-0.7228252205924476	0.1931330472103004	-0.3861607142857142	0.6916099773242631
7208.038330078125	0.3972988587467703	-9.680740665355147	-1.974783833860703	-0.3598917019929185	-1.119129154865344	-0.7154310029228597	0.203862660944206	-0.3816964285714285	0.6893424036281179
7227.569580078125	0.6028423307212694	-10.09693751421631	-2.120967766004493	0.2670670986539939	1.736379962986007	-1.45087137852009	0.1909871244635193	-0.4040178571428571	0.7006802721088435
7247.100830078125	-0.01721440961504973	-9.706898562974558	-2.360191691556252	0.9337631697986196	3.541071555448025	-1.455584373021817	0.2060085836909871	-0.3794642857142857	0.6825396825396826
7266.632080078125	0.01319195711504923	-9.868818788258022	-2.339603874770229	0.6646548122957918	-0.7662076936448428	-0.6984692872492905	0.203862660944206	-0.3995535714285714	0.6802721088435374
7286.163330078125	0.3171869371352282	-9.690040556240042	-2.126856978828948	0.05104607399237727	-2.137332568838191	0.7418187075998842	0.1974248927038627	-0.3794642857142857	0.6848072562358277
7305.694580078125	0.508708061524807	-9.803066878595049	-1.891214315746006	-0.01335006234349776	-1.484384242658003	-0.7048476192519446	0.1909871244635193	-0.3861607142857142	0.7006802721088435
7325.225830078125	0.3046454065160177	-9.497995949014657	-1.893112080173203	0.6382676041415761	1.768994074402493	-0.7243490490928481	0.2103004291845494	-0.3839285714285714	0.6893424036281179
7344.757080078125	0.2149232850045626	-9.486997717698534	-2.104573398415448	-0.002905430006860929	-1.104363802478621	-0.3487267007911783	0.2060085836909871	-0.3928571428571428	0.6916099773242631
7364.288330078125	0.3597570544400797	-9.751072318019149	-2.302236056252867	0.3390024373196448	0.35908827450658	0.003189166001327095	0.1995708154506438	-0.390625	0.6916099773242631
7383.819580078125	-0.08823330614689934	-9.716289384110251	-2.401159181228433	0.9885788449558849	1.041567305460215	-0.7100685565871392	0.184549356223176	-0.3883928571428571	0.6893424036281179
7403.350830078125	-0.03982270853014934	-9.575359348672277	-2.140178126576902	0.6637906411377649	0.7003277899833973	-0.353439695292906	0.1866952789699571	-0.3794642857142857	0.7006802721088435
7422.882080078125	0.1241769149233737	-9.789120557028024	-2.213609859684308	-0.327693633824981	-1.445603317955438	0.007902160503054765	0.2081545064377682	-0.3883928571428571	0.7029478458049887
7442.413330078125	0.5699995857365373	-9.914790904948276	-1.8979177573272	-0.03596766933282547	0.6886458442397132	-0.7270302722607084	0.203862660944206	-0.3883928571428571	0.7052154195011338
7461.944580078125	0.4083858351841103	-9.468730322998308	-2.063073314329394	0.5956249036370018	1.715447797313204	-1.803803130979529	0.203862660944206	-0.3816964285714285	0.6938775510204082
7481.475830078125	-0.3554662845190016	-9.198465539175013	-2.208473588916158	-0.02465886583816162	-0.3978691992091449	-0.7159389457563266	0.1952789699570815	-0.3816964285714285	0.7029478458049887
7501.007080078125	0.1962200600249571	-9.971659170297222	-2.27506722698551	-0.3494470696562816	-0.7391087146859622	-0.3593100844620934	0.2124463519313305	-0.3794642857142857	0.6893424036281179
7520.538330078125	0.2781340126507054	-9.598740936086106	-2.303197183437894	-0.4109377759852957	1.018203413972846	-1.457249710522744	0.1974248927038627	-0.3839285714285714	0.6984126984126985
7540.069580078125	0.1942139873824607	-9.658507796439483	-2.074459962735864	0.2708366998188818	1.374208281836387	-1.447174269685296	0.2103004291845494	-0.3683035714285714	0.6916099773242631
7559.600830078125	-0.009048662826299771	-9.676677190139415	-2.156358207165941	0.3352328361547569	0.7212599556561994	-0.000507942833466858	0.2060085836909871	-0.4084821428571428	0.6893424036281179
7579.132080078125	0.388555330713555	-9.589744139165722	-2.120839193804489	0.3578504431440845	-1.451770131241517	0.02167471017529686	0.2145922746781116	-0.3861607142857142	0.6938775510204082
7598.663330078125	0.336015415391606	-9.750834901628664	-1.968888477936104	-0.00667503117174888	-0.7421921213290015	-0.3524238096259723	0.1974248927038627	-0.3861607142857142	0.6916099773242631
7618.194580078125	0.3971473426861588	-9.428213897669288	-1.959632227799551	-0.03596766933282547	0.6886458442397132	-0.7270302722607084	0.1952789699570815	-0.375	0.671201814058957
7637.725830078125	0.2339840878872113	-9.59829943683847	-1.969837360149702	-0.05685693400609913	-0.07139503611905106	-1.439272109182241	0.2081545064377682	-0.3883928571428571	0.6825396825396826
7657.257080078125	0.1717875077400949	-9.830000703360231	-1.872628325029897	0.3540808419791966	-1.089598450091897	0.01797760134050291	0.1888412017167382	-0.3794642857142857	0.6916099773242631
7676.788330078125	0.6229960694544625	-9.672896627361212	-2.095525312793188	0.6704656723095137	1.442519911312399	-0.001015885666933716	0.2060085836909871	-0.3683035714285714	0.6757369614512472
7696.319580078125	0.4368123920555521	-9.529620649173083	-1.844504511677658	0.6382676041415761	1.768994074402493	-0.7243490490928481	0.2017167381974249	-0.390625	0.6893424036281179
7715.850830078125	0.1338517616758143	-9.748813265091506	-2.160686371663066	0.328557804983008	-0.02093216567280204	-0.3529317524594392	0.1952789699570815	-0.3861607142857142	0.671201814058957
7735.382080078125	0.1839108540320176	-9.830121936823149	-2.064554790956864	0.06235487748704113	-3.223847612287049	0.752910034104266	0.1952789699570815	-0.3705357142857142	0.6893424036281179
7754.913330078125	0.600678681375737	-9.521158301965274	-1.90460283145125	0.004633772322914974	-1.828707164777859	-0.3413324831215905	0.1974248927038627	-0.3683035714285714	0.6870748299319728
7774.444580078125	0.3772946158600473	-9.680540622926278	-2.015175871719011	0.6043411936575847	5.028539204749066	-0.7576230286059937	0.2124463519313305	-0.3794642857142857	0.6938775510204082
7793.975830078125	-0.1826463648948869	-9.967870506048023	-2.143526775817427	0.9952538761276337	1.783759426789216	-0.3576447469611668	0.1802575107296137	-0.3816964285714285	0.6802721088435374
7813.507080078125	0.009993958129075515	-9.757675697157049	-2.019803976172858	-0.3456774684913937	-1.101280395835581	-0.3556129756272994	0.1866952789699571	-0.3861607142857142	0.6893424036281179
7833.038330078125	0.3800582688056013	-9.741174320061795	-2.291541166274415	-0.7206475751438639	-0.7717228261024484	-1.085832413889335	0.203862660944206	-0.3995535714285714	0.7006802721088435
7852.569580078125	0.2366245077701346	-9.79024503295649	-2.233879348442036	0.3323274061478959	-0.3831038468224214	-0.3492346436246452	0.2060085836909871	-0.375	0.6916099773242631
7872.100830078125	0.2340103506710506	-9.305370406537016	-1.972463638533635	0.02175343583130069	-0.7064946032694759	0.3672122449651481	0.1931330472103004	-0.3772321428571428	0.6848072562358277
7891.632080078125	0.447903408921175	-9.661044690654871	-1.933198034974646	-0.01711966350838571	-1.122212561508384	-0.7085447280867386	0.2188841201716738	-0.375	0.6848072562358277
7911.163330078125	0.3651227844287288	-9.599610823803886	-1.818400891852476	-0.4402304141463723	2.449041379541561	-1.83185617315748	0.2145922746781116	-0.4040178571428571	0.6802721088435374
7930.694580078125	0.07409357999747257	-9.667407602466643	-2.307317183420726	0.64957640763624	0.6824790309536346	-0.7132577225884663	0.1888412017167382	-0.3995535714285714	0.6893424036281179
7950.225830078125	0.2786734098264825	-9.992685723997257	-2.357136901015593	0.01507840465955181	-1.448686724598477	0.01478843533917581	0.1909871244635193	-0.3928571428571428	0.6643990929705216
7969.757080078125	0.5999312021433868	-9.622160928183053	-1.829854908216236	-0.3532166708211696	-0.3769370335363428	-0.3630071932968873	0.1909871244635193	-0.3883928571428571	0.6848072562358277
7989.288330078125	0.2450730845386928	-10.06305679145145	-2.058328862032542	-0.4071681748204078	0.6560317328232269	-1.45355260168795	0.1952789699570815	-0.3950892857142857	0.6893424036281179
8008.819580078125	0.1141162072699091	-9.859727020658561	-2.22794725760315	1.00279307845741	1.059416064489977	-0.350250529291579	0.2124463519313305	-0.3794642857142857	0.6961451247165533
8028.350830078125	0.5918684862758528	-9.824100503044578	-2.043991484728129	0.6922191081408143	0.7360253080429229	0.3661963592982144	0.1974248927038627	-0.3950892857142857	0.6984126984126985
8047.882080078125	0.3369568351815388	-9.468016032998282	-2.063030456929392	0.3352328361547569	0.7212599556561994	-0.000507942833466858	0.2017167381974249	-0.3928571428571428	0.6961451247165533
8067.413330078125	-0.1432439433638869	-9.463214025212828	-2.002136275856204	-0.3891843401539951	0.3117088107033704	-1.090037465557596	0.2060085836909871	-0.3705357142857142	0.6938775510204082
8086.944580078125	0.3863815802973152	-9.670530482469641	-1.903464152180502	-1.012373539636019	-2.9059719882976	-0.3508999811255717	0.2188841201716738	-0.3772321428571428	0.6802721088435374
8106.475830078125	0.3281708826513524	-9.811362516907323	-2.204843367176056	0.6893136781339535	-0.3683384944356979	0.01746965850703605	0.1909871244635193	-0.3928571428571428	0.6870748299319728
8126.007080078125	0.3771006753024645	-9.862356865338885	-1.995781815960737	-0.0539515039992382	1.03296876635957	-1.090545408391063	0.2188841201716738	-0.3839285714285714	0.7142857142857143
8145.538330078125	0.4114383787518969	-9.84249822217136	-2.36832767110806	0.2859151044784336	-0.07447844276209033	-1.43238583434612	0.1931330472103004	-0.3883928571428571	0.6870748299319728
8165.069580078125	0.3572701708319094	-9.983370681506299	-2.053547695435832	0.3038989391448463	-0.4188013648819469	-1.068870698215766	0.1931330472103004	-0.3883928571428571	0.6916099773242631
8184.600830078125	0.1227223607415031	-9.890116112496305	-2.068154441497253	0.007539202329775903	-0.7243433622992387	0.007394217669587907	0.2103004291845494	-0.3816964285714285	0.6757369614512472
8204.132080078125	0.1854179337815668	-9.648318825802463	-2.215262765911784	0.3068043691517073	0.6855624375966739	-0.7201439974245873	0.1931330472103004	-0.3816964285714285	0.673469387755102
8223.663330078125	0.06791374493866424	-9.637042773813025	-1.689333677539893	0.3105739703165952	0.3233907564470545	-0.7164468885897933	0.2081545064377682	-0.3950892857142857	0.6825396825396826
8243.194580078125	0.2546873248668888	-9.921738792440589	-1.99934473158684	0.7110671139652541	-1.074833097705174	0.3846819034721842	0.2017167381974249	-0.3772321428571428	0.6780045351473923
8262.725830078125	0.357397444322823	-9.690442661311918	-2.0662750445272	0.645806806471352	1.044650712103254	-0.7169548314232602	0.2167381974248927	-0.3928571428571428	0.7074829931972789
8282.257080078125	0.1610884124179204	-9.678378560891858	-1.823126956077754	-0.02842846700304957	-0.03569751805952553	-0.7196360545911205	0.1888412017167382	-0.3950892857142857	0.6916099773242631
8301.788330078125	0.3583671471107368	-9.791462459349896	-2.16324532331857	0.3494470696562816	0.7391087146859622	0.3593100844620934	0.2103004291845494	-0.3883928571428571	0.6870748299319728
8321.319580078125	0.166306625545381	-9.789541854134244	-2.344948268823813	0.02552303699618864	-1.068666284419095	0.3709093537999421	0.1974248927038627	-0.3794642857142857	0.6802721088435374
8340.850830078125	0.4770875460956744	-9.469417340107423	-1.790387262628668	0.656251438807989	1.424671152282636	-0.360833912962494	0.203862660944206	-0.3861607142857142	0.6825396825396826
8360.382080078125	0.3893896791539891	-9.80187369477134	-2.204274037847897	-0.04727647282748933	1.775160887688571	-0.7381215987650902	0.2188841201716738	-0.3883928571428571	0.6984126984126985
8379.913330078125	0.0002888081645125663	-9.747477635556395	-2.069697142981869	-0.00667503117174888	-0.7421921213290015	-0.3524238096259723	0.1866952789699571	-0.3683035714285714	0.7052154195011338
8399.444580078125	0.3481630042532265	-9.791360417921322	-2.163239200832855	-0.713108372814088	-1.496066188401687	-1.078438196219747	0.2060085836909871	-0.3973214285714285	0.6870748299319728
8418.975830078125	0.3155485434664824	-9.821337303616486	-1.963017611954363	-0.01798383466641273	0.3443229221198566	-0.3635151361303542	0.2060085836909871	-0.4084821428571428	0.6870748299319728
8438.507080078125	0.06152578659442273	-9.768292025542715	-2.070946006381048	0.3616200443089725	-1.813941812391136	0.02537181901009081	0.2103004291845494	-0.3950892857142857	0.6916099773242631
8458.038330078125	0.4280830055213273	-9.630543456317842	-1.991974021520485	-0.02002509351524664	-2.226576363987004	-1.057271428877917	0.184549356223176	-0.3705357142857142	0.7029478458049887
8477.569580078125	0.244576111859887	-9.739819498492338	-2.008631594151965	0.6420372053064641	1.406822393252873	-0.7206519402580541	0.2145922746781116	-0.3772321428571428	0.6893424036281179
8497.100830078125	-0.0205881672313328	-9.302824421357991	-2.022815929927944	0.6382676041415761	1.768994074402493	-0.7243490490928481	0.2017167381974249	-0.3772321428571428	0.6938775510204082
8516.632080078125	-0.09865765234583161	-9.685882110345231	-2.379132724600512	0.6997583104705902	0.01168194574368421	0.3735905769678023	0.1952789699570815	-0.3883928571428571	0.6870748299319728
8536.163330078125	0.3499609948391498	-9.589358195806978	-2.343038259425187	0.7081616839583932	-2.179196900183794	0.03595520268100581	0.1952789699570815	-0.3816964285714285	0.6802721088435374
8555.694580078125	0.8635803206284914	-9.554090348660832	-1.664154511828741	0.9914842749627457	2.145931107938835	-0.3613418557959608	0.1952789699570815	-0.40625	0.6984126984126985
8575.225830078125	0.06088133828328841	-9.535962348736369	-2.006501175267617	0.645806806471352	1.044650712103254	-0.7169548314232602	0.2060085836909871	-0.3861607142857142	0.6757369614512472
8594.757080078125	0.6428265739250176	-10.0569333162443	-2.037759433318093	0.3143435714814832	-0.03878092470256481	-0.7127497797549994	0.1974248927038627	-0.3772321428571428	0.7006802721088435
8614.288330078125	0.07185922315698809	-9.647183238696217	-2.083881499372279	0.6780048746392896	0.7181765490131601	0.006378332002654191	0.1952789699570815	-0.3660714285714285	0.7006802721088435
8633.819580078125	0.2226405442539025	-9.719398122614258	-1.855891160084128	0.645806806471352	1.044650712103254	-0.7169548314232602	0.1931330472103004	-0.3928571428571428	0.6984126984126985
8653.350830078125	0.2503175604499927	-9.881291054392381	-2.582776453162533	0.6780048746392896	0.7181765490131601	0.006378332002654191	0.2124463519313305	-0.3950892857142857	0.6961451247165533
8672.882080078125	0.247028651827652	-9.618631902679896	-2.253885590928471	0.6324567441278544	-0.439733530554749	-1.421802450675205	0.2103004291845494	-0.375	0.6825396825396826
8692.413330078125	0.5584742228304947	-9.732857469501035	-1.765789629988244	-0.02088926467327366	-0.7600408803587642	-0.7122418369215325	0.1888412017167382	-0.3816964285714285	0.6825396825396826
8711.944580078125	0.07365317331462844	-9.606797137793754	-2.263276515136312	-0.3900485113120221	1.77824429433161	-0.7450078736012112	0.2081545064377682	-0.4017857142857142	0.6848072562358277
8731.475830078125	0.05959446187516128	-9.748070692093501	-1.877813534454903	-0.4184769783150716	1.742546776272085	-1.464643928192332	0.2060085836909871	-0.3727678571428571	0.671201814058957
8751.007080078125	0.08338458606303072	-9.82911667414346	-2.216009626711234	0.3134794003234562	1.427754558925675	-0.367720187798615	0.1888412017167382	-0.4084821428571428	0.6961451247165533
8770.538330078125	0.03217801207446289	-9.687190466989433	-2.197393044180982	-2.050270116268227	-4.743277692176104	-1.072709316051086	0.2167381974248927	-0.3950892857142857	0.6848072562358277
8790.069580078125	0.2385154282065663	-9.911476063372977	-2.422971392085207	0.6817744758041775	0.3560048678635408	0.01007544083744814	0.203862660944206	-0.3772321428571428	0.6643990929705216
8809.600830078125	0.540110393826659	-9.773077871615035	-1.970223056135286	0.3465416396494207	-0.3652550877926586	0.010583383670915	0.1909871244635193	-0.3772321428571428	0.6780045351473923
8829.132080078125	0.1335244869848935	-9.708405951940557	-2.127958902570979	0.2386386316509443	1.700682444926481	-2.17050743311121	0.2124463519313305	-0.3995535714285714	0.6802721088435374
8848.663330078125	0.0324527611977051	-9.808405335692786	-2.224867956505204	0.3172490014883441	1.065582877776056	-0.364023078963821	0.2017167381974249	-0.3794642857142857	0.6780045351473923
8868.194580078125	0.4508266587839065	-9.650972913052486	-2.225523021247796	0.2812813321555186	1.754228722015769	-1.09105335122453	0.1995708154506438	-0.3883928571428571	0.6893424036281179
8887.725830078125	0.6511074729198324	-9.713581781799908	-1.845441169534257	0.3210186026532321	0.7034111966264366	-0.3603259701290271	0.1909871244635193	-0.3883928571428571	0.7120181405895691
8907.257080078125	0.01979203794414686	-9.586056506238029	-1.979203794414686	0.007539202329775903	-0.7243433622992387	0.007394217669587907	0.2167381974248927	-0.4107142857142857	0.6825396825396826
8926.788330078125	0.2743319696364271	-9.659308976262023	-1.922992882010065	-1.355145578120552	-2.90288858165456	-0.3577862559616928	0.1931330472103004	-0.3816964285714285	0.6643990929705216
8946.319580078125	0.2450973271083906	-10.10346107428119	-2.060753119002326	0.328557804983008	-0.02093216567280204	-0.3529317524594392	0.1995708154506438	-0.3883928571428571	0.7006802721088435
8965.850830078125	0.1545549986554918	-9.567202115643122	-2.190193743100203	-0.02552303699618864	1.068666284419095	-0.3709093537999421	0.1974248927038627	-0.375	0.6916099773242631
8985.382080078125	0.08088760138415294	-9.70787958308455	-1.966311158823457	-0.03423932701677142	-2.244425123016767	-1.417089456173477	0.2081545064377682	-0.3816964285714285	0.6825396825396826
9004.913330078125	0.6549175967906766	-9.834832004250737	-2.226453556618681	0.01130880349466385	-1.086515043448858	0.01109132650438186	0.1909871244635193	-0.3816964285714285	0.6938775510204082
9024.444580078125	0.6620954588642395	-9.67328762125531	-1.923831600709662	0.6231891994820243	3.21768079900097	-0.739137484432024	0.1824034334763948	-0.3861607142857142	0.6916099773242631
9043.975830078125	0.02919415578748678	-9.596251537517473	-1.899007415483372	0.2992651668219314	1.409905799895913	-0.7275382150941753	0.1974248927038627	-0.3883928571428571	0.6961451247165533
9063.507080078125	0.2371295613055064	-9.790250083491843	-2.284384701979208	0.7006224816286173	-1.454853537884556	0.02856098501141791	0.1824034334763948	-0.3950892857142857	0.6916099773242631
9083.038330078125	0.6046100180950704	-9.844429938564792	-2.297736503384595	0.3097097991585682	1.789926240075295	-0.3714172966334089	0.2017167381974249	-0.3794642857142857	0.7006802721088435
9102.569580078125	-0.04123685842919014	-9.575345207173287	-1.998763136672822	1.017871483116962	-0.3892706601084999	-0.3354620939524031	0.2167381974248927	-0.3950892857142857	0.6825396825396826
9122.100830078125	0.2701137212801425	-9.871388005899671	-2.52157620964691	0.6959887093057022	0.3738536268933035	0.3698934681330084	0.1974248927038627	-0.3839285714285714	0.6825396825396826
9141.632080078125	0.3189768468645857	-9.811270576549456	-2.305847951764685	0.7064333416423392	0.7538740670726856	0.7260143865937746	0.2060085836909871	-0.3794642857142857	0.6848072562358277
9161.163330078125	0.1642379262644985	-9.708713086333356	-2.138078340735557	0.3465416396494207	-0.3652550877926586	0.010583383670915	0.2081545064377682	-0.3816964285714285	0.6848072562358277
9180.694580078125	0.5006837297259611	-9.732279564569989	-2.109189299126725	1.014101881952074	-0.02709897895888059	-0.3391592027871971	0.1931330472103004	-0.3973214285714285	0.6984126984126985
9200.225830078125	0.0418124545440738	-9.747892872020191	-2.140429127876767	0.3323274061478959	-0.3831038468224214	-0.3492346436246452	0.2145922746781116	-0.3794642857142857	0.6643990929705216
9219.757080078125	0.5713228259992112	-9.76328898583575	-2.03024178359459	-0.01711966350838571	-1.122212561508384	-0.7085447280867386	0.1995708154506438	-0.3995535714285714	0.671201814058957
9239.288330078125	0.2664571336840513	-9.669331238003508	-2.155917450037787	-1.769852955270736	-1.522513486532095	-1.818733075319231	0.1974248927038627	-0.3861607142857142	0.6893424036281179
9258.819580078125	-0.09141514341974115	-9.463732313212271	-2.082975453944251	0.7035279116354782	-0.3504897354059351	0.3772876858025963	0.2124463519313305	-0.3772321428571428	0.6961451247165533
9278.350830078125	0.05115598617731059	-9.828794388144603	-2.054374127935141	1.417500455607593	-0.3209590306324882	1.110696290065959	0.1952789699570815	-0.3928571428571428	0.6870748299319728
9297.882080078125	0.1091586017667003	-9.677859262785347	-1.732186707282272	3.895515094836722	-0.9776424442841878	2.965384568066195	0.2060085836909871	-0.3883928571428571	0.6938775510204082
9317.413330078125	0.3971715852558566	-9.468618180499027	-1.962056484769336	2.355897397729128	1.391405360037677	-0.686220566077449	0.1909871244635193	-0.3772321428571428	0.6757369614512472
9336.944580078125	0.01596171193188775	-9.262785879745584	-1.596171193188776	4.699934737338344	10.83983150051579	0.3453126099574363	0.1974248927038627	-0.3794642857142857	0.6689342403628118
9356.475830078125	0.5715633139397682	-10.15723078465455	-0.01347425111967688	8.539144152794215	2.820288283120973	0.1425800002246746	0.2017167381974249	-0.4040178571428571	0.6848072562358277
9376.007080078125	-0.3277225187985224	-9.633086411175654	-0.9012175079028624	10.79820900792706	17.66559212278385	0.3990204891465301	0.1995708154506438	-0.4151785714285714	0.6621315192743764
9395.538330078125	-0.1257406843554646	-9.837126431540286	-0.6912376869025181	12.7214385232674	0.3016319124464544	1.330549141988365	0.2188841201716738	-0.4084821428571428	0.6507936507936508
9415.069580078125	-0.08097661449295844	-10.01939225405709	-1.08601202009191	16.1398913634669	3.92821217557178	2.082076856592757	0.2103004291845494	-0.4129464285714285	0.6439909297052154
9434.600830078125	0.08491594961113778	-10.02105117969813	-1.348737818256636	18.18403770318862	0.9587920094273018	1.073517294401154	0.2017167381974249	-0.4129464285714285	0.6326530612244898
9454.132080078125	0.2537015015947032	-9.790415802894737	-0.8803542411029771	20.24648079410954	3.149019174526308	1.812288345000237	0.2081545064377682	-0.4129464285714285	0.6417233560090703
9473.663330078125	0.2227900813292326	-9.628490527075918	-0.8504367043518278	20.94160533225721	4.989408285047851	2.52721140508963	0.2145922746781116	-0.4375	0.6167800453514739
9493.194580078125	0.1610359280791018	-9.587468945139378	-0.7974703589305849	26.12669278118781	3.53016797886331	3.364930017561742	0.2274678111587983	-0.4464285714285714	0.5941043083900227
9512.725830078125	0.03551144786563627	-9.848839962963506	-0.4899202967677093	25.77434028152467	1.686695461698728	2.65689323230847	0.2167381974248927	-0.4866071428571428	0.5736961451247166
9532.257080078125	0.4031676632855097	-10.19595086855205	-0.520847961204032	29.18117140169672	0.8958205149095707	2.013514143748148	0.2360515021459227	-0.484375	0.5600907029478458
9551.788330078125	0.1567086293880369	-9.951062035788832	-0.3647404898240974	31.13657565577719	3.685449729099476	0.2261647856087217	0.2210300429184549	-0.5089285714285714	0.5487528344671202
9571.319580078125	-0.152696484103044	-9.86715990384584	-0.03647403867519466	36.71116036139455	7.418470865574906	3.537736340298761	0.2381974248927039	-0.5178571428571428	0.5510204081632654
9590.850830078125	-0.1083202953557033	-10.41305821118786	-0.3924602603480391	38.08688228765561	5.577430074224889	3.223948956521655	0.2274678111587983	-0.5424107142857143	0.5419501133786848
9610.382080078125	0.06558851969067286	-10.30368618822721	-0.4364029894754508	40.22762283188114	1.628587418810129	4.385388884607795	0.2489270386266094	-0.5848214285714285	0.5215419501133787
9629.913330078125	0.1918544597229241	-10.2645448072235	0.2023091297484089	41.92640461964425	3.06185711019341	4.405031823449225	0.2510729613733906	-0.59375	0.5170068027210885
9649.444580078125	0.2857947883618038	-10.23518118020685	-0.0080502647518048	45.36778798336586	10.01937753978436	6.562557667722712	0.2510729613733906	-0.6183035714285714	0.5011337868480725
9668.975830078125	-0.1552439741354589	-9.998447560258647	0.2182749645662996	46.68696589215358	13.61091196567864	6.193313651423695	0.2639484978540773	-0.6116071428571428	0.5170068027210885
9688.507080078125	-0.5135243344958318	-9.954460716251003	0.3320252863178693	46.73220110613224	9.264851791883203	6.237678957441223	0.2510729613733906	-0.6540178571428571	0.4852607709750567
9708.038330078125	-0.5198395651309797	-10.20692281646991	-0.05685981343263852	45.38341764265066	1.600185078194303	4.848501034445171	0.2660944206008584	-0.6897321428571428	0.4739229024943311
9727.569580078125	-0.73982765067483	-10.1340158649074	-0.5070308508843426	45.6186229190973	-11.31305412998366	7.500323143566675	0.259656652360515	-0.6964285714285714	0.4965986394557823
9747.100830078125	0.4551783237312493	-10.32778410646964	0.4005349738138422	48.44577171144993	-16.73459908231273	8.330506029368673	0.2703862660944206	-0.7299107142857142	0.4965986394557823
9766.632080078125	0.4452691321383962	-9.640816327685023	0.3710459698338485	46.82699238987969	-6.759945973848862	4.601261609694356	0.2532188841201717	-0.7522321428571428	0.5079365079365079
9786.163330078125	-0.1391912701094842	-9.978406067096886	0.6538208884994396	46.09794144124802	-5.340789954023831	3.853064570091818	0.2854077253218884	-0.7477678571428571	0.4943310657596372
9805.694580078125	-0.1136879631007739	-10.04936817087404	1.164714677424325	47.97396906220118	-2.951143032954396	8.542947646105942	0.3068669527896996	-0.765625	0.5102040816326531
9825.225830078125	-0.3068030364479858	-10.31006328276683	1.088466910104697	48.27873217250405	-4.836479881464583	7.129047355933793	0.2811158798283262	-0.7991071428571428	0.5011337868480725
9844.757080078125	-0.2880129422602963	-10.13853401199154	1.250273817866367	48.70851795431379	-7.665541701185526	8.604782610630506	0.2832618025751073	-0.8147321428571428	0.5056689342403629
9864.288330078125	-0.06692788043761864	-10.01953274139765	1.590747227435334	51.16391498655359	-6.149195027939509	10.43728823562198	0.2768240343347639	-0.8325892857142857	0.5079365079365079
9883.819580078125	-0.1753269229159799	-10.02854976107387	2.226569842618396	53.60046401296894	-2.821989948945397	12.25130831643948	0.2746781115879828	-0.8415178571428571	0.5102040816326531
9903.350830078125	-0.2380487587398829	-10.05822557301866	2.37630444541686	58.02752079163958	4.072733983627149	13.35003890333465	0.2811158798283262	-0.8482142857142857	0.5600907029478458
9922.882080078125	-0.4511519132606859	-10.17730666268558	2.258048468925735	60.45943604573203	9.228646227399121	15.50539146727374	0.2618025751072962	-0.8683035714285714	0.5714285714285714
9942.413330078125	-1.035262818462089	-10.42399080615882	2.505873682943603	62.58219275529115	5.624126494104217	16.30331625922953	0.2660944206008584	-0.8504464285714285	0.562358276643991
9961.944580078125	-1.000365474466605	-10.32332967858867	3.097771936456398	64.8534539145045	-2.563683780927398	19.66802965710656	0.2703862660944206	-0.8950892857142857	0.5873015873015873
9981.475830078125	-0.1558680966185983	-9.958037278629774	3.341911702676154	68.21473690416511	-4.512468807284464	17.59646978586838	0.2725321888412017	-0.8727678571428571	0.6077097505668935
10001.00708007812	-0.3186111468761165	-9.986712878430231	3.289686116183076	70.1893020806028	1.970272254520685	17.21142144856325	0.2746781115879828	-0.8705357142857142	0.6303854875283447
10020.53833007812	-0.7119847707748378	-10.38681954623165	3.851538301973577	71.41651955720963	4.712522004907381	14.3308454588649	0.2618025751072962	-0.8727678571428571	0.6394557823129252
10040.06958007812	-1.487150130899136	-10.28815880172131	3.817053906240156	73.64168133128628	2.337307387299437	17.99622314268079	0.2510729613733906	-0.8973214285714285	0.6598639455782314
10059.60083007812	-1.063689292875811	-10.01966613737427	4.328112961050474	75.07598853386949	-2.365409335188008	18.43164868417315	0.2424892703862661	-0.8861607142857142	0.6893424036281179
10079.13208007812	-0.8470810668195281	-9.850115047917667	4.095861783993628	77.2062844457584	-6.69427243078215	19.23696769379853	0.2510729613733906	-0.8816964285714285	0.7210884353741497
10098.66333007812	-0.6507902168418989	-9.831875936215422	3.85453188827152	80.62300894364184	-0.134621200400344	20.67855459231569	0.259656652360515	-0.8772321428571428	0.7346938775510204
10118.19458007812	-1.156544766520712	-9.836919400819642	4.429986856152842	83.31908586638141	5.653307203879014	21.03430907694352	0.2553648068669528	-0.8571428571428571	0.7664399092970522
10137.72583007812	-1.218070635572855	-9.502970808795787	4.460124781775284	84.39208594118841	8.268502547146046	22.82817827608612	0.2081545064377682	-0.8816964285714285	0.8027210884353742
10157.25708007812	-1.259903374716064	-9.492451471303347	4.561766043034932	85.7385152292884	7.858299721364744	22.13978442967428	0.2145922746781116	-0.8459821428571428	0.8253968253968255
10176.78833007812	-1.480840919677553	-9.348827954439589	5.226949110612414	87.37635756534775	4.078375804415252	19.33264267383834	0.2124463519313305	-0.8370535714285714	0.8435374149659864
10196.31958007812	-1.666658938316854	-8.973232400515823	5.441404035767031	87.53357830502253	2.808176670114402	22.94561138213312	0.2081545064377682	-0.8459821428571428	0.8662131519274376
10215.85083007812	-1.17355299060675	-9.271092752922216	5.110401101491335	90.2163051654186	7.111720831735758	22.596518247509	0.2188841201716738	-0.8258928571428571	0.9070294784580499
10235.38208007812	-1.28954605927182	-8.916397468700213	5.485218172080009	92.23264887120284	15.11454365425843	23.63595358404694	0.1909871244635193	-0.7946428571428571	0.9319727891156463
10254.91333007812	-2.261446716484875	-8.431930987380607	5.736508383181407	93.31782192066255	15.17668847044837	25.09588451773755	0.1609442060085837	-0.7879464285714285	0.9909297052154196
10274.44458007812	-2.176449875850358	-8.311568834574832	6.42049778911743	93.77485908178453	8.345889399051851	26.25246994232143	0.1459227467811159	-0.7433035714285714	1.018140589569161
10293.97583007812	-1.781171148787354	-8.557945864269705	6.688543450164021	94.44587600871928	2.817903573372667	24.52260898803778	0.1609442060085837	-0.7299107142857142	1.034013605442177
10313.50708007812	-1.72318877656824	-7.871657001123207	5.992347044579073	96.07476371666559	8.199364239342236	23.78194767510536	0.1523605150214592	-0.7254464285714285	1.072562358276644
10333.03833007812	-2.014694710308027	-7.646519719563588	6.571511847129217	96.4541292575485	18.51557549518617	27.28349517552285	0.1287553648068669	-0.6763392857142857	1.08843537414966
10352.56958007812	-2.218484636407716	-7.795996971817742	6.542341191791947	94.53932644512376	13.20859327197869	29.4565423228014	0.1309012875536481	-0.6629464285714285	1.102040816326531
10372.10083007812	-2.311594657034444	-7.189005265550869	6.66966978507705	96.0058317158749	8.179402386401149	30.61530102771967	0.1287553648068669	-0.6116071428571428	1.149659863945578
10391.63208007812	-1.977645838251859	-7.091334652728594	6.94825729457366	94.69505718057498	2.396989114579396	30.64690966973189	0.1030042918454936	-0.609375	1.160997732426304
10411.16333007812	-2.170409394338452	-6.42274035050106	6.83685780119216	94.30296741041414	1.604334122804145	29.20814550338312	0.07081545064377683	-0.5491071428571428	1.206349206349206
10430.69458007812	-1.97926402977919	-6.414550794045643	7.110076447306757	91.55992693137983	3.0955368595767	29.49808489665054	0.1008583690987124	-0.5245535714285714	1.208616780045352
10450.22583007812	-1.897982404179727	-6.334555529493558	7.145179193482913	89.76368676795488	4.10822514109194	27.65347205948775	0.09442060085836909	-0.5022321428571428	1.224489795918367
10469.75708007812	-2.428488741206618	-6.006018142890965	7.134588406376039	86.33392512426074	1.568159921415472	26.89085301837898	0.07510729613733906	-0.46875	1.249433106575964
10489.28833007812	-2.404892557576331	-5.763829862303026	6.815786369877982	83.98148441116371	-5.689387373135165	26.19695521663089	0.06652360515021459	-0.4241071428571428	1.249433106575964
10508.81958007812	-2.27372153760855	-5.48231328967442	6.963990495548829	81.66359594161624	-5.198539291305694	28.30396234771661	0.0407725321888412	-0.3883928571428571	1.27891156462585
10528.35083007812	-1.869400290819391	-4.971204986990797	7.3481923472452	79.61913668536174	-7.733089378524558	27.92870643324788	0.0407725321888412	-0.3571428571428571	1.27437641723356
10547.88208007812	-1.907515835942263	-4.758702619418356	7.078114206471263	77.15156667846924	-6.696385524693476	26.43013907370841	0.03862660944206009	-0.3102678571428572	1.310657596371882
10567.41333007812	-1.962043641979436	-4.131894715095358	7.428853993861956	72.99652368730831	-8.179466405694532	24.92302010183189	0.04935622317596566	-0.2946428571428572	1.315192743764172
10586.94458007812	-1.825935218649861	-3.83022549629835	7.083317783353413	69.49105710378359	-8.980068255741955	22.70264340736691	0.07081545064377683	-0.2611607142857142	1.319727891156463
10606.47583007812	-1.962142632472369	-3.798560391857095	7.438753043155242	66.00184601260925	-7.191922060652755	21.53584103294504	0.06652360515021459	-0.2232142857142857	1.319727891156463
10626.00708007812	-2.261610271372615	-3.270313190215568	7.793680198486057	61.86855645727962	-9.381497544923286	20.39593430603368	0.06008583690987124	-0.1875	1.333333333333333
10645.53833007812	-2.066975996991006	-3.353067613767464	7.718007862365873	59.49844482604897	-10.79075166399073	20.72233684481557	0.05793991416309013	-0.1741071428571428	1.324263038548753
10665.06958007812	-2.069087120768859	-2.696480845964029	7.92912024015125	56.33198067984391	-11.23226523953157	18.50514931635191	0.05579399141630902	-0.1607142857142857	1.349206349206349
10684.60083007812	-2.035814070171991	-2.585702465358886	7.663039670260287	54.62393134743497	-9.008120601359131	19.16817134375366	0.07081545064377683	-0.1227678571428571	1.346938775510204
10704.13208007812	-2.056691045567836	-2.646099756210988	7.709920883314211	51.48503149707494	-7.947401175212208	18.01564946183751	0.05579399141630902	-0.08482142857142856	1.356009070294785
10723.66333007812	-2.404114733902998	-2.511312388014506	7.75841216581004	49.00238308552289	-5.462010596782648	16.50229366695886	0.04935622317596566	-0.07142857142857142	1.365079365079365
10743.19458007812	-2.203417755653926	-2.089076933554572	8.096877606208949	46.60965384730291	-4.698234628952372	16.80651355273199	0.06437768240343347	-0.05133928571428571	1.36734693877551
10762.72583007812	-1.895038910946721	-2.314382944223867	7.87123803344758	43.46784856693601	-4.741879005284069	15.30526497002466	0.06866952789699571	-0.03125	1.36281179138322
10782.25708007812	-1.937217106708124	-1.728102576407667	8.007424956526652	40.7541007260628	-4.68151423408023	15.96981082592681	0.06437768240343347	-0.02232142857142857	1.387755102040816
10801.78833007812	-2.143841393248318	-1.362399969905901	8.261690345239991	37.95797291418731	-3.623878214576346	14.82417521884678	0.06866952789699571	0.01116071428571428	1.387755102040816
10821.31958007812	-2.04180602531564	-1.353319313484218	8.262235184625291	35.53477395011544	-5.466699050912456	13.71500275728122	0.07296137339055794	0.04017857142857142	1.394557823129252
10840.85083007812	-1.932233197192215	-1.445324132674543	8.529442168201145	33.80583535303322	-4.002595293098782	13.66578294776144	0.06866952789699571	0.04464285714285714	1.394557823129252
10860.38208007812	-1.613654250055783	-1.327297800933786	8.304200515782359	32.39124032743249	-2.577272459987674	12.90381335848666	0.0815450643776824	0.05357142857142857	1.36734693877551
10879.91333007812	-2.055058671312655	-0.817833251670712	8.567091621061374	30.24673018204207	1.733741876576706	11.73867632156572	0.07081545064377683	0.06919642857142856	1.360544217687075
10899.44458007812	-2.259165771032556	-0.7753881402694726	8.56963832774545	27.80468321214576	1.701779445988693	10.6110183158262	0.0815450643776824	0.07366071428571429	1.380952380952381
10918.97583007812	-2.229597793171175	-0.8867949311591975	8.674065031403178	26.11721022787731	-0.8180052888434461	10.60246670348915	0.06223175965665236	0.09598214285714285	1.383219954648526
10938.50708007812	-1.893677245386498	-0.7083359548188624	8.755479640690668	24.72523280926591	-1.565712542630054	9.862679767223129	0.06866952789699571	0.125	1.374149659863946
10958.03833007812	-1.608458218055019	-0.3879558218598539	8.805005478971239	22.99629421218369	-0.1016087848163796	9.813459957703349	0.07725321888412018	0.1383928571428571	1.374149659863946
10977.56958007812	-1.886408473676569	-0.1932571273844465	9.049010632962995	21.23602171809157	0.2224336524591478	8.69587739280127	0.07725321888412018	0.1428571428571428	1.369614512471655
10997.10083007812	-1.973247749608122	-0.2731968154332118	8.549264756730574	18.80355520937388	2.037027145678757	8.269369897478892	0.08798283261802575	0.1428571428571428	1.383219954648526
11016.63208007812	-2.218886576564151	-0.5535687099919344	8.623351533966142	16.38875961878981	-1.996672536584832	6.822562061626537	0.07939914163090128	0.1473214285714286	1.378684807256236
11036.16333007812	-1.966352717514367	-0.3136698061581897	8.880169710620409	14.6197708346771	-4.985721506745167	4.658799394350922	0.07081545064377683	0.1517857142857143	1.380952380952381
11055.69458007812	-1.525505875360546	0.1061641496626964	8.67303651564643	13.90579829070499	-5.015252211518614	3.92539079008756	0.07939914163090128	0.1540178571428571	1.378684807256236
11075.22583007812	-1.839365602262465	-0.1331214954925269	8.426356144613884	13.17329065744121	2.270045742819377	4.557312118310559	0.08798283261802575	0.1674107142857143	1.374149659863946
11094.75708007812	-2.034274625767317	-0.4342027082877815	8.52950339305829	11.11288882536913	2.650717863827232	4.512297360459039	0.06437768240343347	0.1629464285714286	1.3718820861678
11114.28833007812	-2.382678117961101	-0.3499105925577628	8.675975061416233	10.07585641989495	-0.6531233236795129	3.44545843357714	0.07939914163090128	0.1919642857142857	1.376417233560091
11133.81958007812	-2.256030357456109	0.0629643439786015	9.27650513336599	8.372127943276142	-5.761656103648275	2.38333250119697	0.07510729613733906	0.1897321428571428	1.383219954648526
11153.35083007812	-1.863119362595788	-0.1126819376871734	8.76091585141554	6.977245094657876	-7.613727159913504	1.294818864139775	0.07939914163090128	0.1830357142857143	1.385487528344671
11172.88208007812	-2.14903334359194	0.05179336373894971	8.780885379602116	5.240767295245885	-5.425280039800591	1.238204836950406	0.06652360515021459	0.1964285714285714	1.36734693877551
11192.41333007812	-2.02916950340292	0.1516048263471605	9.039399319883861	4.570301622936372	-6.86779995111299	1.23922072261734	0.06652360515021459	0.2098214285714285	1.376417233560091
11211.94458007812	-1.724570479354437	-0.00295631540847584	9.191741812994685	3.491803604648423	-6.187752645973921	0.1317135985527077	0.08798283261802575	0.1919642857142857	1.392290249433107
11231.47583007812	-1.938580710024767	0.2113049990194396	9.16419345145632	3.816591808466542	-5.846513130497104	-0.2249152627415254	0.0815450643776824	0.1919642857142857	1.36734693877551
11251.00708007812	-1.999926780018318	0.4139386617395772	9.176351471219528	2.756077624845007	-5.510788747477893	-0.968907250675803	0.08798283261802575	0.1941964285714285	1.392290249433107
11270.53833007812	-1.681501369156638	-0.05389205701550434	8.966463446276041	1.309284531076337	-3.75899175127669	-2.454210003376498	0.1137339055793991	0.2098214285714285	1.378684807256236
11290.06958007812	-1.942404975394602	0.01942404975394602	9.546619988439783	0.8945771539261534	-2.378616656154224	-3.915156822734036	0.09871244635193133	0.1986607142857143	1.380952380952381
11309.60083007812	-1.783209462398395	-0.1033800265881373	8.933191137798653	1.53575018807459	0.4947412207268891	-4.290779171035705	0.1051502145922747	0.1964285714285714	1.36734693877551
11329.13208007812	-1.817438074284187	0.1999925625610237	9.294827836581947	1.537791446923424	3.06564050683375	-3.597022878288143	0.08369098712446352	0.1941964285714285	1.385487528344671
11348.66333007812	-1.920661328132059	0.1505197445944519	9.413071588716074	0.8275885041161972	2.673938120910684	-4.326734373716711	0.1008583690987124	0.203125	1.374149659863946
11368.19458007812	-2.550172711879397	-0.03510433348726665	9.098903841000867	0.4735076621370006	3.763536571002581	-4.344711975057214	0.08583690987124463	0.1897321428571428	1.376417233560091
11387.72583007812	-2.268743606277346	0.2045056178809553	9.527421852224375	-0.1383727338503599	-0.540659271447247	-3.594483164120808	0.1030042918454936	0.2142857142857143	1.385487528344671
11407.25708007812	-2.399777251683506	-0.1376183890993266	9.365480270391416	-0.4991286070013053	-0.1932529426843511	-3.964884575087284	0.1030042918454936	0.2120535714285714	1.378684807256236
11426.78833007812	-2.205342978501903	0.11296252069411	9.309808054271951	-1.503962944307549	-3.823568293281189	-4.308390338543267	0.09871244635193133	0.1986607142857143	1.374149659863946
11446.31958007812	-2.013201648370888	0.3130613094130019	9.483430143211246	-1.88183848096688	-4.598374526026677	-5.387336477596481	0.07725321888412018	0.2053571428571428	1.390022675736962
11465.85083007812	-2.376225512764332	-0.1580559266905385	9.05112270500463	-2.19704622360639	-3.093058117695872	-4.329557105885097	0.09442060085836909	0.1986607142857143	1.369614512471655
11485.38208007812	-2.338501889184907	0.11429410980094	9.360393000123411	-3.275544241894339	-2.413010812556804	-5.437064229949729	0.1030042918454936	0.2053571428571428	1.374149659863946
11504.91333007812	-2.285755912020527	-0.06805153178888566	9.187836100011861	-4.671291261670632	-2.798546385193792	-6.18054827505054	0.1030042918454936	0.1941964285714285	1.383219954648526
11524.44458007812	-2.081804368789519	-0.01958599671614522	9.200845042217235	-3.683576587872774	-0.290443596105337	-6.545587239681295	0.111587982832618	0.1986607142857143	1.36734693877551
11543.97583007812	-2.340564527823366	0.1850218068943953	9.566656863969222	-2.262306531100292	-0.9735743078874445	-5.431193840780542	0.07939914163090128	0.2075892857142857	1.380952380952381
11563.50708007812	-1.85616574429193	-0.08244844356718173	9.085962184295061	-1.539617697107594	2.369047804321865	-3.651605134143644	0.09012875536480687	0.2053571428571428	1.365079365079365
11583.03833007812	-1.963069828305591	-0.3945107158583583	9.572288953008096	-0.7650186179644923	2.107801864064743	-1.475227311863247	0.1030042918454936	0.1808035714285714	1.385487528344671
11602.56958007812	-2.394435764264555	0.05424738794567585	9.85173969176159	-1.014101881952074	0.02709897895888059	0.3391592027871971	0.08583690987124463	0.2165178571428571	1.383219954648526
11622.10083007812	-2.504830819543565	-0.1668708837237563	9.666755423744252	0.4260161806448475	-2.466890138571324	1.47203814586192	0.08798283261802575	0.203125	1.374149659863946
11641.63208007812	-2.16914259638516	0.06209546636789201	9.771402495658842	0.4419587564624264	-5.382112346798041	1.141796989244711	0.09442060085836909	0.2053571428571428	1.360544217687075
11661.16333007812	-2.035220044756674	-0.2018700217746555	9.644453455259178	-1.304099504128175	-5.040221150492751	0.3840324516381914	0.1072961373390558	0.1919642857142857	1.369614512471655
11680.69458007812	-2.29941462105998	0.1341052573217109	9.533298840691829	-0.9650970668085301	-4.681132875986171	0.3872216176395185	0.08798283261802575	0.1830357142857143	1.376417233560091
11700.22583007812	-2.328806840291052	-0.0474190023041602	9.411296274003167	-0.5872215301491989	-3.906326643240683	1.466167756692732	0.111587982832618	0.1808035714285714	1.369614512471655
11719.75708007812	-2.437640270038693	-0.1776437993198151	9.070149452848893	-1.636426910276071	-4.657117303670329	0.7332670952628366	0.09227467811158799	0.1941964285714285	1.376417233560091
11739.28833007812	-2.408217747595498	-0.04662489323111573	9.189121698325327	-2.605293578249489	-8.976078498506881	1.116791604067561	0.1244635193133047	0.1986607142857143	1.3718820861678
11758.81958007812	-2.125891666914627	0.2131781085883382	9.527942201666818	-3.614761687878647	-10.77768668432586	1.114618323733168	0.1008583690987124	0.2075892857142857	1.369614512471655
11778.35083007812	-1.837440296956768	0.02847541307057779	9.254233777309489	-2.224512611583296	-7.096908463282773	2.544464443911953	0.1180257510729614	0.1964285714285714	1.380952380952381
11797.88208007812	-2.06327286201194	-0.09047838249099173	9.388510690989936	-0.2197906258265045	-3.511540850674578	2.18899297728518	0.1223175965665236	0.1875	1.385487528344671
11817.41333007812	-2.087479150312956	0.01077378140211946	9.768323194560896	-0.5889498724652529	-0.9732556759842028	2.156226940605501	0.1287553648068669	0.203125	1.35827664399093
11836.94458007812	-2.054670748968629	-0.2824835955406168	9.54870754992413	-0.2746063009837698	-1.012036600686768	1.443477160850502	0.1158798283261803	0.1897321428571428	1.378684807256236
11856.47583007812	-2.014543070560835	0.1918626024227801	9.617572362205975	0.8323201843072283	-1.656386387766311	3.270620339506254	0.1158798283261803	0.203125	1.376417233560091
11876.00708007812	-1.602248038555228	-0.2971088327457609	9.204395692257478	0.1476402784961898	-3.116755058108472	2.911818197877627	0.1008583690987124	0.1785714285714285	1.36734693877551
11895.53833007812	-1.796841908654008	-0.1133447122265912	9.27602760009469	1.140852895774989	-3.903894917426117	1.860417158168898	0.1072961373390558	0.1875	1.36734693877551
11915.06958007812	-1.679834651261051	-0.134716805002541	9.820199819982678	0.01507840465955181	-1.448686724598477	0.01478843533917581	0.1137339055793991	0.1830357142857143	1.385487528344671
11934.60083007812	-1.809082427366137	-0.2546364484536114	9.479671308042279	1.060514183621536	-0.3357243830192116	0.7439919879342776	0.1223175965665236	0.1941964285714285	1.369614512471655
11954.13208007812	-1.55594654450219	-0.1763597264741701	9.676287103280238	0.6855440769690655	-0.00616681328607855	0.0137725496722421	0.111587982832618	0.1830357142857143	1.369614512471655
11973.66333007812	-1.922031033319987	-0.09189080077791126	9.550042107508883	0.3503112408143086	-0.727426768942278	0.01428049250570896	0.1244635193133047	0.1964285714285714	1.385487528344671
11993.19458007812	-1.907546056696666	-0.3243588828673769	9.121952608442101	0.7432651821331916	-1.401307260795268	1.108015066898099	0.1244635193133047	0.2008928571428571	1.378684807256236
12012.72583007812	-1.850894964367931	0.05891299004771972	9.57929235516044	0.4118019471433227	-2.484738897601086	1.112220118566359	0.1287553648068669	0.1852678571428571	1.374149659863946
12032.25708007812	-1.773564877629216	0.1591497901904336	10.00954898741143	1.075592588281088	-1.784411107617689	0.7587804232734534	0.1266094420600858	0.1875	1.376417233560091
12051.78833007812	-1.656495034826734	0.1983831321664492	9.527054503081503	1.74315283058374	-1.446254998783911	0.4090378368153413	0.1244635193133047	0.1763392857142857	1.365079365079365
12071.31958007812	-1.769540611059375	0.01769540611059375	9.607122330427243	1.014101881952074	-0.02709897895888059	-0.3391592027871971	0.1180257510729614	0.1808035714285714	1.374149659863946
12090.85083007812	-1.963378921069239	0.1206438902207934	9.603198229372845	0.3360970073127839	-0.7452755279720408	-0.3455375347898513	0.1309012875536481	0.1830357142857143	1.365079365079365
12110.38208007812	-2.206668238978718	0.1331777935008983	9.44233410195349	1.39951662094118	0.02336389148736843	0.7471811539356047	0.1416309012875537	0.1919642857142857	1.365079365079365
12129.91333007812	-1.745695941089685	-0.1542602123062749	9.263471659988898	1.02164108428185	-0.7514423412581193	-0.3317649851176092	0.1223175965665236	0.1808035714285714	1.353741496598639
12149.44458007812	-1.727934135900012	0.04758237166203043	9.528107467552248	0.6750994446324288	-0.3861872534654606	-0.3423483687885241	0.1137339055793991	0.1897321428571428	1.385487528344671
12168.97583007812	-1.758752626314975	-0.1137256050499816	9.548732019252558	0.3390024373196448	0.35908827450658	0.003189166001327095	0.1351931330472103	0.1808035714285714	1.3718820861678
12188.50708007812	-1.940697894445045	0.372942332479804	9.375911893484144	1.745194089432574	1.12464428732295	1.102794129562904	0.1244635193133047	0.1808035714285714	1.380952380952381
12208.03833007812	-1.849137378064837	0.1599055151947898	9.403533724851084	1.431714689109118	-0.3031102716027254	1.470514317361519	0.1351931330472103	0.1919642857142857	1.36734693877551
12227.56958007812	-1.70647735904556	-0.1849554284297465	9.423246108637651	0.03219806816793752	-0.3264741630900938	0.7233331634259144	0.1051502145922747	0.1875	1.365079365079365
12247.10083007812	-1.786704432863167	-0.002334975873388537	9.282688184275882	1.115329858778801	-2.835228633007021	1.489507804368956	0.1309012875536481	0.1919642857142857	1.378684807256236
12266.63208007812	-1.731285712389599	-0.09379825398721513	8.842856953245617	-0.9735004402963331	-2.490254030058692	0.724856991926315	0.1287553648068669	0.2098214285714285	1.356009070294785
12286.16333007812	-1.999474252050625	0.3331260556518195	9.131098674450222	-1.730115684773023	-2.573331011921427	-1.088005694223728	0.1416309012875537	0.2075892857142857	1.383219954648526
12305.69458007812	-1.764532500202629	0.088352395709097	9.106311244752648	-2.447857829910026	-2.240690035545255	-1.825111407321885	0.1437768240343348	0.1964285714285714	1.376417233560091
12325.22583007812	-1.471731567969288	-0.4398281388657617	9.4180547561125	-1.800009764589839	1.37485996266486	-1.848309945997582	0.1287553648068669	0.1875	1.380952380952381
12344.75708007812	-2.00316316307298	0.2523548639539622	9.499989776685725	-1.104885226442164	3.215249073186404	-1.133386885908189	0.1416309012875537	0.1964285714285714	1.36734693877551
12364.28833007812	-1.874327510652757	0.04904630540955788	9.881730657112454	-1.083131790610863	2.508754469916928	-0.7661746409430412	0.1201716738197425	0.1875	1.374149659863946
12383.81958007812	-1.73676251292717	-0.2250566172949708	9.390537007002708	-1.085173049459697	-0.06214481618993323	-1.459930933690604	0.1330472103004292	0.1875	1.36734693877551
12403.35083007812	-1.756669785535102	0.118576798865452	9.340447941265262	-0.01971217698246678	3.277393889376337	0.3265440477824146	0.1394849785407725	0.1897321428571428	1.36734693877551
12422.88208007812	-1.820274454938834	-0.1232113968647531	9.578465902046702	0.01539132119233166	4.055283528764864	1.398603911999508	0.1416309012875537	0.1830357142857143	1.376417233560091
12442.41333007812	-2.011496587635473	-0.1718042260428372	9.312924069669755	-2.121028367243071	0.6714487660384233	-1.487983975868555	0.1266094420600858	0.1941964285714285	1.378684807256236
12461.94458007812	-1.684943814053732	0.1279605492516485	9.310707935985404	-1.055880411298621	-1.492982781758648	-1.085324471055868	0.1244635193133047	0.1674107142857143	1.369614512471655
12481.47583007812	-1.60540361304423	-0.2566732365968305	9.519953141157727	-1.819170686947059	-2.318251884950385	-3.250610966831883	0.1373390557939914	0.1919642857142857	1.360544217687075
12501.00708007812	-1.932526087013871	-0.1119878704429926	9.579139313632009	-0.7319563786385278	0.3147922173464096	-1.096923740393717	0.1223175965665236	0.1941964285714285	1.390022675736962
12520.53833007812	-1.849878796654763	0.04880181826957794	9.47767558384365	-2.159901466582758	0.2557308077995156	-2.563740948920442	0.1416309012875537	0.1964285714285714	1.378684807256236
12540.06958007812	-1.512253188134672	-0.2576047408459261	9.38858411958965	-0.07861036983739982	0.6350995671504248	-1.806484354147389	0.1137339055793991	0.1941964285714285	1.374149659863946
12559.60083007812	-1.788397372313733	-0.04272208688292328	9.45198212933248	0.9299935686337316	3.903243236597644	-1.459281481856611	0.1309012875536481	0.1941964285714285	1.374149659863946
12579.13208007812	-1.92113809866945	-0.2333138715385581	9.460748642455163	0.251988693994442	3.185066687584484	-1.465659813859265	0.1158798283261803	0.1875	1.392290249433107
12598.66333007812	-2.124053272045874	0.01113952261944864	9.344102714791513	0.2821455033135457	0.287693238387529	-1.436082943180914	0.1137339055793991	0.1808035714285714	1.376417233560091
12618.19458007812	-2.287283193911491	-0.04783423876795581	9.340564289108269	0.2934543068082095	-0.798821805061329	-1.424991616676532	0.1201716738197425	0.1696428571428571	1.376417233560091
12637.72583007812	-1.688974141265998	-0.2255345010115825	9.713740657212034	1.288708182935843	0.9849376217278869	-1.782636363637699	0.1244635193133047	0.1852678571428571	1.374149659863946
12657.25708007812	-1.983247809608482	-0.2730968148332082	9.549270756766575	0.9697308391314451	2.852425711208312	-0.7285541007611089	0.1266094420600858	0.1986607142857143	1.383219954648526
12676.78833007812	-1.719354245212257	-0.2757357504771704	9.690526562042079	1.672394579608896	3.968471459430617	-0.006236823002128244	0.1137339055793991	0.1919642857142857	1.387755102040816
12696.31958007812	-1.78789029856422	-0.2144443293375902	9.401274754381161	1.00569850846427	2.163779866968598	-0.001523828500400573	0.1309012875536481	0.1785714285714285	1.374149659863946
12715.85083007812	-1.839430207886133	-0.02200973832517908	9.453224870245945	-0.03973727049771342	1.050817525389332	-0.7307273810955023	0.111587982832618	0.1785714285714285	1.36281179138322
12735.38208007812	-1.676408368077089	0.04706711398380121	9.477571501586505	-0.3845505678310801	-1.516998354074489	-1.431369948679186	0.111587982832618	0.1964285714285714	1.383219954648526
12754.91333007812	-1.929550311583461	0.4839419677622994	9.281561770590992	-1.080539277136782	-1.890851980967793	-1.801263416812195	0.1094420600858369	0.1875	1.378684807256236
12774.44458007812	-1.677446758145814	-0.07413462332763279	9.58141050845893	-0.3891843401539951	0.3117088107033704	-1.090037465557596	0.1309012875536481	0.1986607142857143	1.351473922902494
12793.97583007812	-1.677980094679166	-0.1953414111744205	9.634744161794183	-0.4033985736555198	0.2938600516736076	-1.449855492853156	0.1223175965665236	0.1897321428571428	1.378684807256236
12813.50708007812	-2.105313683211722	-0.0698559540769737	9.510960157906899	0.2708366998188818	1.374208281836387	-1.447174269685296	0.1416309012875537	0.203125	1.383219954648526
12833.03833007812	-1.959851627178203	-0.2026237059504402	9.250468840269237	-1.8597721286028	0.1991011240671881	-3.636308755971001	0.1223175965665236	0.1763392857142857	1.376417233560091
12852.56958007812	-1.788134744475339	-0.1437348141714082	9.425719345493151	-1.455509383789253	-1.56129441123466	-2.53148285507423	0.1180257510729614	0.171875	1.380952380952381
12872.10083007812	-1.94315043441281	-0.2532957683831447	9.621165890260649	-1.132449522287187	1.713016071498638	-2.198052532455694	0.1330472103004292	0.1830357142857143	1.365079365079365
12891.63208007812	-1.759894047304915	-0.06320914033503168	9.662874118246567	0.2395028028089713	0.2341469612982407	-2.515537025067594	0.1287553648068669	0.1696428571428571	1.351473922902494
12911.16333007812	-2.373142624755562	0.09443849695462635	9.763242067393037	0.6429013764644912	-0.05971309037536685	-1.065681532214439	0.1180257510729614	0.1808035714285714	1.376417233560091
12930.69458007812	-1.522160359513384	-0.2474046590311288	9.358893094195508	0.6750994446324288	-0.3861872534654606	-0.3423483687885241	0.1244635193133047	0.1941964285714285	1.383219954648526
12950.22583007812	-1.72933010387178	0.0172933010387178	9.667704264728991	1.042530348955123	0.008598539100644939	0.3804768518039234	0.1244635193133047	0.1897321428571428	1.378684807256236
12969.75708007812	-1.962609219481332	-0.1520910795223585	9.526228070582196	1.060514183621536	-0.3357243830192116	0.7439919879342776	0.1137339055793991	0.203125	1.385487528344671
12989.28833007812	-1.430446306858423	-0.3796349308708097	9.371161298087147	0.2943184779662365	-2.265357288689569	-1.770021208632916	0.1244635193133047	0.1785714285714285	1.376417233560091
13008.81958007812	-1.634949368550056	-0.01395353661752975	9.413304201944364	0.3227469449692861	-2.229659770630044	-1.050385154041796	0.1330472103004292	0.1919642857142857	1.383219954648526
13028.35083007812	-1.767912318461336	-0.002522897017406845	9.444293070623402	1.677892523089838	0.6732288110245168	-0.6925988980801031	0.1373390557939914	0.1897321428571428	1.3718820861678
13047.88208007812	-1.892925684497005	-0.2740000360843229	9.700731715006659	1.673258750766923	2.501935975802376	-0.3512664149585127	0.1394849785407725	0.1629464285714286	1.383219954648526
13067.41333007812	-2.106948036452185	-0.03953658024153877	9.674395481953185	1.717629793587552	-0.3775887143648157	0.03812848301539919	0.1201716738197425	0.1986607142857143	1.380952380952381
13086.94458007812	-2.204502569419045	-0.1092681056189409	9.225767145986097	0.02348177814735473	-3.639565570525956	-0.3228469389476207	0.1266094420600858	0.1941964285714285	1.390022675736962
13106.47583007812	-1.943243364263319	0.06993748414768371	9.630458875311488	1.735613628253964	-0.7219116364846723	0.4016436191457534	0.1094420600858369	0.1741071428571428	1.376417233560091
13126.00708007812	-1.897374237265419	-0.102238378839467	9.125178828582765	1.046299950120011	-0.3535731420489744	0.3841739606387173	0.1330472103004292	0.1897321428571428	1.3718820861678
13145.53833007812	-1.72494219875647	-0.2251748204366778	9.228913753198043	0.2470420051387472	-0.490196401000998	-2.508142807398007	0.1309012875536481	0.1897321428571428	1.36734693877551
13165.06958007812	-2.196217629995947	-0.1093509550131719	9.417681366941636	-0.4205182371639056	-0.8283525098347759	-2.158400220939895	0.1309012875536481	0.1897321428571428	1.383219954648526
13184.60083007812	-1.901200522849396	-0.1224021361856475	9.507807386980378	0.6420372053064641	1.406822393252873	-0.7206519402580541	0.111587982832618	0.1941964285714285	1.365079365079365
13204.13208007812	-1.493727741999517	-0.3183960559133382	9.576855832604798	0.6429013764644912	-0.05971309037536685	-1.065681532214439	0.1287553648068669	0.1808035714285714	1.365079365079365
13223.66333007812	-1.647967669706657	-0.2057425455251557	9.6947261543392	1.00279307845741	1.059416064489977	-0.350250529291579	0.1201716738197425	0.1875	1.376417233560091
13243.19458007812	-1.880056879186874	-0.001401451410151464	9.434259347258827	-0.6733711023163745	-2.54688371379102	-0.3477108151242447	0.1287553648068669	0.1785714285714285	1.374149659863946
13262.72583007812	-1.747124232487716	0.03767326252689737	9.406300799792019	1.698781787763112	1.433269691383281	0.01964293884142942	0.1351931330472103	0.1986607142857143	1.360544217687075
13282.25708007812	-1.839452430241689	-0.1533226474147548	9.45544710580158	0.3314632349898689	1.083431636805819	-0.004205051668260811	0.111587982832618	0.2232142857142857	1.380952380952381
13301.78833007812	-1.779571015500717	-0.1034164110571141	9.589754611296172	0.3323274061478959	-0.3831038468224214	-0.3492346436246452	0.1330472103004292	0.2008928571428571	1.36734693877551
13321.31958007812	-1.950550520041937	-0.212817727122813	9.340766289907988	0.3511754119723356	-2.193962252570518	-0.3307490994506754	0.1287553648068669	0.2008928571428571	1.374149659863946
13340.85083007812	-1.922588612423037	-0.1726933057949616	9.60580001781392	2.021528732732398	-0.7963900792467626	-1.030742215200366	0.1223175965665236	0.2098214285714285	1.385487528344671
13360.38208007812	-1.606635943670537	-0.05464071127036534	9.643186203788426	1.393705760927459	-2.185363713469873	0.04972775235324792	0.1351931330472103	0.1964285714285714	1.365079365079365
