Time Stamp	Accelerometer X	Accelerometer Y	Accelerometer Z	Gyroscope X	Gyroscope Y	Gyroscope Z	Magnetometer X	Magnetometer Y	Magnetometer Z
1645.538330078125	-9.762144534524598	-0.05389370616990556	-1.336566955703528	-0.6646548122957918	0.7662076936448428	0.6984692872492905	0.3090128755364807	-0.3705357142857142	0.7414965986394558
1665.069580078125	0.630840602194716	-9.612369012082555	-1.859570423553236	2.990395400705816	3.522571115589789	-1.414266724005091	0.296137339055794	-0.3482142857142857	0.7120181405895691
1684.600830078125	0.1011100273981566	-9.566667665930549	-1.947737433693207	-0.05481567515726522	2.49950424998781	-0.7455158164346781	0.3047210300429185	-0.3482142857142857	0.7120181405895691
1704.132080078125	0.1605894195249732	-9.688474581063939	-1.773227666783028	1.684567554261587	1.415420932353518	-0.3401750884541308	0.2725321888412017	-0.3660714285714285	0.7097505668934241
1723.663330078125	0.4790269516715018	-9.671456936183382	-1.984327820211407	1.677892523089838	0.6732288110245168	-0.6925988980801031	0.2832618025751073	-0.375	0.7052154195011338
1743.194580078125	0.4698430169554425	-10.02490045037158	-2.08634251187078	0.6475351487874061	-1.888420255153226	-1.407014015336029	0.2896995708154507	-0.3705357142857142	0.7324263038548753
1762.725830078125	0.7043140589084722	-9.653507787053734	-2.064058952071709	1.680797953096699	1.777592613503138	-0.3438721972889248	0.3111587982832618	-0.3660714285714285	0.7165532879818595
1782.257080078125	0.6213314130018773	-9.592071899988605	-1.92905966753467	0.6429013764644912	-0.05971309037536685	-1.065681532214439	0.2939914163090129	-0.359375	0.7233560090702948
1801.788330078125	0.4470003731999304	-9.671136670398667	-1.842894462850183	0.6069337071316657	0.6289327538643462	-1.792711804475147	0.2811158798283262	-0.3705357142857142	0.7188208616780045
1821.319580078125	0.5091141245672458	-9.469737605892139	-1.931820619989892	-0.6838157346530115	-2.926904153970402	-0.7038317335850109	0.2811158798283262	-0.3705357142857142	0.7278911564625851
1840.850830078125	0.5832340498062778	-9.914923249588975	-2.200956001035945	1.710090591257776	0.346754647934423	0.03073426534581129	0.2875536480686695	-0.359375	0.7256235827664399
1860.382080078125	0.2855906642757935	-9.901845805632657	-2.028454182681394	0.6240533706400514	1.75114531537273	-1.084167076388408	0.2918454935622318	-0.3549107142857142	0.7142857142857143
1879.913330078125	0.0502630515267734	-9.687371317383956	-1.965080662881421	0.5567518042973154	1.299729839074297	-2.879560104031416	0.2982832618025751	-0.3571428571428571	0.7505668934240363
1899.444580078125	0.318156639923142	-9.791060354278022	-2.223827257620318	0.008403373487802925	-2.190878845927479	-0.3376353742867965	0.3047210300429185	-0.3459821428571428	0.7210884353741497
1918.975830078125	0.3500539246896582	-9.912591448337809	-2.352331244476026	1.710954762415803	-1.119780835693817	-0.3142953266105731	0.3068669527896996	-0.359375	0.7188208616780045
1938.507080078125	0.4070666353497194	-9.458616120898952	-1.931153330890301	0.6571156099660159	-0.04186433134560408	-0.7058635049188784	0.2939914163090129	-0.34375	0.7074829931972789
1958.038330078125	0.4374669414373938	-9.61043527547498	-1.909959449861832	-0.08614957216717573	1.359442929449663	-1.813878571816977	0.3004291845493562	-0.3638392857142857	0.7188208616780045
1977.569580078125	0.2164445062531023	-9.497113940012028	-2.256695523269409	1.367318552773243	0.3498380545774623	0.02384799050969024	0.296137339055794	-0.359375	0.7369614512471655
1997.100830078125	0.479837057542238	-9.843182208959263	-2.065338407285031	1.050069551284899	-0.7157448231985937	0.3878710694735113	0.3175965665236051	-0.3616071428571428	0.7029478458049887
2016.632080078125	0.6030706149192575	-9.804010504128994	-2.143796185803295	0.9810396426261089	1.765910667759453	-0.7174627742567271	0.3004291845493562	-0.3816964285714285	0.7052154195011338
2036.163330078125	0.2870250163162492	-9.59882984612276	-2.171889386726962	0.9894430161139119	-0.4249681781680255	-1.055098148543524	0.3004291845493562	-0.3616071428571428	0.7052154195011338
2055.694580078125	0.3975271429447583	-9.892864160318338	-1.997612253659504	-0.326829462666954	-2.912138801583678	-0.3371274314533296	0.2875536480686695	-0.3616071428571428	0.7278911564625851
2075.225830078125	0.7721612192381874	-9.745095349566119	-1.705917842186089	1.010332280787186	0.3350727021907388	-0.342856311621991	0.2811158798283262	-0.375	0.7256235827664399
2094.757080078125	0.3476417890047229	-9.93276934718298	-2.111117675982494	0.9233185374619828	3.161051115268643	-1.811705291482584	0.2982832618025751	-0.3549107142857142	0.7256235827664399
2114.288330078125	0.08068355975586276	-9.536160370951094	-1.94590699599444	0.9810396426261089	1.765910667759453	-0.7174627742567271	0.2896995708154507	-0.375	0.7165532879818595
2133.819580078125	0.2643783333324614	-9.740017520707063	-1.948037414878788	1.39661119093432	-1.080999910991252	0.3984544531444263	0.315450643776824	-0.3705357142857142	0.7120181405895691
2153.350830078125	0.8189677255977369	-9.796068465134766	-2.304935825079804	1.013237710794046	1.43943650466936	0.005870389169187333	0.3090128755364807	-0.3571428571428571	0.7188208616780045
2172.882080078125	0.5602742336305595	-9.702572439306003	-1.945790709994724	0.583451928984311	4.268498324390302	-1.469864865527526	0.2939914163090129	-0.3794642857142857	0.7278911564625851
2192.413330078125	0.225107225720658	-9.790129860135997	-2.102559306759675	1.356873920436606	-0.03018238560191986	-0.332272927951076	0.2982832618025751	-0.3660714285714285	0.7120181405895691
2211.944580078125	0.2647763155183342	-9.729920490427913	-1.987835633466079	0.9743646114543602	1.023718546430452	-1.069886583882699	0.3004291845493562	-0.3415178571428572	0.7142857142857143
2231.475830078125	0.7927048593006875	-9.634189674855634	-1.71946552190548	1.279440638290013	4.642351951283606	-1.099971397394518	0.2918454935622318	-0.3638392857142857	0.7278911564625851
2251.007080078125	0.3049747014210801	-9.710120454084921	-1.926041570679439	1.34933471810683	0.6941609766973188	-0.3396671456206639	0.3004291845493562	-0.3549107142857142	0.7324263038548753
2270.538330078125	0.07131174512464515	-9.576470693208824	-2.029133696137984	0.6704656723095137	1.442519911312399	-0.001015885666933716	0.2875536480686695	-0.3794642857142857	0.7369614512471655
2290.069580078125	0.2957685443494644	-9.689826372312185	-2.025834026783175	0.9990234772925217	1.421587745639597	-0.3539476381263729	0.3218884120171674	-0.3727678571428571	0.7324263038548753
2309.600830078125	0.1951331848168372	-9.507001836898676	-2.166379706173517	0.721511746301891	-0.6948126575257918	0.7408028219329504	0.278969957081545	-0.3415178571428572	0.7346938775510204
2329.132080078125	0.6026766731616675	-9.652491413196264	-2.104402010044301	0.6713298434675408	-0.02401557231584131	-0.3460454776233181	0.3025751072961373	-0.3794642857142857	0.7301587301587302
2348.663330078125	0.5431447554671722	-9.611492053615278	-2.273659220186614	0.6780048746392896	0.7181765490131601	0.006378332002654191	0.2875536480686695	-0.359375	0.7210884353741497
2368.194580078125	0.4480549249817866	-9.408520953290223	-1.948349641035797	0.2679312698120209	0.2698444793577662	-1.795900970476474	0.2811158798283262	-0.3794642857142857	0.7097505668934241
2387.725830078125	0.3369426936825484	-9.781147204714603	-2.061616307030351	1.32758128227553	1.400655579966795	-0.7068793905858121	0.2918454935622318	-0.3549107142857142	0.7165532879818595
2407.257080078125	0.3367467329108242	-9.791246255207897	-2.042020229857929	0.261256238640272	-0.4723476419712352	-2.148324780102446	0.3090128755364807	-0.3660714285714285	0.7324263038548753
2426.788330078125	0.7663894262070995	-9.724835611433789	-2.149146702342593	-0.01798383466641273	0.3443229221198566	-0.3635151361303542	0.2768240343347639	-0.3705357142857142	0.7278911564625851
2446.319580078125	0.4169172407324694	-9.711239879478034	-1.895805705899995	-1.502785856616742	0.2138664764539115	-3.26960445383932	0.296137339055794	-0.359375	0.7210884353741497
2465.850830078125	0.4983059376814311	-9.641346695740452	-1.87141009467372	0.6382676041415761	1.768994074402493	-0.7243490490928481	0.3004291845493562	-0.3794642857142857	0.7097505668934241
2485.382080078125	0.4483821996727074	-9.448928266441175	-1.981077110127885	1.685431725419614	-0.05111455127472191	-0.6852046804105152	0.3197424892703863	-0.3705357142857142	0.7233560090702948
2504.913330078125	0.3793027087166851	-9.660358683652825	-2.215985157382806	1.317136649938893	1.020635139787412	-1.063000309046578	0.2982832618025751	-0.359375	0.7278911564625851
2524.444580078125	0.2750390445859475	-9.659316047011519	-1.993700376962105	0.3038989391448463	-0.4188013648819469	-1.068870698215766	0.2875536480686695	-0.359375	0.7165532879818595
2543.975830078125	0.3494539210896366	-9.922686458402817	-2.292330884473866	0.06902990865879001	-2.481655490958047	1.105333843730238	0.2832618025751073	-0.3392857142857142	0.7301587301587302
2563.507080078125	0.6651035577209135	-9.80463083355701	-2.224641486377057	0.6835028181202316	-2.577066099392939	-0.6799837430753207	0.3025751072961373	-0.3660714285714285	0.7120181405895691
2583.038330078125	0.7569994296486084	-9.734842721569215	-2.2305552097588	0.3105739703165952	0.3233907564470545	-0.7164468885897933	0.296137339055794	-0.3459821428571428	0.7278911564625851
2602.569580078125	0.4681601785755839	-9.913772510876669	-1.918058673884923	0.1780120964799572	1.991459089957049	-3.613476651128245	0.296137339055794	-0.3638392857142857	0.7142857142857143
2622.100830078125	0.2345901521296574	-9.598305497480894	-2.030443784394308	1.338890085770194	0.3141405365179367	-0.6957880640814302	0.2918454935622318	-0.3683035714285714	0.7188208616780045
2641.632080078125	0.6004948418888616	-9.551459493873436	-1.886218882763719	1.007426850780325	-0.7692911002878819	-0.6915830124131694	0.3025751072961373	-0.3526785714285714	0.7188208616780045
2661.163330078125	0.386803805052886	-9.700837735020226	-1.945686627737578	1.003657249615437	-0.4071194191382627	-0.6952801212479633	0.2768240343347639	-0.3571428571428571	0.7324263038548753
2680.694580078125	0.3269385520250454	-9.609329991580857	-2.081610304545357	0.2641616686471329	0.6320161605073855	-1.799598079311268	0.2939914163090129	-0.3638392857142857	0.7233560090702948
2700.225830078125	0.3442357079621761	-9.811523165160432	-1.770509571727808	1.65236948609365	1.741895095443612	-1.063508251880045	0.2939914163090129	-0.359375	0.7301587301587302
2719.757080078125	0.2480003748297072	-9.891368892637187	-2.351057891133989	0.9772700414612209	2.128082348909073	-0.721159883091521	0.3004291845493562	-0.3772321428571428	0.7188208616780045
2739.288330078125	0.5970159919083613	-9.985768139717065	-2.558742047978984	0.3181131726463711	-0.4009526058521842	-0.7090526709202054	0.2939914163090129	-0.3660714285714285	0.7278911564625851
2758.819580078125	0.3072737051140922	-9.669739403717807	-2.155941939980644	0.6429013764644912	-0.05971309037536685	-1.065681532214439	0.3004291845493562	-0.3660714285714285	0.7233560090702948
2778.350830078125	0.5014615121704336	-9.681782291889384	-2.186967543573969	-0.01335006234349776	-1.484384242658003	-0.7048476192519446	0.2939914163090129	-0.3549107142857142	0.7324263038548753
2797.882080078125	0.2560287470568361	-9.800540085450368	-2.133486950581568	0.71860631629503	-1.799176460004413	0.3920761211417721	0.2939914163090129	-0.375	0.7165532879818595
2817.413330078125	0.5419811121216758	-9.692288497989905	-2.15729488563697	1.359779350443467	1.074181416876701	0.01645377284010233	0.3004291845493562	-0.3772321428571428	0.7097505668934241
2836.944580078125	0.5157101649680605	-9.853641950134529	-1.571016496806052	0.2632974974891059	2.098551644135625	-1.454568487354884	0.3025751072961373	-0.375	0.7165532879818595
2856.475830078125	0.3092474543303249	-9.760668232119061	-2.353316861603912	1.363548951608355	0.7120097357270816	0.02015088167489629	0.3004291845493562	-0.3616071428571428	0.7097505668934241
2876.007080078125	0.2969544100505173	-9.477717018847981	-2.144420596888455	0.01044463233663683	0.3800204401793821	0.3561209184607663	0.2939914163090129	-0.3683035714285714	0.7097505668934241
2895.538330078125	0.6225435414867695	-9.592084021273454	-2.050272516023882	0.6211479406331905	0.646781512894109	-1.432893777179587	0.3025751072961373	-0.3616071428571428	0.7074829931972789
2915.069580078125	0.2943362125231502	-9.659509018690891	-1.882600844151757	0.1637978629784324	1.973610330927286	-3.973294678423805	0.3025751072961373	-0.3504464285714285	0.7278911564625851
2934.600830078125	0.3359729908946347	-9.680127406676624	-1.964646028238981	1.392841589769432	-0.718828229841633	0.3947573443096323	0.2918454935622318	-0.3638392857142857	0.7301587301587302
2954.132080078125	0.6943099172509691	-9.986741078970491	-2.084052949586714	0.3796038789753852	-2.158264734510992	0.388886955140445	0.2939914163090129	-0.3571428571428571	0.7074829931972789
2973.663330078125	0.7415326289525249	-9.886203205077406	-1.704283303415756	0.6353621741347153	0.6646302719238718	-1.073075749884026	0.2811158798283262	-0.3549107142857142	0.7210884353741497
2993.194580078125	0.07397236714898336	-9.465386188317957	-2.295195898571805	0.2963597368150704	0.3055419974172918	-1.076264915885354	0.3047210300429185	-0.3638392857142857	0.7210884353741497
3012.725830078125	0.9168273108999611	-9.898057161997889	-1.886812722649166	0.7081616839583932	-2.179196900183794	0.03595520268100581	0.2918454935622318	-0.3571428571428571	0.7301587301587302
3032.257080078125	0.7120959650103396	-9.825302777831924	-1.821841398993148	0.9781342126192479	0.6615468652808326	-1.066189475047906	0.3197424892703863	-0.3571428571428571	0.7074829931972789
3051.788330078125	0.4172202728536924	-9.711242909799248	-1.926108918022298	1.613496386753963	1.326177137204704	-2.139265224931932	0.2875536480686695	-0.3549107142857142	0.7324263038548753
3071.319580078125	0.4384002803707608	-9.650848649268355	-2.003293343198526	1.006562679622298	0.6972443833403581	-0.346553420456785	0.2918454935622318	-0.3683035714285714	0.7165532879818595
3090.850830078125	0.2542509586123276	-9.699512206555822	-1.955708106130723	0.714836715130142	-1.437004778854793	0.3883790123069781	0.2918454935622318	-0.3549107142857142	0.7392290249433107
3110.382080078125	0.4396285705687848	-9.509446790756195	-2.126122363000927	1.118235288785662	-1.730864830528401	1.838234505160134	0.2768240343347639	-0.3616071428571428	0.7210884353741497
3129.913330078125	0.6744612308531407	-9.572401177965098	-2.140000636334472	0.01130880349466385	-1.086515043448858	0.01109132650438186	0.2811158798283262	-0.3616071428571428	0.7074829931972789
3149.444580078125	0.4483902805292734	-9.63074652906792	-1.981885195784479	-0.07484076867251187	0.2729278860008055	-1.802787245312595	0.3047210300429185	-0.375	0.7210884353741497
3168.975830078125	0.1044191381619121	-9.526296716634146	-2.278648510068756	0.2859151044784336	-0.07447844276209033	-1.43238583434612	0.3068669527896996	-0.3727678571428571	0.7233560090702948
3188.507080078125	0.2984150248748123	-9.891873039137637	-2.290482079317955	0.9894430161139119	-0.4249681781680255	-1.055098148543524	0.2939914163090129	-0.375	0.7256235827664399
3208.038330078125	0.7476114533042589	-9.916567023623953	-2.312165738589155	1.302922416437368	1.00278638075765	-1.422818336342139	0.296137339055794	-0.3571428571428571	0.7233560090702948
3227.569580078125	0.6809885839731449	-9.673476552506399	-1.772327785069576	0.9354915121146735	0.6080005881915443	-2.145643556934586	0.296137339055794	-0.3504464285714285	0.7210884353741497
3247.100830078125	0.6588853385934167	-9.54194238873947	-1.602819573627399	1.356009749278579	1.43635309802632	0.01275666400530838	0.2939914163090129	-0.3660714285714285	0.7142857142857143
3266.632080078125	0.4996897843683495	-9.590855483702271	-2.009794763365571	0.9990234772925217	1.421587745639597	-0.3539476381263729	0.296137339055794	-0.3549107142857142	0.7256235827664399
3286.163330078125	0.2768410756001539	-9.800748208735802	-2.173903478382734	1.006562679622298	0.6972443833403581	-0.346553420456785	0.2939914163090129	-0.3660714285714285	0.7233560090702948
3305.694580078125	0.5245910263340368	-10.17696308198051	-2.459102633403679	0.2490832639875812	2.080702885105863	-1.814386514650444	0.2918454935622318	-0.3504464285714285	0.7210884353741497
3325.225830078125	0.09368771941347377	-9.657502533759793	-2.225914798490234	0.3009935091379854	-1.523165167360568	-1.417597399006944	0.2811158798283262	-0.3727678571428571	0.7210884353741497
3344.757080078125	0.7238960770396244	-9.623400576932013	-1.981444438656325	0.6910420204500075	-3.301409461692178	-0.6725895254057328	0.296137339055794	-0.3638392857142857	0.7097505668934241
3364.288330078125	0.6733076885783517	-10.00673307688578	-2.024646408855571	0.6136087383034146	1.371124875193348	-1.440287994849175	0.3133047210300429	-0.3571428571428571	0.7324263038548753
3383.819580078125	0.07064305424381299	-9.808787238623248	-1.962264608054769	0.2461778339807202	0.9763390826272422	-2.163113215441622	0.2939914163090129	-0.3839285714285714	0.7165532879818595
3403.350830078125	0.3474902729441114	-9.68024257949712	-2.095966069921343	0.3825093089822462	-1.053900932032372	0.7376136559316233	0.3004291845493562	-0.3660714285714285	0.7437641723356009
3422.882080078125	0.6407174703613053	-9.57206374036018	-1.826849076946863	0.7328205497965549	-1.78132770097465	0.7518941484373323	0.2832618025751073	-0.359375	0.7233560090702948
3442.413330078125	0.5814138368647982	-9.743187875742386	-2.018934706887978	0.2972239079730974	-1.160993486210948	-1.421294507841738	0.2832618025751073	-0.3683035714285714	0.7165532879818595
3461.944580078125	0.3077969405767373	-9.700047666375466	-2.208265486245154	0.6286871429629663	-0.07756184940512961	-1.425499559509999	0.296137339055794	-0.3794642857142857	0.7142857142857143
3481.475830078125	0.4265031980626846	-9.691133718849317	-1.833993275656212	1.414595025600732	-1.425322833111109	0.7619695892747804	0.2832618025751073	-0.3370535714285714	0.7120181405895691
3501.007080078125	0.7250334576012816	-9.835533162858841	-2.095182494822036	0.6353621741347153	0.6646302719238718	-1.073075749884026	0.3025751072961373	-0.3772321428571428	0.7210884353741497
3520.538330078125	0.6013473722565692	-9.793892261601355	-1.971471919534465	1.305827846444229	2.10715018323627	-1.07409163555096	0.3068669527896996	-0.3504464285714285	0.7301587301587302
3540.069580078125	0.2655278351789674	-9.467301742998258	-2.062987599529391	1.013237710794046	1.43943650466936	0.005870389169187333	0.3090128755364807	-0.3549107142857142	0.7210884353741497
3559.600830078125	0.2788895727396216	-9.679556572495075	-2.378753192329503	0.6533460088011279	0.3203073498040153	-0.7095606137536723	0.3004291845493562	-0.390625	0.7256235827664399
3579.132080078125	0.4622247481990355	-9.620783863643608	-2.344923799495384	0.9450719732932835	2.454556511999166	-1.444493046517435	0.278969957081545	-0.3705357142857142	0.7165532879818595
3598.663330078125	0.4220000995124503	-9.933512930288057	-2.404091583898092	0.9923484461207727	0.6793956243105954	-0.7063714477523452	0.3047210300429185	-0.3705357142857142	0.7210884353741497
3618.194580078125	0.6035110216021016	-9.864620968801882	-2.187836854087709	0.6608852111309039	-0.4040360124952234	-0.7021663960840844	0.3090128755364807	-0.3638392857142857	0.7233560090702948
3637.725830078125	0.4272001719414976	-9.842655840103255	-1.903690663537509	0.6646548122957918	-0.7662076936448428	-0.6984692872492905	0.296137339055794	-0.3660714285714285	0.7165532879818595
3657.257080078125	0.1533145871726189	-9.688401832740416	-2.06615259481291	0.6420372053064641	1.406822393252873	-0.7206519402580541	0.3025751072961373	-0.3549107142857142	0.7256235827664399
3676.788330078125	0.5974483589634995	-9.692843170458325	-1.581570590227499	1.032085716618486	-0.3714219010787372	0.0243559333431571	0.296137339055794	-0.3638392857142857	0.7120181405895691
3696.319580078125	0.4890149316158729	-9.479637624063635	-1.962717651383212	0.6675602423026528	0.3381561088337781	-0.3497425864581121	0.296137339055794	-0.359375	0.7188208616780045
3715.850830078125	0.5611065618568521	-9.742984802992307	-2.029023532623983	1.338890085770194	0.3141405365179367	-0.6957880640814302	0.2832618025751073	-0.3683035714285714	0.7210884353741497
3735.382080078125	0.2956028867898625	-9.750430776342649	-2.009268270822983	1.655274916100511	2.846258897922233	-0.7147815510888669	0.3004291845493562	-0.3660714285714285	0.7188208616780045
3754.913330078125	0.3489428069118404	-9.91258033716003	-2.241219466694249	0.9848092437909969	1.403738986609834	-0.7137656654219331	0.3047210300429185	-0.3705357142857142	0.7301587301587302
3774.444580078125	0.2460670298963043	-9.699430367268661	-2.157723397793696	-0.002905430006860929	-1.104363802478621	-0.3487267007911783	0.3004291845493562	-0.3571428571428571	0.7188208616780045
3793.975830078125	0.5317890905490145	-9.712388597976199	-2.158500891636148	0.3189773438043981	-1.867488089480424	-1.05408226287659	0.2939914163090129	-0.3660714285714285	0.7165532879818595
3813.507080078125	0.0896695134860564	-9.526149220387389	-1.824094205748496	0.6571156099660159	-0.04186433134560408	-0.7058635049188784	0.3068669527896996	-0.359375	0.7278911564625851
3833.038330078125	0.6104181749807053	-9.420245595891222	-1.858144028682766	1.359779350443467	1.074181416876701	0.01645377284010233	0.2918454935622318	-0.3683035714285714	0.7029478458049887
3852.569580078125	0.4510104982707819	-9.620671721144326	-2.243906969935326	0.9705950102894721	1.385890227580071	-1.073583692717493	0.2939914163090129	-0.3459821428571428	0.7165532879818595
3872.100830078125	0.2783158319234392	-9.901773057309136	-2.321379110711276	0.6240533706400514	1.75114531537273	-1.084167076388408	0.2768240343347639	-0.3638392857142857	0.7324263038548753
3891.632080078125	0.4205253431891649	-9.832488081714722	-2.25661595156955	0.6675602423026528	0.3381561088337781	-0.3497425864581121	0.2918454935622318	-0.3526785714285714	0.7210884353741497
3911.163330078125	0.2652167222011784	-9.790530955100802	-2.031876301750493	0.3369611784708109	-2.211811011600281	-0.6905671267462357	0.296137339055794	-0.3526785714285714	0.7278911564625851
3930.694580078125	0.4074726983921582	-9.630337353246549	-1.971759635134187	0.2850509333204066	1.39205704086615	-1.087356242389735	0.2939914163090129	-0.3660714285714285	0.7165532879818595
3950.225830078125	0.5271870427347074	-9.449716314871795	-1.698296110205439	1.353104319271718	0.3319892955476995	-0.33597003678587	0.2939914163090129	-0.3571428571428571	0.7188208616780045
3969.757080078125	0.7366517503578326	-9.835649345786408	-2.236603607211831	0.6278229718049394	1.38897363422311	-1.080469967553614	0.2982832618025751	-0.3816964285714285	0.7210884353741497
3989.288330078125	0.5610358543619001	-9.793489146422408	-2.021952783128779	1.338025914612166	1.780676020146177	-0.3507584721250458	0.2918454935622318	-0.359375	0.7210884353741497
4008.819580078125	0.3910300930368765	-9.842294139314209	-2.36831542613663	0.6977170516217565	-2.559217340363177	-0.3201657157797604	0.2939914163090129	-0.3660714285714285	0.7301587301587302
4028.350830078125	0.6741016327359559	-9.814821824408169	-2.104040824616006	0.3645254743158334	-0.7095780099125152	0.3740985198012692	0.2918454935622318	-0.3526785714285714	0.7256235827664399
4047.882080078125	0.682097681536821	-9.501770471764864	-1.883237541437205	1.00569850846427	2.163779866968598	-0.001523828500400573	0.3133047210300429	-0.3526785714285714	0.7256235827664399
4067.413330078125	0.1739774198694667	-9.607800380259302	-2.091619537967073	0.972636269138306	3.956789513686932	-0.3798273999699306	0.3004291845493562	-0.359375	0.7256235827664399
4086.944580078125	0.2552348028992317	-9.48740083287748	-2.054092534821134	0.2963597368150704	0.3055419974172918	-1.076264915885354	0.2918454935622318	-0.3571428571428571	0.7188208616780045
4106.475830078125	0.3884684615054712	-9.781662462392832	-2.112152272996096	0.6704656723095137	1.442519911312399	-0.001015885666933716	0.3025751072961373	-0.34375	0.7097505668934241
4126.007080078125	0.4082504808366307	-9.579840080565944	-2.049537879581432	0.3360970073127839	-0.7452755279720408	-0.3455375347898513	0.2896995708154507	-0.3638392857142857	0.7074829931972789
4145.538330078125	0.3562964276157127	-10.0439670046802	-1.956173373816166	0.7223759174599179	-2.161348141154031	0.3957732299765661	0.3068669527896996	-0.3370535714285714	0.7233560090702948
4165.069580078125	0.6211031288038893	-9.379948405025415	-1.906231247735868	1.050069551284899	-0.7157448231985937	0.3878710694735113	0.2875536480686695	-0.3571428571428571	0.6961451247165533
4184.600830078125	0.591844243706155	-9.783696220214839	-2.041567227758345	0.3181131726463711	-0.4009526058521842	-0.7090526709202054	0.3025751072961373	-0.3549107142857142	0.7346938775510204
4204.132080078125	0.5110999950683275	-9.580868575708262	-2.130407670098051	0.9952538761276337	1.783759426789216	-0.3576447469611668	0.2811158798283262	-0.3727678571428571	0.7052154195011338
4223.663330078125	0.4409376693324683	-9.671076043359992	-2.257032239369277	-0.02175343583130069	0.7064946032694759	-0.3672122449651481	0.2918454935622318	-0.359375	0.7188208616780045
4243.194580078125	0.6005029227454276	-9.733277756500184	-1.887026968420314	0.6608852111309039	-0.4040360124952234	-0.7021663960840844	0.3111587982832618	-0.3504464285714285	0.7188208616780045
4262.725830078125	0.5106494873147759	-9.671773161539814	-2.085356894742894	0.2821455033135457	0.287693238387529	-1.436082943180914	0.3047210300429185	-0.3839285714285714	0.7256235827664399
4282.257080078125	0.2351457110185663	-9.850836305595035	-2.085999673285197	2.019800390416344	2.136680888009717	-0.3406830312875976	0.2939914163090129	-0.3571428571428571	0.7097505668934241
4301.788330078125	0.3900220061802745	-10.01400123016281	-2.267506740476436	0.7110671139652541	-1.074833097705174	0.3846819034721842	0.296137339055794	-0.3705357142857142	0.7256235827664399
4321.319580078125	0.4223354550599371	-9.650688001015247	-2.437627138646774	1.039624918948262	-1.095765263377976	0.031750151012745	0.296137339055794	-0.3683035714285714	0.7233560090702948
4340.850830078125	0.6813097980216412	-9.703782794949914	-1.804449189919217	0.3001293379799584	-0.05662968373232757	-1.07256780705056	0.2811158798283262	-0.3660714285714285	0.7074829931972789
4360.382080078125	0.6136808208192065	-9.470783272854659	-2.184408612532896	0.6344980029766882	2.131165755552112	-0.728046157927642	0.2811158798283262	-0.3571428571428571	0.7278911564625851
4379.913330078125	0.6012463615494948	-9.793891251494285	-1.961370848827031	1.669489149602035	2.864107656951996	-0.3549635237933066	0.3111587982832618	-0.3660714285714285	0.7210884353741497
4399.444580078125	0.1918483166227796	-9.587777069024815	-1.837892886767752	-0.06526030749390206	2.119483809808428	-1.101636734895444	0.2939914163090129	-0.3705357142857142	0.7233560090702948
4418.975830078125	0.3487286642128429	-9.89237617553102	-2.219805196794487	1.359779350443467	1.074181416876701	0.01645377284010233	0.3025751072961373	-0.3504464285714285	0.7188208616780045
4438.507080078125	0.6031736458404732	-9.470678201104873	-2.154099277924878	0.7478989544561067	-3.230014425573127	0.7666825837765081	0.3004291845493562	-0.3683035714285714	0.7233560090702948
4458.038330078125	0.5792845311596709	-9.561348400867153	-1.806004136375262	0.7081616839583932	-2.179196900183794	0.03595520268100581	0.3025751072961373	-0.3683035714285714	0.7142857142857143
4477.569580078125	0.4047595508001414	-9.822229413689822	-1.700444875932501	0.2841867621623796	2.85859252449439	-0.742326650433351	0.3047210300429185	-0.3839285714285714	0.7233560090702948
4497.100830078125	0.4069676448567865	-9.630332302711196	-1.921254281597015	0.6211479406331905	0.646781512894109	-1.432893777179587	0.2854077253218884	-0.3660714285714285	0.7278911564625851
4516.632080078125	0.4378871459788231	-9.469025336106254	-1.951979904004759	1.320906251103781	0.6584634586377933	-1.059303200211784	0.2939914163090129	-0.3772321428571428	0.7301587301587302
4536.163330078125	0.1126454913749066	-9.597086050873347	-2.080875668102906	2.349222366557379	0.6492132387086755	-1.038644375703421	0.2896995708154507	-0.3727678571428571	0.7482993197278912
4555.694580078125	-0.007523401149477186	-9.525177291241032	-2.3088843748482	0.6429013764644912	-0.05971309037536685	-1.065681532214439	0.2982832618025751	-0.3705357142857142	0.7210884353741497
4575.225830078125	0.684495675722766	-9.794723744636018	-2.123036960031697	1.371088153938131	-0.0123336265721571	0.02754509934448419	0.3025751072961373	-0.3683035714285714	0.7324263038548753
4594.757080078125	0.6871340753915478	-9.814952148834726	-2.386876926909882	0.6391317752996032	0.3024585907742525	-1.069378641049233	0.2896995708154507	-0.3616071428571428	0.7278911564625851
4614.288330078125	0.3578459318622331	-9.427820883561047	-2.111123798468209	1.702551388928	1.071098010233662	0.02334004767622338	0.2982832618025751	-0.3549107142857142	0.7301587301587302
4633.819580078125	0.3981614901851852	-9.771658382578622	-2.061046977702192	0.6429013764644912	-0.05971309037536685	-1.065681532214439	0.2875536480686695	-0.375	0.7210884353741497
4653.350830078125	0.3764279439933494	-9.751239026914684	-1.928508685049225	0.2925901356501825	0.6677136785669111	-1.079962024720148	0.2896995708154507	-0.3683035714285714	0.7097505668934241
4672.882080078125	0.3596479628764394	-10.07430355033584	-2.291326899888837	0.3323274061478959	-0.3831038468224214	-0.3492346436246452	0.3004291845493562	-0.3727678571428571	0.7142857142857143
4692.413330078125	0.3439609588389339	-9.690308296457079	-1.743034659403586	0.329421976141035	-1.487467649301042	-0.6979613444158236	0.3025751072961373	-0.3816964285714285	0.7233560090702948
4711.944580078125	0.5002433230431169	-9.6716690998971	-2.065148630842311	0.6646548122957918	-0.7662076936448428	-0.6984692872492905	0.296137339055794	-0.3705357142857142	0.7188208616780045
4731.475830078125	0.3380356295330929	-9.75085510377008	-2.170909892084791	-0.01044463233663683	-0.3800204401793821	-0.3561209184607663	0.2896995708154507	-0.359375	0.7414965986394558
4751.007080078125	0.4183596736294909	-9.590042182594884	-2.040048995602158	-0.02088926467327366	-0.7600408803587642	-0.7122418369215325	0.2918454935622318	-0.3683035714285714	0.7165532879818595
4770.538330078125	0.2642045949162935	-9.618803662110782	-1.930663573262001	0.2963597368150704	0.3055419974172918	-1.076264915885354	0.3068669527896996	-0.3727678571428571	0.7346938775510204
4790.069580078125	0.4494327110262806	-9.852979175595113	-2.086128245485202	1.006562679622298	0.6972443833403581	-0.346553420456785	0.3004291845493562	-0.3660714285714285	0.7120181405895691
4809.600830078125	0.3391447270967691	-10.08419952807905	-2.28181964845242	0.3076685403097343	-0.7809730460315663	-1.065173589380972	0.278969957081545	-0.359375	0.7233560090702948
4829.132080078125	0.5607732265235067	-9.692476419133925	-1.99568999928945	0.3143435714814832	-0.03878092470256481	-0.7127497797549994	0.2918454935622318	-0.375	0.7165532879818595
4848.663330078125	0.4997503907925942	-9.691866190776615	-2.015855405790032	0.6855440769690655	-0.00616681328607855	0.0137725496722421	0.3068669527896996	-0.3526785714285714	0.7233560090702948
4868.194580078125	0.4355921827140941	-9.852840770311991	-1.722483577531851	0.9639199791177231	0.6436981062510698	-1.426007502343466	0.3111587982832618	-0.3683035714285714	0.7052154195011338
4887.725830078125	0.2840755036696783	-9.901830654026597	-1.876938122069879	0.2670670986539939	1.736379962986007	-1.45087137852009	0.2811158798283262	-0.3705357142857142	0.7142857142857143
4907.257080078125	0.447446840525199	-9.741848205778991	-1.887541195377043	0.9743646114543602	1.023718546430452	-1.069886583882699	0.2918454935622318	-0.3459821428571428	0.7278911564625851
4926.788330078125	0.3662642054186689	-9.650127288518835	-1.932542990846484	1.341795515777054	1.418504338996557	-0.3470613632902518	0.2982832618025751	-0.3571428571428571	0.7210884353741497
4946.319580078125	0.4680026018725479	-9.651144672483374	-1.902301003581326	-0.03046972585188347	-2.606596804166387	-1.413392347338683	0.3025751072961373	-0.3459821428571428	0.7346938775510204
4965.850830078125	0.2231092339347275	-9.658796748905006	-1.902760128166624	0.3038989391448463	-0.4188013648819469	-1.068870698215766	0.3004291845493562	-0.3549107142857142	0.7074829931972789
4985.382080078125	0.7660379089464807	-9.644024015453104	-2.113994976280722	1.378627356267907	-0.7366769888713958	0.0349393170140721	0.2896995708154507	-0.3705357142857142	0.7120181405895691
5004.913330078125	0.7053362872640646	-9.673720029539309	-2.166281787630945	0.3323274061478959	-0.3831038468224214	-0.3492346436246452	0.3004291845493562	-0.3638392857142857	0.7188208616780045
5024.444580078125	0.4085333108164388	-9.882873211896046	-2.077820877562248	0.9781342126192479	0.6615468652808326	-1.066189475047906	0.2918454935622318	-0.3727678571428571	0.7165532879818595
5043.975830078125	0.3154778359715304	-9.871841647046585	-1.955946862459159	0.9781342126192479	0.6615468652808326	-1.066189475047906	0.3025751072961373	-0.3571428571428571	0.7074829931972789
5063.507080078125	0.4593802866878219	-9.762169560442636	-2.060477648374033	0.3465416396494207	-0.3652550877926586	0.010583383670915	0.3004291845493562	-0.3638392857142857	0.7165532879818595
5083.038330078125	0.3069706729928691	-9.669736373396596	-2.125638727858342	0.3465416396494207	-0.3652550877926586	0.010583383670915	0.2939914163090129	-0.375	0.7165532879818595
5102.569580078125	0.4993463479642968	-9.691862150348333	-1.975451122960294	0.3427720384845327	-0.003083406643039275	0.006886274836121049	0.2875536480686695	-0.3571428571428571	0.7142857142857143
5122.100830078125	0.5758097628363136	-9.662323754194022	-1.45852730403952	0.2679312698120209	0.2698444793577662	-1.795900970476474	0.2854077253218884	-0.3727678571428571	0.7278911564625851
5141.632080078125	0.3493549305967037	-9.589352135164555	-2.282431835180581	0.6211479406331905	0.646781512894109	-1.432893777179587	0.2982832618025751	-0.3549107142857142	0.7324263038548753
5161.163330078125	0.5323911143631777	-9.874010779830503	-2.218703273052457	0.3038989391448463	-0.4188013648819469	-1.068870698215766	0.2854077253218884	-0.3660714285714285	0.7165532879818595
5180.694580078125	0.6044221381799121	-10.03634725168483	-2.278948511868767	0.6750994446324288	-0.3861872534654606	-0.3423483687885241	0.296137339055794	-0.3638392857142857	0.7324263038548753
5200.225830078125	0.5912907050313875	-9.702882604020012	-1.986213360281605	1.02164108428185	-0.7514423412581193	-0.3317649851176092	0.2939914163090129	-0.3816964285714285	0.7278911564625851
5219.757080078125	0.6509034312915422	-9.541862569666453	-1.82503700670524	0.6713298434675408	-0.02401557231584131	-0.3460454776233181	0.2875536480686695	-0.3616071428571428	0.7074829931972789
5239.288330078125	0.3677995681661989	-9.347112339116007	-2.086079265599486	1.02454651428871	0.3529214612205015	0.01696171567356919	0.2896995708154507	-0.3660714285714285	0.7256235827664399
5258.819580078125	0.3968119871386719	-9.711038826942097	-1.926096673050869	1.665719548437147	3.226279338101615	-0.3586606326281006	0.296137339055794	-0.3638392857142857	0.7233560090702948
5278.350830078125	0.535948752695196	-9.571016053183518	-1.554058942988991	0.3068043691517073	0.6855624375966739	-0.7201439974245873	0.3068669527896996	-0.3705357142857142	0.7165532879818595
5297.882080078125	0.4890189720441559	-9.823072007902262	-1.96312169421151	1.332215054598445	-0.4280515848110647	-1.048211873707402	0.2918454935622318	-0.3616071428571428	0.7233560090702948
5317.413330078125	0.2061938984703378	-9.587920524843291	-2.252042908258275	0.3503112408143086	-0.727426768942278	0.01428049250570896	0.2854077253218884	-0.3705357142857142	0.7188208616780045
5336.944580078125	0.3970018872679717	-9.690838705741369	-1.945086685980846	0.4402304141463723	-2.449041379541561	1.83185617315748	0.2982832618025751	-0.34375	0.7210884353741497
5356.475830078125	0.7852239651059015	-9.795731027529849	-1.991784265692195	0.0669886498099561	-5.052554777064908	0.4115775509826756	0.2832618025751073	-0.3727678571428571	0.7210884353741497
5376.007080078125	0.6449134551331736	-9.663014791116989	-2.246447554133686	0.5927194736301409	0.6110839948345835	-2.152529831770707	0.278969957081545	-0.3549107142857142	0.7188208616780045
5395.538330078125	0.1817249823309288	-9.890706138712199	-1.845967620847985	0.251988693994442	3.185066687584484	-1.465659813859265	0.2854077253218884	-0.3526785714285714	0.7188208616780045
5415.069580078125	-0.1447974880386903	-9.735925762493352	-1.846781808375864	0.3172490014883441	1.065582877776056	-0.364023078963821	0.296137339055794	-0.3526785714285714	0.7142857142857143
5434.600830078125	0.6735117302066419	-9.673401783968734	-2.045050571684589	0.6901778492919806	-1.834873978063938	-0.3275599334493484	0.3025751072961373	-0.3549107142857142	0.7210884353741497
5454.132080078125	0.6514650508228756	-9.804494448488029	-1.881198959838575	0.581410670135477	1.697599038283442	-2.163621158275089	0.3047210300429185	-0.359375	0.7256235827664399
5473.663330078125	0.460982316502021	-10.07531689387209	-2.220680629793942	0.9299935686337316	3.903243236597644	-1.459281481856611	0.3090128755364807	-0.3549107142857142	0.7188208616780045
5493.194580078125	0.1939170159036621	-9.668605836825705	-2.044762814856007	1.360643521601494	-0.3923540667515392	-0.3285758191162821	0.296137339055794	-0.34375	0.7074829931972789
5512.725830078125	0.7764986189999598	-9.735037713462729	-2.139657818363319	0.9998876484505487	-0.04494773798864335	-0.6989772300827574	0.3047210300429185	-0.3549107142857142	0.7278911564625851
5532.257080078125	0.4814956533523987	-9.913905865624436	-2.231197988301103	0.5663322654759252	3.146285762881919	-2.178409593614265	0.3068669527896996	-0.3549107142857142	0.7188208616780045
5551.788330078125	0.2140646939944307	-9.739514384313683	-2.018714297402255	1.360643521601494	-0.3923540667515392	-0.3285758191162821	0.2918454935622318	-0.3638392857142857	0.7346938775510204
5571.319580078125	0.4185576546153567	-9.751660324020904	-2.059847094188729	0.2963597368150704	0.3055419974172918	-1.076264915885354	0.3025751072961373	-0.3549107142857142	0.7324263038548753
5590.850830078125	0.6531276870613193	-9.713601983941324	-2.047462583682944	0.6542101799591551	-1.146228133824225	-1.054590205710057	0.2832618025751073	-0.3482142857142857	0.7278911564625851
5610.382080078125	0.4174445166233974	-9.579932020923813	-1.948533294992803	0.259527896324218	2.460723325285245	-1.458265596189678	0.2832618025751073	-0.375	0.7188208616780045
5629.913330078125	-0.008808257343462833	-9.403952321466971	-2.180398755449635	0.005497943480941993	-3.295242648406099	-0.6863620750779749	0.2982832618025751	-0.3482142857142857	0.7074829931972789
5649.444580078125	0.570375345566854	-9.530956278708194	-1.935493740358856	0.3398666084776718	-1.10744720912166	-0.3418404259550573	0.3218884120171674	-0.3683035714285714	0.7165532879818595
5668.975830078125	0.602529197529339	-9.743399029349032	-2.089654446811447	-0.04554813051143528	-1.157910079567909	-1.428180782677859	0.2939914163090129	-0.3772321428571428	0.7256235827664399
5688.507080078125	0.2442023722437119	-9.790320811601227	-1.971257632534458	1.323811681110642	1.762827261116414	-0.7105764994206061	0.3004291845493562	-0.3549107142857142	0.7074829931972789
5708.038330078125	0.5200172615177105	-9.793078960493967	-2.001726151771052	1.389071988604544	-0.3566565486920137	0.3910602354748384	0.296137339055794	-0.3816964285714285	0.7074829931972789
5727.569580078125	0.5423730336651243	-9.672090397003318	-2.196487039981815	0.6571156099660159	-0.04186433134560408	-0.7058635049188784	0.3068669527896996	-0.359375	0.7324263038548753
5747.100830078125	-0.04933795836541253	-9.544961165870893	-2.20906130631589	0.6173783394683025	1.008953194043728	-1.436590886014381	0.3004291845493562	-0.3526785714285714	0.7097505668934241
5766.632080078125	0.4892129126017387	-9.641255765489655	-1.982515749969783	0.7194704874530571	-3.265711943632652	0.04704652918538767	0.296137339055794	-0.3571428571428571	0.7256235827664399
5786.163330078125	0.7548822452283301	-9.573205388108851	-2.018836767730976	0.6855440769690655	-0.00616681328607855	0.0137725496722421	0.3068669527896996	-0.3727678571428571	0.7301587301587302
5805.694580078125	0.3150717729290915	-9.70012041469899	-1.915340558215273	0.9233185374619828	3.161051115268643	-1.811705291482584	0.2768240343347639	-0.34375	0.7278911564625851
5825.225830078125	0.01982436137041065	-9.808279051694514	-1.982436137041065	-0.3770113655013042	-2.241341716373728	-1.423975731009598	0.296137339055794	-0.3616071428571428	0.7233560090702948
5844.757080078125	0.4817320184069527	-9.80279711816387	-2.254834493756499	1.057608753614675	-1.440088185497832	0.3952652871430992	0.3218884120171674	-0.3794642857142857	0.7165532879818595
5864.288330078125	0.5615227259699983	-9.763190984835459	-2.070639943938613	0.6675602423026528	0.3381561088337781	-0.3497425864581121	0.2918454935622318	-0.3727678571428571	0.7210884353741497
5883.819580078125	0.4878411871996691	-9.711949118942705	-1.845343209762825	0.2281939993143075	1.320662004747099	-2.526628351571977	0.278969957081545	-0.359375	0.7256235827664399
5903.350830078125	0.4273840114283728	-9.812354648195093	-1.922074612225039	0.6211479406331905	0.646781512894109	-1.432893777179587	0.3068669527896996	-0.3705357142857142	0.7097505668934241
5922.882080078125	0.4745844595455121	-10.01484685469647	-2.560486770877748	1.050069551284899	-0.7157448231985937	0.3878710694735113	0.2982832618025751	-0.3549107142857142	0.7188208616780045
5942.413330078125	0.8754390188678794	-9.786532167966456	-1.82961617250223	0.2888205344852945	1.029885359716531	-1.083659133554941	0.2854077253218884	-0.359375	0.7278911564625851
5961.944580078125	0.2858027867606496	-9.750332775342356	-2.049666431167006	0.2670670986539939	1.736379962986007	-1.45087137852009	0.2854077253218884	-0.3571428571428571	0.7233560090702948
5981.475830078125	0.3682763387035898	-9.973379733084009	-2.133756319338576	0.6750994446324288	-0.3861872534654606	-0.3423483687885241	0.2939914163090129	-0.3705357142857142	0.7120181405895691
6001.007080078125	0.5617772729518257	-9.682385449497197	-2.096094642121347	1.378627356267907	-0.7366769888713958	0.0349393170140721	0.3047210300429185	-0.3415178571428572	0.7233560090702948
6020.538330078125	0.5856179024932323	-9.51090668407544	-2.439341269731395	0.645806806471352	1.044650712103254	-0.7169548314232602	0.2896995708154507	-0.3616071428571428	0.7278911564625851
6040.069580078125	0.5595146331133605	-9.783372924108912	-1.869830658274818	0.9630558079596961	2.11023358987931	-1.080977910387081	0.3025751072961373	-0.3683035714285714	0.6916099773242631
6059.600830078125	0.4371457273888975	-10.08517953808197	-1.877838045012191	0.6600210399728769	1.062499471133017	-0.3571368041277	0.2939914163090129	-0.3660714285714285	0.7142857142857143
6079.132080078125	0.3795915993389178	-9.97349288569036	-2.244874219606068	2.399404269391729	-0.02158384650127492	0.04820392385284734	0.3133047210300429	-0.359375	0.7120181405895691
6098.663330078125	0.5621873764225476	-9.692490560632915	-2.137104989193531	0.9639199791177231	0.6436981062510698	-1.426007502343466	0.2982832618025751	-0.3638392857142857	0.7097505668934241
6118.194580078125	0.7048817390822301	-9.926240736582743	-2.12082696944749	1.014966053110101	-1.493634462587121	-0.6841887947435815	0.2854077253218884	-0.3794642857142857	0.7074829931972789
6137.725830078125	0.7644520408454135	-9.694513207277144	-1.955408166174002	-1.744329918274547	-2.59117977095119	-1.447823721519288	0.2918454935622318	-0.3571428571428571	0.7301587301587302
6157.257080078125	0.6399821124138041	-9.693268507992826	-1.753313282196741	0.645806806471352	1.044650712103254	-0.7169548314232602	0.3047210300429185	-0.3683035714285714	0.7120181405895691
6176.788330078125	0.3739228784579057	-9.953234178279532	-1.678002131504853	0.9659612379665571	3.214597392357931	-0.7322512095959028	0.2939914163090129	-0.3727678571428571	0.7414965986394558
6196.319580078125	0.1618621544341099	-9.789497409423131	-1.900501157696701	0.7110671139652541	-1.074833097705174	0.3846819034721842	0.2896995708154507	-0.359375	0.7142857142857143
6215.850830078125	0.3568802695026024	-9.670235469361693	-2.014557562505136	-0.646983894162159	-5.082085481838354	-0.321831053280687	0.296137339055794	-0.375	0.7188208616780045
6235.382080078125	0.5824744492890788	-9.490673229341379	-2.124995949316038	1.314231219932032	-0.08372866269120816	-1.411727009837757	0.2811158798283262	-0.3705357142857142	0.7165532879818595
6254.913330078125	-0.09402121966225922	-9.665726454470045	-1.822367829692445	0.6344980029766882	2.131165755552112	-0.728046157927642	0.3025751072961373	-0.3638392857142857	0.7301587301587302
6274.444580078125	0.5801835264526326	-9.712872542335235	-1.895903665671427	0.03392641048399156	-3.259545130346574	0.03327397951314558	0.296137339055794	-0.3549107142857142	0.7233560090702948
6293.975830078125	0.8199293475290846	-9.715270000546001	-2.401098018214578	-1.373993583944992	-1.092030175906463	-0.3762718001356626	0.3025751072961373	-0.3705357142857142	0.7188208616780045
6313.507080078125	0.7292516647287062	-9.795171304526075	-2.517003207564494	0.6165141683102755	2.475488677671969	-1.091561294057996	0.3068669527896996	-0.3616071428571428	0.7324263038548753
6333.038330078125	0.3064999630979027	-9.558620555186534	-2.078567738361698	0.6344980029766882	2.131165755552112	-0.728046157927642	0.2854077253218884	-0.3616071428571428	0.7120181405895691
6352.569580078125	0.2097293144467999	-9.416238707285885	-1.585176342639173	0.71860631629503	-1.799176460004413	0.3920761211417721	0.296137339055794	-0.3683035714285714	0.7233560090702948
6372.100830078125	0.427525426418277	-9.711345961334892	-1.936216111215447	0.6750994446324288	-0.3861872534654606	-0.3423483687885241	0.2982832618025751	-0.3638392857142857	0.7188208616780045
6391.632080078125	0.5078090662318453	-9.651542737126965	-1.80131478644984	2.04909302857742	0.705842922441003	0.03392343134713838	0.2982832618025751	-0.3638392857142857	0.7210884353741497
6411.163330078125	0.2421760974598006	-9.780199538752377	-1.768630154143325	0.2963597368150704	0.3055419974172918	-1.076264915885354	0.3025751072961373	-0.3727678571428571	0.7188208616780045
6430.694580078125	0.2990635136142295	-9.457536089681598	-2.355330953259684	0.6901778492919806	-1.834873978063938	-0.3275599334493484	0.2896995708154507	-0.3504464285714285	0.7301587301587302
6450.225830078125	0.6348466868372845	-9.723520184040092	-2.260178887810083	0.3578504431440845	-1.451770131241517	0.02167471017529686	0.296137339055794	-0.3660714285714285	0.7233560090702948
6469.757080078125	0.6115191916878155	-9.571771757573446	-1.968245699393801	0.9885788449558849	1.041567305460215	-0.7100685565871392	0.2875536480686695	-0.3571428571428571	0.7052154195011338
6489.288330078125	0.2344426764973288	-9.689213113633661	-2.015696221161454	0.64957640763624	0.6824790309536346	-0.7132577225884663	0.2896995708154507	-0.3549107142857142	0.7278911564625851
6508.819580078125	0.3028676180715093	-9.902018575170615	-1.715333235722358	0.6750994446324288	-0.3861872534654606	-0.3423483687885241	0.3004291845493562	-0.3415178571428572	0.7120181405895691
6528.350830078125	0.4807037294089359	-9.772483804970859	-2.152005593954817	0.6608852111309039	-0.4040360124952234	-0.7021663960840844	0.3111587982832618	-0.3616071428571428	0.7256235827664399
6547.882080078125	0.437749771417202	-9.408417901754577	-1.938242447842649	-0.1049975779916155	3.17030133519776	-1.832364115990947	0.3004291845493562	-0.3549107142857142	0.7278911564625851
6567.413330078125	0.1204960847575846	-9.546659506302124	-1.8455268431054	0.3540808419791966	-1.089598450091897	0.01797760134050291	0.2939914163090129	-0.3794642857142857	0.7142857142857143
6586.944580078125	0.4911422171068586	-9.489759907019556	-2.17544620048178	-0.02088926467327366	-0.7600408803587642	-0.7122418369215325	0.2939914163090129	-0.3571428571428571	0.7256235827664399
6606.475830078125	0.5389366494104552	-9.5003388614436	-1.852848614514899	1.323811681110642	1.762827261116414	-0.7105764994206061	0.2939914163090129	-0.3638392857142857	0.7029478458049887
6626.007080078125	0.5307507004802903	-9.833590335287633	-2.054661884763723	0.9517470044650324	3.196748633328168	-1.092069236891463	0.2682403433476395	-0.3683035714285714	0.7142857142857143
6645.538330078125	0.5817875764809732	-9.692686562633499	-2.056308668505485	1.370223982780104	1.454201857056083	0.3725746913008686	0.2982832618025751	-0.3459821428571428	0.7097505668934241
6665.069580078125	0.7260415444578836	-9.663826072010236	-2.195991180482231	1.32758128227553	1.400655579966795	-0.7068793905858121	0.2982832618025751	-0.3816964285714285	0.7052154195011338
6684.600830078125	0.05014587910656716	-9.828784287073894	-1.953363420860798	0.9743646114543602	1.023718546430452	-1.069886583882699	0.3090128755364807	-0.3526785714285714	0.7165532879818595
6704.132080078125	0.6652288109976856	-9.845036126493817	-2.237166814054276	0.7679240479713533	-1.003438061586123	1.823954012654425	0.3025751072961373	-0.359375	0.7210884353741497
6723.663330078125	0.4199516023729827	-9.549654061478279	-2.199241869951323	-0.03219806816793752	0.3264741630900938	-0.7233331634259144	0.3004291845493562	-0.3660714285714285	0.7029478458049887
6743.194580078125	0.3869937051821857	-9.680637613819499	-1.964676640667554	0.2812813321555186	1.754228722015769	-1.09105335122453	0.2832618025751073	-0.3616071428571428	0.7142857142857143
6762.725830078125	0.4977422979359562	-9.71204813005007	-1.815046120126237	0.6637906411377649	0.7003277899833973	-0.353439695292906	0.2918454935622318	-0.3638392857142857	0.7142857142857143
6782.257080078125	0.2058989472056807	-9.769735757148826	-2.222547781792566	0.6893136781339535	-0.3683384944356979	0.01746965850703605	0.3090128755364807	-0.3683035714285714	0.7188208616780045
6801.788330078125	0.4574752247523999	-9.449019196691971	-1.869971454831821	1.356009749278579	1.43635309802632	0.01275666400530838	0.2768240343347639	-0.3683035714285714	0.7392290249433107
6821.319580078125	0.6128303106656405	-9.905118202096556	-2.099357597176299	0.6391317752996032	0.3024585907742525	-1.069378641049233	0.296137339055794	-0.3638392857142857	0.7301587301587302
6840.850830078125	0.2841583324494793	-9.871528452011363	-1.885221000049975	-0.04727647282748933	1.775160887688571	-0.7381215987650902	0.2875536480686695	-0.3638392857142857	0.7052154195011338
6860.382080078125	0.4001210979024274	-9.670667877645693	-2.257007749426418	0.3653896454738604	-2.176113493540755	0.02906892784488477	0.2854077253218884	-0.3660714285714285	0.7120181405895691
6879.913330078125	0.5721511137972209	-9.460266965683427	-2.113070563395552	0.6968528804637294	-1.092681856734937	0.02486387617662396	0.2896995708154507	-0.3526785714285714	0.7256235827664399
6899.444580078125	0.6022746505475116	-9.824204564687296	-2.064199748628713	0.2055763923249797	3.493692091644815	-2.54881100458074	0.2854077253218884	-0.3549107142857142	0.7120181405895691
6918.975830078125	0.2012039695408653	-9.688880726564097	-1.753050015311018	0.1637978629784324	1.973610330927286	-3.973294678423805	0.2875536480686695	-0.3526785714285714	0.7278911564625851
6938.507080078125	0.2849583372495081	-9.689718270241183	-1.965221480052855	0.71860631629503	-1.799176460004413	0.3920761211417721	0.296137339055794	-0.3660714285714285	0.7233560090702948
6958.038330078125	0.562508590471044	-9.722796803076429	-2.169226394043172	1.077320930597142	-4.717482074874169	0.06872123936068454	0.2875536480686695	-0.3571428571428571	0.7233560090702948
6977.569580078125	0.7732662763735807	-9.735005390036465	-1.81642355572542	0.5701018666408132	2.7841140817323	-2.174712484779471	0.3004291845493562	-0.3705357142857142	0.7120181405895691
6997.100830078125	0.3577651232965736	-9.629840277495592	-2.103042941902261	-0.4071681748204078	0.6560317328232269	-1.45355260168795	0.3111587982832618	-0.3638392857142857	0.7097505668934241
7016.632080078125	0.4790754368108975	-9.752265501842858	-1.989176334150976	1.39951662094118	0.02336389148736843	0.7471811539356047	0.2854077253218884	-0.3549107142857142	0.7120181405895691
7036.163330078125	0.1726117551098215	-9.688594804419788	-1.955053062002561	0.3172490014883441	1.065582877776056	-0.364023078963821	0.296137339055794	-0.3549107142857142	0.7097505668934241
7055.694580078125	0.4591883663443807	-9.610652489724052	-2.041285614029908	0.6031641059667777	0.9911044350139655	-1.796408913309941	0.2854077253218884	-0.3727678571428571	0.7188208616780045
7075.225830078125	0.3588722006461085	-9.791467509885251	-2.213750676855741	0.2470420051387472	-0.490196401000998	-2.508142807398007	0.3090128755364807	-0.3638392857142857	0.7210884353741497
7094.757080078125	0.4501034221212543	-10.29743032715051	-2.153199354982566	1.006562679622298	0.6972443833403581	-0.346553420456785	0.2896995708154507	-0.3638392857142857	0.7392290249433107
7114.288330078125	0.5923311153142532	-9.753398058627891	-2.090254388568179	0.7177421451370031	-0.3326409763761723	0.7371057130981565	0.2854077253218884	-0.3683035714285714	0.7233560090702948
7133.819580078125	0.5214354518450344	-9.631476980781077	-2.14354518450343	0.3068043691517073	0.6855624375966739	-0.7201439974245873	0.296137339055794	-0.3660714285714285	0.7188208616780045
7153.350830078125	0.4067959266547601	-9.680835636034226	-1.904082461394377	0.6893136781339535	-0.3683384944356979	0.01746965850703605	0.3133047210300429	-0.3504464285714285	0.7142857142857143
7172.882080078125	0.4911422171068586	-9.489759907019556	-2.17544620048178	-0.01421423350152478	-0.01784875902976276	-0.3598180272955602	0.3068669527896996	-0.3638392857142857	0.7188208616780045
7192.413330078125	0.5001907974754384	-9.752476655449504	-2.059896074074445	0.6353621741347153	0.6646302719238718	-1.073075749884026	0.296137339055794	-0.359375	0.7210884353741497
7211.944580078125	0.315235410274552	-9.467798818749213	-1.931704292761317	0.9459361444513106	0.9880210283709263	-1.78952263847382	0.2896995708154507	-0.375	0.7210884353741497
7231.475830078125	0.2573317851780951	-9.952068267346732	-2.263790762707471	1.013237710794046	1.43943650466936	0.005870389169187333	0.3197424892703863	-0.3727678571428571	0.7210884353741497
7251.007080078125	0.6642247645693666	-9.855127096130543	-2.136762171222378	0.6759636157904557	-1.852722737093701	-0.6873779607449086	0.2875536480686695	-0.3794642857142857	0.7210884353741497
7270.538330078125	0.5395790775074479	-9.560951346330631	-1.917091424214181	1.010332280787186	0.3350727021907388	-0.342856311621991	0.2746781115879828	-0.3571428571428571	0.7301587301587302
7290.069580078125	0.5315082807833479	-9.581072658565413	-2.13041991506948	1.677028351931811	2.139764294652757	-0.3475693061237187	0.2896995708154507	-0.3526785714285714	0.7369614512471655
7309.600830078125	0.1941917650269043	-9.78982070552906	-2.072237727180228	-0.0388730993396864	-0.4157179582389076	-1.075756973051887	0.2875536480686695	-0.3727678571428571	0.7165532879818595
7329.132080078125	0.2628045865162431	-9.305658348895468	-1.79066273325696	1.382396957432795	-1.098848670021015	0.03863642584886606	0.3004291845493562	-0.3415178571428572	0.7142857142857143
7348.663330078125	0.5099666549349533	-9.712170373620058	-2.017073656760638	0.6939474504568685	-2.197045659213557	-0.3238628246145544	0.296137339055794	-0.3526785714285714	0.7369614512471655
7368.194580078125	0.44060029357084	-9.782183780713487	-2.223294663206446	0.9563807767879473	1.368041468550309	-1.433401720013054	0.296137339055794	-0.3526785714285714	0.7256235827664399
7387.725830078125	0.5618196974487969	-9.753092944449238	-2.100337091818469	0.6429013764644912	-0.05971309037536685	-1.065681532214439	0.2918454935622318	-0.3459821428571428	0.7142857142857143
7407.257080078125	0.4698450371695839	-9.691567137240385	-2.086544533284928	1.078498018287949	-0.6800473051390682	1.107507124064632	0.2982832618025751	-0.3683035714285714	0.7301587301587302
7426.788330078125	0.7155687131195555	-9.552610232585742	-2.169116209914741	1.038760747790235	0.3707702202502642	0.3767797429691294	0.3025751072961373	-0.3616071428571428	0.7142857142857143
7446.319580078125	0.3969412808437271	-9.589827998667024	-1.939026043556385	0.6315925729698273	1.026801953073491	-1.07677285871882	0.2896995708154507	-0.359375	0.7233560090702948
7465.850830078125	0.2638066127304206	-9.628900692389932	-1.890865354674709	0.6353621741347153	0.6646302719238718	-1.073075749884026	0.315450643776824	-0.3638392857142857	0.7346938775510204
7485.382080078125	0.5846764827032994	-9.793725552705823	-2.345199290738107	-0.0464123016694623	0.3086254040603311	-1.083151190721475	0.3004291845493562	-0.3504464285714285	0.7278911564625851
7504.913330078125	0.5104959510400229	-9.75257970698515	-2.070003267267594	1.29915281527248	1.364958061907269	-1.426515445176933	0.3068669527896996	-0.3526785714285714	0.6961451247165533
7524.444580078125	0.5385467480811481	-9.6922541543495	-1.813858481584202	0.6429013764644912	-0.05971309037536685	-1.065681532214439	0.2875536480686695	-0.3459821428571428	0.7165532879818595
7543.975830078125	0.459762107160563	-9.893486509960495	-2.098659695648135	0.3474058108074477	-1.831790571420899	-0.3344462082854694	0.2875536480686695	-0.3549107142857142	0.7233560090702948
7563.507080078125	0.5214556539864492	-9.833497384822694	-2.145565398644917	-0.009580461178609809	-1.846555923807622	-0.7011505104171507	0.2939914163090129	-0.3482142857142857	0.6984126984126985
7583.038330078125	0.4787178589078543	-9.661352835154737	-1.953418543846658	0.9923484461207727	0.6793956243105954	-0.7063714477523452	0.2832618025751073	-0.3526785714285714	0.7392290249433107
7602.569580078125	0.3566075405935017	-9.720737792577653	-1.987284671595063	0.9914842749627457	2.145931107938835	-0.3613418557959608	0.2854077253218884	-0.3683035714285714	0.7074829931972789
7622.100830078125	0.4891179625370888	-9.651355826090018	-1.973020743504795	-0.06439613633587504	0.6529483261801876	-1.446666326851829	0.2939914163090129	-0.3683035714285714	0.7301587301587302
7641.632080078125	0.374492578845805	-9.892633814677348	-1.734972170294782	1.341795515777054	1.418504338996557	-0.3470613632902518	0.2896995708154507	-0.3504464285714285	0.7142857142857143
7661.163330078125	0.1936907519198156	-9.628199533781826	-2.022136416471354	1.035855317783374	-0.7335935822283565	0.02805304217795105	0.2832618025751073	-0.3660714285714285	0.7278911564625851
7680.694580078125	0.6549216372189597	-9.673215883038857	-2.226857599446978	0.6817744758041775	0.3560048678635408	0.01007544083744814	0.2982832618025751	-0.3571428571428571	0.7142857142857143
7700.225830078125	0.554094357342891	-9.84392478195727	-2.348211244493194	0.2490832639875812	2.080702885105863	-1.814386514650444	0.3047210300429185	-0.3660714285714285	0.7142857142857143
7719.757080078125	0.1233950920506183	-10.00123395092051	-2.135427572408766	-0.0313338970099105	-1.140061320538146	-1.068362755382299	0.2746781115879828	-0.3660714285714285	0.6984126984126985
7739.288330078125	0.6732107182995603	-9.34006544051633	-2.014949380976435	1.079362189445976	-2.146582788767308	0.7624775321082473	0.3047210300429185	-0.3683035714285714	0.7188208616780045
7758.819580078125	0.6621075801490883	-9.693489762670181	-1.925043729194554	0.5985303336438628	2.819811599791825	-1.455076430188351	0.296137339055794	-0.3459821428571428	0.7142857142857143
7778.350830078125	-0.0729684856361045	-9.898260214133538	-1.886824905777305	-0.0832441421603148	2.463806731928284	-1.465151871025799	0.2811158798283262	-0.3660714285714285	0.7142857142857143
7797.882080078125	-0.04278636267571058	-9.686440823241933	-1.843812712020779	0.04146561281376747	-3.983888492645813	0.04066819718273348	0.3025751072961373	-0.3705357142857142	0.7301587301587302
7817.413330078125	0.5631934430650081	-9.854116782915499	-2.237711653439577	1.090670992940639	-3.233097832216167	0.7735688586126291	0.2811158798283262	-0.3549107142857142	0.7120181405895691
7836.944580078125	0.5434437471601123	-9.77311120514837	-2.30355838948062	0.2783759021486577	0.6498649195371483	-1.439780052015708	0.3004291845493562	-0.3549107142857142	0.7188208616780045
7856.475830078125	0.4592530131969083	-9.550047075586516	-2.047750299282666	0.9668254091245841	1.748061908729691	-1.077280801552287	0.2982832618025751	-0.3526785714285714	0.7120181405895691
7876.007080078125	0.4890411943997122	-9.691759098812685	-1.965343929767145	0.3210186026532321	0.7034111966264366	-0.3603259701290271	0.296137339055794	-0.3549107142857142	0.6984126984126985
7895.538330078125	0.4385800794293531	-9.782163578572071	-2.021273249057759	0.3398666084776718	-1.10744720912166	-0.3418404259550573	0.2918454935622318	-0.3683035714285714	0.7301587301587302
7915.069580078125	0.2849138925383954	-9.952344088420334	-1.960777008941584	0.2925901356501825	0.6677136785669111	-1.079962024720148	0.3068669527896996	-0.359375	0.7210884353741497
7934.600830078125	0.4289900816708549	-9.458835355362165	-2.082681636473245	0.3218827738112591	-0.7631242870018035	-0.7053555620854115	0.2939914163090129	-0.359375	0.7324263038548753
7954.132080078125	0.4190586677224454	-9.913281495768137	-2.109948404897604	0.6817744758041775	0.3560048678635408	0.01007544083744814	0.2832618025751073	-0.359375	0.7120181405895691
7973.663330078125	0.4679238135210299	-9.519830753286728	-1.894422168429527	0.6759636157904557	-1.852722737093701	-0.6873779607449086	0.3025751072961373	-0.3861607142857142	0.7052154195011338
7993.194580078125	0.5595348352547752	-9.480342823100024	-1.871850872416305	0.3030347679868193	1.047734118746293	-0.7238411062593813	0.2939914163090129	-0.3660714285714285	0.7233560090702948
8012.725830078125	0.06918445963365948	-9.566348410252903	-1.816405147039417	0.6675602423026528	0.3381561088337781	-0.3497425864581121	0.3111587982832618	-0.3482142857142857	0.7210884353741497
8032.257080078125	0.2356083400569668	-9.780133861178347	-2.132262577125247	0.6684244134606798	-1.128379374794462	-0.6947721784144965	0.3004291845493562	-0.3616071428571428	0.7256235827664399
8051.788330078125	0.4730531372262651	-9.651195177836911	-2.407354538953043	0.2888205344852945	1.029885359716531	-1.083659133554941	0.2939914163090129	-0.3705357142857142	0.7369614512471655
8071.319580078125	0.574520824985185	-9.874432076936721	-2.350041682191961	0.2963597368150704	0.3055419974172918	-1.076264915885354	0.3025751072961373	-0.375	0.7006802721088435
8090.850830078125	0.6022605090485211	-9.632285231353114	-2.062785598729672	0.008403373487802925	-2.190878845927479	-0.3376353742867965	0.3004291845493562	-0.3705357142857142	0.7165532879818595
8110.382080078125	0.4994877629542008	-9.590853463488131	-1.989592621950702	1.374857755103019	-0.3745053077217764	0.03124220817927815	0.3090128755364807	-0.3794642857142857	0.7210884353741497
8129.913330078125	0.8065696301825719	-9.674732362968493	-2.085534446828615	1.317136649938893	1.020635139787412	-1.063000309046578	0.2982832618025751	-0.3571428571428571	0.7097505668934241
8149.444580078125	0.2656975331668523	-9.750131722806419	-2.07995739831788	1.304963675286202	3.573685666864511	-0.7290620435945758	0.2768240343347639	-0.3660714285714285	0.7188208616780045
8168.975830078125	0.4584146243281912	-10.00458414624328	-1.963911412410961	1.039624918948262	-1.095765263377976	0.031750151012745	0.296137339055794	-0.3616071428571428	0.7278911564625851
8188.507080078125	0.5988665492908233	-9.531241190745437	-1.723389622959878	0.3436362096425598	-1.469618890271279	-0.3381433171202634	0.296137339055794	-0.3638392857142857	0.7210884353741497
8208.038330078125	0.6014726255333412	-9.834297554538164	-1.983997247211684	0.9990234772925217	1.421587745639597	-0.3539476381263729	0.3025751072961373	-0.3526785714285714	0.7256235827664399
8227.569580078125	0.3361285473835292	-9.771038053150605	-1.980201677128431	0.6600210399728769	1.062499471133017	-0.3571368041277	0.3218884120171674	-0.3660714285714285	0.7278911564625851
8247.100830078125	0.8629338521032157	-9.65509398498568	-1.599507659301161	0.6608852111309039	-0.4040360124952234	-0.7021663960840844	0.2896995708154507	-0.3683035714285714	0.6961451247165533
8266.632080078125	0.5416134331479252	-9.752890881806229	-2.120526988261909	0.6646548122957918	-0.7662076936448428	-0.6984692872492905	0.2918454935622318	-0.3571428571428571	0.7301587301587302
8286.163330078125	0.3270759265866665	-9.669937425932535	-2.095347760707468	0.3001293379799584	-0.05662968373232757	-1.07256780705056	0.3068669527896996	-0.359375	0.6938775510204082
8305.694580078125	0.4582671486958627	-9.590441257345546	-1.949163849178107	0.6930832792988414	-0.7305101755853173	0.02116676734183	0.3068669527896996	-0.3816964285714285	0.7074829931972789
8325.225830078125	0.8159252831006576	-9.775836020507777	-2.000691575371881	1.02454651428871	0.3529214612205015	0.01696171567356919	0.315450643776824	-0.3727678571428571	0.7256235827664399
8344.757080078125	0.4909381754785684	-9.823091199936606	-2.155042037652762	0.2377744604929173	3.167217928554721	-1.825477841154826	0.2918454935622318	-0.34375	0.7097505668934241
8364.288330078125	0.2238870163791999	-10.1133499812749	-1.980538372613868	0.2879563633272675	2.496420843344771	-0.7386295415985571	0.3090128755364807	-0.3616071428571428	0.7165532879818595
8383.819580078125	0.370019783507693	-9.680467874602757	-2.308100799748893	0.3227469449692861	-2.229659770630044	-1.050385154041796	0.296137339055794	-0.3571428571428571	0.7301587301587302
8403.350830078125	0.5615247461841399	-9.934908176754773	-2.070841965352761	0.2896847056433215	-0.4366501239117097	-1.428688725511326	0.3025751072961373	-0.3526785714285714	0.7074829931972789
8422.882080078125	0.3881250251014184	-9.882669129038895	-2.077808632590818	-0.7084746004911731	-3.324773353179547	-1.419770679341337	0.3111587982832618	-0.3549107142857142	0.7210884353741497
8442.413330078125	0.641380100599713	-9.834696629288826	-1.893112100787633	-0.3305990638318419	-2.549967120434059	-0.3408245402881236	0.2939914163090129	-0.3683035714285714	0.7188208616780045
8461.944580078125	0.4607641333747405	-9.711678348404456	-2.198862317065884	0.3465416396494207	-0.3652550877926586	0.010583383670915	0.3111587982832618	-0.3571428571428571	0.7074829931972789
8481.475830078125	0.4602954436939155	-9.772279722113709	-2.151993348983388	0.2737421298257428	2.478572084315008	-1.098447568894117	0.3025751072961373	-0.3772321428571428	0.7052154195011338
8501.007080078125	0.3871351201720898	-9.579628926959298	-1.978818139657962	0.656251438807989	1.424671152282636	-0.360833912962494	0.2896995708154507	-0.34375	0.7256235827664399
8520.538330078125	0.4809643370331877	-9.70177934034003	-2.178066356379998	1.371088153938131	-0.0123336265721571	0.02754509934448419	0.2918454935622318	-0.3616071428571428	0.7120181405895691
8540.069580078125	0.6424992992340968	-9.511475498042847	-2.005031964226005	0.3143435714814832	-0.03878092470256481	-0.7127497797549994	0.3025751072961373	-0.359375	0.7210884353741497
8559.600830078125	0.3777693661832967	-9.630040319924461	-2.062650904043953	0.2783759021486577	0.6498649195371483	-1.439780052015708	0.296137339055794	-0.3504464285714285	0.7120181405895691
8579.132080078125	0.397335222601317	-9.741347089599753	-1.978420219315379	-0.3883201689959681	-1.15482667292487	-1.43506705751398	0.3197424892703863	-0.359375	0.7165532879818595
8598.663330078125	0.4601944329868412	-9.772278712006639	-2.141892278275954	1.017007311958934	1.07726482351974	0.009567498003981286	0.3068669527896996	-0.3526785714285714	0.7256235827664399
8618.194580078125	0.3900826126045192	-9.609961432186651	-2.273567382900896	0.64957640763624	0.6824790309536346	-0.7132577225884663	0.3047210300429185	-0.3571428571428571	0.7165532879818595
8637.725830078125	0.2753845012041418	-9.730026572284771	-2.028246038781531	0.9952538761276337	1.783759426789216	-0.3576447469611668	0.2854077253218884	-0.3705357142857142	0.7074829931972789
8657.257080078125	0.6000988799171303	-9.733273716071901	-1.846622685590577	0.6713298434675408	-0.02401557231584131	-0.3460454776233181	0.3068669527896996	-0.3616071428571428	0.7233560090702948
8676.788330078125	0.72359102470426	-9.956730859741993	-1.950939205119873	-0.3494470696562816	-0.7391087146859622	-0.3593100844620934	0.3025751072961373	-0.3772321428571428	0.7165532879818595
8696.319580078125	0.7437043591546233	-9.633699669854174	-1.921456323625594	1.011196451945213	-1.131462781437501	-0.6878859035783754	0.3047210300429185	-0.359375	0.7120181405895691
8715.850830078125	0.5468114853628309	-9.490316599702115	-1.619924046487178	0.2537170363104961	0.2519957203280034	-2.155718997772034	0.2939914163090129	-0.3638392857142857	0.7052154195011338
8735.382080078125	0.6218889921049278	-10.01631990002206	-1.984817577839708	0.6855440769690655	-0.00616681328607855	0.0137725496722421	0.3068669527896996	-0.359375	0.7142857142857143
8754.913330078125	0.6117636375989355	-9.642481272739628	-1.992690290505792	0.3097097991585682	1.789926240075295	-0.3714172966334089	0.3004291845493562	-0.3928571428571428	0.7074829931972789
8774.444580078125	0.317223300989775	-9.750646980484648	-2.130493364283625	1.330486712282391	2.505019382445415	-0.3581526897946337	0.3090128755364807	-0.3549107142857142	0.7074829931972789
8793.975830078125	0.3552034917651683	-9.569208600574219	-1.846879788761726	0.9856734149490239	-0.06279649701840612	-1.058795257378317	0.3004291845493562	-0.3660714285714285	0.7188208616780045
8813.507080078125	0.4493357407474892	-9.691362044276165	-2.076431217606065	0.2896847056433215	-0.4366501239117097	-1.428688725511326	0.3090128755364807	-0.3727678571428571	0.7324263038548753
8833.038330078125	0.418052601079985	-9.75165527348555	-2.009341740651557	1.02454651428871	0.3529214612205015	0.01696171567356919	0.3025751072961373	-0.34375	0.7074829931972789
8852.569580078125	0.5010837321259756	-9.893899726210151	-2.149189539128165	-0.00667503117174888	-0.7421921213290015	-0.3524238096259723	0.3047210300429185	-0.3683035714285714	0.7006802721088435
8872.100830078125	0.5405487802953617	-9.661971144368611	-2.014061703005551	0.6173783394683025	1.008953194043728	-1.436590886014381	0.3004291845493562	-0.3526785714285714	0.7120181405895691
8891.632080078125	0.02026880848153776	-9.707273395155525	-2.026880848153776	0.9772700414612209	2.128082348909073	-0.721159883091521	0.296137339055794	-0.359375	0.7097505668934241
8911.163330078125	0.4671965364300947	-9.822853783546122	-1.821694459336	0.3030347679868193	1.047734118746293	-0.7238411062593813	0.296137339055794	-0.359375	0.7074829931972789
8930.694580078125	0.4279920958849604	-9.98407790075683	-1.982883057883794	0.9961180472856607	0.317223943160976	-0.7026743389175513	0.2918454935622318	-0.3616071428571428	0.7097505668934241
8950.225830078125	0.4798592798977944	-9.711869299869688	-2.067560642840666	0.6826386469622047	-1.110530615764699	-0.3349541511189363	0.2982832618025751	-0.3616071428571428	0.7369614512471655
8969.757080078125	0.3145889417492762	-9.56880245507406	-1.867057440233737	0.6533460088011279	0.3203073498040153	-0.7095606137536723	0.3025751072961373	-0.3683035714285714	0.7120181405895691
8989.288330078125	0.7150454776569104	-10.02735247497859	-2.116792663650231	1.042530348955123	0.008598539100644939	0.3804768518039234	0.2875536480686695	-0.3683035714285714	0.7256235827664399
9008.819580078125	0.7737066830564249	-9.795615854709354	-1.860464224009834	1.00569850846427	2.163779866968598	-0.001523828500400573	0.3025751072961373	-0.3571428571428571	0.7142857142857143
9028.350830078125	0.08325529235797555	-9.445276997368026	-2.203080256205718	1.291613612942704	2.089301424206508	-1.43390966284652	0.2811158798283262	-0.3660714285714285	0.7233560090702948
9047.882080078125	-0.2273538687614315	-9.543181006766932	-1.754409042224198	0.3465416396494207	-0.3652550877926586	0.010583383670915	0.2896995708154507	-0.375	0.7233560090702948
9067.413330078125	0.4491943257575852	-9.792370731136366	-2.062289718615657	0.08120288331148089	-5.034706018035145	0.7713955782782358	0.2875536480686695	-0.3660714285714285	0.7097505668934241
9086.944580078125	0.3969129978457463	-9.20598933199866	-1.936197743758304	0.6608852111309039	-0.4040360124952234	-0.7021663960840844	0.296137339055794	-0.375	0.7097505668934241
9106.475830078125	0.3884159359377925	-9.862470017945238	-2.106899716228229	0.5947607324789748	3.181983280941445	-1.458773539023144	0.2939914163090129	-0.3705357142857142	0.7142857142857143
9126.007080078125	0.3044029808190393	-9.599003625767788	-1.86886951047536	-0.3523524996631426	-1.843472517164583	-0.7080367852532717	0.3004291845493562	-0.359375	0.7210884353741497
9145.538330078125	0.5631631398528858	-9.803611429378329	-2.234681332227347	1.402422050948042	1.127727693965989	1.095907854726783	0.3111587982832618	-0.3839285714285714	0.7074829931972789
9165.069580078125	0.8467680160853177	-9.6549323266255	-2.023740384041975	1.287844011777816	2.451473105356127	-1.437606771681314	0.3004291845493562	-0.34375	0.7120181405895691
9184.600830078125	-0.112443634876198	-9.776653341429016	-2.020942634829176	0.2670670986539939	1.736379962986007	-1.45087137852009	0.3090128755364807	-0.3526785714285714	0.7346938775510204
9204.132080078125	0.2926695358564236	-9.912017604449476	-1.71593317747909	0.3624842154669995	-3.280477296019376	-0.3196577729462936	0.2896995708154507	-0.3504464285714285	0.7210884353741497
9223.663330078125	0.5083727059773202	-9.580841302817351	-1.857678760997324	1.053839152449787	-1.077916504348213	0.3915681783083053	0.2982832618025751	-0.3526785714285714	0.7233560090702948
9243.194580078125	0.5783693741535774	-9.551238239196083	-1.714488435765906	-0.05308733284121119	-0.4335667172686704	-1.435575000347447	0.3004291845493562	-0.3571428571428571	0.7233560090702948
9262.725830078125	0.2020059945550356	-9.678787736713229	-1.833252516728046	0.2859151044784336	-0.07447844276209033	-1.43238583434612	0.3047210300429185	-0.3660714285714285	0.7074829931972789
9282.257080078125	0.428280986507193	-9.792161597743862	-2.011772120107056	0.7307792909477209	-4.352226987081511	0.05813785568976954	0.3025751072961373	-0.3660714285714285	0.6984126984126985
9301.788330078125	0.7179121615236803	-9.754653869089987	-2.403461050327218	0.05567984631529226	-3.96603973361605	0.4004862244782937	0.2939914163090129	-0.3638392857142857	0.7324263038548753
9321.319580078125	0.6950008304873576	-9.623111624466491	-2.153144273225565	0.2708366998188818	1.374208281836387	-1.447174269685296	0.3025751072961373	-0.3616071428571428	0.7233560090702948
9340.850830078125	-0.1336196019649835	-9.675431480748028	-1.944162252481246	0.6278229718049394	1.38897363422311	-1.080469967553614	0.296137339055794	-0.3660714285714285	0.7210884353741497
9360.382080078125	0.592997785980944	-9.854414826344659	-2.156921455237245	1.056744582456648	0.0264472981304077	0.7402948790994835	0.3004291845493562	-0.3660714285714285	0.7188208616780045
9379.913330078125	0.8165475090562355	-9.63442810135319	-2.062914170929676	1.039624918948262	-1.095765263377976	0.031750151012745	0.2918454935622318	-0.3683035714285714	0.7278911564625851
9399.444580078125	0.3250678337300286	-9.690119365205989	-1.894538475043673	1.647735713770735	3.570602260221472	-0.7221757687584548	0.3047210300429185	-0.3616071428571428	0.7074829931972789
9418.975830078125	0.1834118611390703	-9.840217956995231	-2.014655501662138	-0.3532166708211696	-0.3769370335363428	-0.3630071932968873	0.2854077253218884	-0.3683035714285714	0.7256235827664399
9438.507080078125	0.6745339585622342	-9.693614026454311	-2.147273407243825	-0.01335006234349776	-1.484384242658003	-0.7048476192519446	0.2918454935622318	-0.3660714285714285	0.7233560090702948
9458.038330078125	0.468675333181663	-9.762262510907576	-1.969574134492839	0.9091043039604579	3.14320235623888	-2.171523318778144	0.2918454935622318	-0.3660714285714285	0.7256235827664399
9477.569580078125	-0.05042685378767395	-9.918687650654043	-2.100171764089748	0.2896847056433215	-0.4366501239117097	-1.428688725511326	0.3047210300429185	-0.3660714285714285	0.7301587301587302
9497.100830078125	0.4163879446273998	-9.670830546112942	-1.842876095393039	0.7119312851232812	-2.541368581333414	0.03965231151579977	0.2854077253218884	-0.3683035714285714	0.7052154195011338
9516.632080078125	0.5176010854044922	-9.469822475500511	-1.760108540449223	1.717629793587552	-0.3775887143648157	0.03812848301539919	0.2875536480686695	-0.3616071428571428	0.7097505668934241
9536.163330078125	0.4798956437523412	-9.772475724114294	-2.071197028295343	0.9450719732932835	2.454556511999166	-1.444493046517435	0.3025751072961373	-0.3638392857142857	0.7165532879818595
9555.694580078125	0.1041302475396794	-9.718213019647115	-2.249759447845494	1.334256313447278	2.142847701295796	-0.3544555809598398	0.2918454935622318	-0.3816964285714285	0.7188208616780045
9575.225830078125	0.3076676468716821	-9.821258494650538	-2.195336115739638	1.050069551284899	-0.7157448231985937	0.3878710694735113	0.3004291845493562	-0.3616071428571428	0.7233560090702948
9594.757080078125	0.9208737998253592	-9.908198636988153	-2.291461615188986	0.3143435714814832	-0.03878092470256481	-0.7127497797549994	0.3111587982832618	-0.375	0.7233560090702948
9614.288330078125	0.06995214100742449	-9.667366188076741	-1.893173284415918	0.9479774033001445	3.558920314477787	-1.095766345726257	0.2918454935622318	-0.3549107142857142	0.6984126984126985
9633.819580078125	0.3675126977581078	-9.710745834048291	-2.057392224790372	0.3323274061478959	-0.3831038468224214	-0.3492346436246452	0.2982832618025751	-0.3727678571428571	0.7188208616780045
9653.350830078125	0.6199718088846565	-9.682967394856524	-1.793099255812604	0.3427720384845327	-0.003083406643039275	0.006886274836121049	0.2725321888412017	-0.3571428571428571	0.6938775510204082
9672.882080078125	0.4681520977190179	-9.73195424824992	-1.917250588228329	0.001728342316054045	-2.93307096725648	-0.6900591839127689	0.3090128755364807	-0.3616071428571428	0.7210884353741497
9692.413330078125	0.4596772581666205	-9.752071520056415	-2.09017479625389	1.302058245279341	2.46932186438589	-1.077788744385754	0.3111587982832618	-0.3705357142857142	0.7210884353741497
9711.944580078125	0.4479963387716834	-9.984277943185699	-1.942491020025485	0.04350687166260137	-1.412989206538952	0.7344244899302963	0.2896995708154507	-0.3482142857142857	0.7120181405895691
9731.475830078125	0.8658752838932205	-9.675325419505599	-1.893650838301649	1.065147955944451	-2.164431547797071	0.4026595048126871	0.3025751072961373	-0.3660714285714285	0.6893424036281179
9751.007080078125	0.5197182698247704	-9.631459808960875	-1.971826982477047	0.3068043691517073	0.6855624375966739	-0.7201439974245873	0.3047210300429185	-0.3638392857142857	0.7006802721088435
9770.538330078125	0.2934250959453397	-9.48778273580794	-1.791489186370699	0.6298642306537733	3.959872920329972	-0.3867136748060516	0.3025751072961373	-0.3727678571428571	0.6802721088435374
9790.069580078125	0.1222375093475463	-9.587080960952063	-2.019669302101569	1.009468109629158	1.801608185818979	0.002173280334393381	0.2939914163090129	-0.3772321428571428	0.7233560090702948
9809.600830078125	0.5718339401770074	-9.773395107078539	-2.081353201374208	0.6817744758041775	0.3560048678635408	0.01007544083744814	0.2939914163090129	-0.3571428571428571	0.7097505668934241
9829.132080078125	0.5631328366407634	-9.753106075841156	-2.231651011015116	1.356009749278579	1.43635309802632	0.01275666400530838	0.2982832618025751	-0.3794642857142857	0.7142857142857143
9848.663330078125	0.3775612841267235	-9.619937229002886	-2.041842698386638	0.3323274061478959	-0.3831038468224214	-0.3492346436246452	0.2982832618025751	-0.3660714285714285	0.7120181405895691
9868.194580078125	0.4021958990545945	-9.589880544849134	-1.444079701377817	0.7102029428072271	0.3917023859230663	0.7297114954285686	0.3025751072961373	-0.375	0.7097505668934241
9887.725830078125	0.4566812805947955	-9.640930449169586	-1.790577039071387	0.7110671139652541	-1.074833097705174	0.3846819034721842	0.3004291845493562	-0.3638392857142857	0.7142857142857143
9907.257080078125	0.2768511766708613	-9.649233158231356	-2.174913585453478	0.9819038137841359	0.2993751841312132	-1.062492366213111	0.2918454935622318	-0.3727678571428571	0.7165532879818595
9926.788330078125	0.09192811289623871	-9.58677786698755	-2.049954146766728	0.9601503779528353	1.005869787400689	-1.42970461117826	0.3133047210300429	-0.3660714285714285	0.7188208616780045
9946.319580078125	0.0705339626801727	-9.626967965889429	-1.95135545169074	1.014101881952074	-0.02709897895888059	-0.3391592027871971	0.296137339055794	-0.359375	0.7029478458049887
9965.850830078125	0.3362659219451503	-9.83164548750228	-1.993939133290541	1.066012127102478	-3.630967031425311	0.05762991285630267	0.2982832618025751	-0.3705357142857142	0.6916099773242631
9985.382080078125	0.711744447749721	-9.744491181851236	-1.786689672931276	-0.2523016105272219	-8.689036940947824	0.08184433719893383	0.296137339055794	-0.3683035714285714	0.7097505668934241
10004.91333007812	0.5389730132650019	-9.560945285688206	-1.856484999969575	2.779008148367114	-2.179848581012267	0.4370908789932924	0.2854077253218884	-0.3816964285714285	0.6893424036281179
10024.44458007812	-0.7079930337755599	-9.649485726227903	-1.649676214280745	3.940750308815378	-5.323702618079619	3.009749874083723	0.2896995708154507	-0.3727678571428571	0.6916099773242631
10043.97583007812	1.303192811941864	-9.770607685695177	-1.747852622757872	5.171737386587095	-2.943624548842544	0.1328709932201673	0.3047210300429185	-0.3816964285714285	0.6961451247165533
10063.50708007812	0.3634904514024074	-9.741008641887763	-1.655167589220337	5.929529718754591	1.176887202755292	2.984519564074158	0.2854077253218884	-0.375	0.6984126984126985
10083.03833007812	0.3172092007196446	-9.892060980896087	-1.10867517400528	7.275959006854561	0.7666843769739905	2.296125717662315	0.3025751072961373	-0.3883928571428571	0.6848072562358277
10102.56958007812	0.1232193746491689	-9.536585729100027	-1.097447668998527	9.197436850451039	6.81585872151047	0.4755023800097434	0.2854077253218884	-0.3794642857142857	0.671201814058957
10122.10083007812	0.4267901096996357	-9.660833557662654	-0.8422762760860218	11.93843607063649	2.753756698631055	-0.5081933060052354	0.296137339055794	-0.3950892857142857	0.6598639455782314
10141.63208007812	0.3860200031948491	-9.569516765688515	-0.8468982786685836	14.33320656770531	4.560880016907639	-0.1186568990307976	0.3047210300429185	-0.40625	0.6485260770975056
10161.16333007812	0.3237547357669222	-10.02343956755969	-0.7428205154677229	18.82348239502101	6.765220853564895	1.387954130012253	0.2832618025751073	-0.4040178571428571	0.653061224489796
10180.69458007812	-0.07556239936491362	-9.948739325501302	-0.6070253696310881	20.91898772526789	7.162438371945568	2.505028752080866	0.3175965665236051	-0.4241071428571428	0.6485260770975056
10200.22583007812	0.2116364378252235	-10.23443959670149	-0.7554805172162304	23.07567084531101	0.29837350830409	3.336227523549798	0.3133047210300429	-0.4285714285714285	0.6167800453514739
10219.75708007812	0.76205610810247	-9.906610460070924	-0.6954067286143565	25.04065556057008	4.934558646301618	2.250028675827522	0.3047210300429185	-0.4776785714285714	0.6009070294784581
10239.28833007812	0.5303729616646923	-9.873990598303516	-0.9964798399386151	26.70260550784234	8.523009665552852	1.887670934364628	0.3111587982832618	-0.4888392857142857	0.5895691609977325
10258.81958007812	-0.03319026304592789	-9.848152945854389	-0.7626063484684351	26.02138228666341	1.19649906069773	0.1487504249104636	0.3025751072961373	-0.4642857142857142	0.5873015873015873
10278.35083007812	0.1590298554366053	-9.779368076332144	-0.5968630946809388	26.82841777206692	-11.86569703300441	-0.06419913466027216	0.3090128755364807	-0.5066964285714285	0.5668934240362812
10297.88208007812	0.541421595262204	-9.762989973528381	-0.06052687315917744	25.65505389159121	-13.13929820585154	-4.031764932915416	0.3175965665236051	-0.5133928571428571	0.5578231292517007
10317.41333007812	0.3481125813574094	-9.700450822783273	-0.1173805847205315	31.10924969802463	-10.29125926294321	-3.951161406215831	0.3283261802575107	-0.5535714285714285	0.54421768707483
10336.94458007812	0.1879231230035906	-9.941273170623978	0.5954428016817537	34.84377445202167	-9.636530891776932	-4.602442655279208	0.3412017167381974	-0.5647321428571428	0.5396825396825397
10356.47583007812	-0.05340052654622257	-10.34290033816888	0.2380118382957258	38.29615370270515	-9.269495758998177	-3.817640961161671	0.3454935622317596	-0.5758928571428571	0.4920634920634921
10376.00708007812	0.6343760594000381	-10.78412153837178	-0.1722998175548318	41.06212470526155	-7.429758329305108	-2.701582224759991	0.3283261802575107	-0.6049107142857143	0.4807256235827664
10395.53833007812	0.2141132615915465	-9.981939112413896	0.0172452694167826	44.12390419000777	1.686026834796835	-0.9329433356269496	0.3562231759656652	-0.6339285714285714	0.4965986394557823
10415.06958007812	0.1317346597132562	-10.25384259912239	0.09184015112336411	46.20260277327905	6.465002045032466	0.8594020350152565	0.3454935622317596	-0.65625	0.4784580498866213
10434.60083007812	-0.1553995306243534	-9.907536913784668	0.2338306134557485	47.26775072922351	4.300570497235394	1.262061539827944	0.3390557939914163	-0.6763392857142857	0.4784580498866213
10454.13208007812	0.3135768969221113	-10.06374182957528	0.274963369013362	50.063878541099	3.242934477731511	2.407697146907974	0.351931330472103	-0.6964285714285714	0.4852607709750567
10473.66333007812	0.3213870860219595	-10.11432498197133	0.5143526222938415	51.15486245057242	5.513806898878685	4.565081482180935	0.3562231759656652	-0.7209821428571428	0.4852607709750567
10493.19458007812	-0.1171647928671328	-10.15034350358648	0.4919894907949123	52.55060947034871	5.899342471515673	5.308565527281746	0.3540772532188841	-0.75	0.4716553287981859
10512.72583007812	0.02291541269346564	-10.40426955816734	0.7696832204493538	53.95389569245479	5.560534681853422	6.059443790052145	0.3626609442060086	-0.7566964285714285	0.4739229024943311
10532.25708007812	0.03306096934087273	-9.970027579390381	0.7755357189739513	55.29569120823184	6.97903902084998	5.712382426761893	0.3648068669527897	-0.7678571428571428	0.5102040816326531
10551.78833007812	-0.1967291952174719	-10.05863876865389	1.305572582971676	56.37332505536176	7.765527199339152	7.164919142782908	0.3712446351931331	-0.7767857142857142	0.4965986394557823
10571.31958007812	0.07694628728069214	-10.03107249317584	1.489044741318541	57.84273575611976	3.840700116240233	8.672404548492368	0.3626609442060086	-0.8169642857142857	0.5170068027210885
10590.85083007812	-0.2507196242930086	-10.15910896537323	1.602574674198819	59.5507850885287	1.616555478067795	8.009382521090616	0.3562231759656652	-0.8191964285714285	0.5170068027210885
10610.38208007812	-0.07214003292265476	-10.4235210239132	2.111962475938946	61.17009233529637	5.15146022022974	6.567570697741041	0.3540772532188841	-0.8258928571428571	0.5170068027210885
10629.91333007812	-0.1521246810432831	-10.13989289460371	1.947161981879333	63.8342841064008	16.76983304096253	7.583807495603283	0.3433476394849785	-0.8526785714285714	0.5578231292517007
10649.44458007812	-0.09392004403974477	-9.988959789458594	2.249147261117333	63.60436176477044	18.38224200347192	10.80049503108803	0.3433476394849785	-0.8616071428571428	0.562358276643991
10668.97583007812	-0.5844582995760188	-10.26688268973151	2.323380978010049	64.70924699121259	15.16699293028551	11.93388191699622	0.3433476394849785	-0.8638392857142857	0.5714285714285714
10688.50708007812	-0.3310698899443861	-9.936083240494497	2.494744096479422	65.16950249887422	14.94452791473095	14.82300951903161	0.3218884120171674	-0.859375	0.6054421768707483
10708.03833007812	0.002400138086666485	-9.545478546835414	2.82121068112927	65.37313554021848	13.36570337636977	19.51912941804787	0.3283261802575107	-0.8794642857142857	0.6145124716553289
10727.56958007812	0.8196649056208499	-9.594055234914796	2.727386988935416	69.02095946742311	22.3503804139773	18.78281466578423	0.3111587982832618	-0.8616071428571428	0.6417233560090703
10747.10083007812	0.7853635660259644	-9.674520302326927	3.096296458628062	72.25760728054996	44.82773685591259	19.70191074827489	0.3004291845493562	-0.8727678571428571	0.6598639455782314
10766.63208007812	-0.4429558220309537	-9.520822967032217	3.479255672483118	72.39533085190695	54.84051920825056	17.08655178466786	0.2918454935622318	-0.8883928571428571	0.7120181405895691
10786.16333007812	-1.057780166511962	-9.767199976112659	3.737200324665564	72.97330816683812	41.92419659342956	19.74526016862549	0.2618025751072962	-0.8839285714285714	0.7188208616780045
10805.69458007812	-1.520534293273787	-9.540350212622817	4.094245653909298	70.47065799119862	21.70294722025472	20.6168441192761	0.2532188841201717	-0.8638392857142857	0.7278911564625851
10825.22583007812	-0.8039675119106167	-9.638424971345541	3.866138946163713	68.90931018768754	4.298426040228661	20.04023791457449	0.2510729613733906	-0.8772321428571428	0.7732426303854876
10844.75708007812	-0.3611024346005899	-9.38022735949238	4.477590398834499	69.54003858949933	6.791763476930393	19.30849464781205	0.2446351931330472	-0.8727678571428571	0.7845804988662132
10864.28833007812	-0.9337869673888833	-9.475510615174597	4.603186534806697	70.62842998549867	13.46224234896229	22.50096775895416	0.2446351931330472	-0.859375	0.8049886621315193
10883.81958007812	-1.957575010756187	-9.566282835751027	4.941174545006454	68.75886238705262	3.809199951959377	24.71838021225024	0.2317596566523605	-0.859375	0.8208616780045351
10903.35083007812	-1.989844014924737	-9.161919741668935	5.106850472065521	69.26576853447614	-9.196366458010434	25.57799845973006	0.1995708154506438	-0.8794642857142857	0.8571428571428572
10922.88208007812	-0.6642024185272303	-9.195378177834931	5.195752056804652	71.06200869790111	-10.20905473952567	27.42261129689285	0.1995708154506438	-0.8325892857142857	0.8775510204081632
10942.41333007812	-1.021456510103728	-9.009987455100985	5.20687550016869	73.70908080549715	0.287105519698736	27.73030336666835	0.2017167381974249	-0.8348214285714285	0.891156462585034
10961.94458007812	-1.2579699885538	-9.007622320316484	5.388835590073941	78.51197186197825	5.385736398909907	29.21422379986917	0.1995708154506438	-0.8258928571428571	0.9319727891156463
10981.47583007812	-2.43801619478445	-8.824104686537005	5.026109274363336	77.58166537681176	-4.021477091051077	29.28968980506545	0.2060085836909871	-0.8035714285714285	0.9501133786848073
11001.00708007812	-1.831896953039109	-8.042287091075671	5.638674895747582	78.0705876895689	-16.68272057890103	29.78579291641492	0.1609442060085837	-0.7924107142857142	0.9773242630385488
11020.53833007812	-1.15574068006354	-8.31167491643169	5.369986373700969	76.76939361544758	-20.61857792691516	30.51855206884429	0.1695278969957082	-0.7611607142857142	0.9954648526077098
11040.06958007812	-1.041066811232861	-8.151205493503832	5.127089286551387	75.58998053686568	-11.62643071436461	28.96619341428384	0.1609442060085837	-0.7388392857142857	1.034013605442177
11059.60083007812	-1.390961221463062	-7.602252003946988	5.42265275855106	73.75141058946893	-5.163318456575317	27.4259419718947	0.1695278969957082	-0.7321428571428571	1.038548752834467
11079.13208007812	-1.885158084809568	-7.506400944404431	5.862747256467048	69.81411696528566	-5.705757773008657	23.03607372998544	0.1609442060085837	-0.7276785714285714	1.068027210884354
11098.66333007812	-1.864204341276346	-7.405600380829662	5.808189229675474	67.16735777422241	-10.69794777886973	24.11219713687027	0.1759656652360515	-0.7053571428571428	1.077097505668934
11118.19458007812	-1.477523686828371	-7.298356076263031	5.915633988959573	64.74588715246659	-15.47383958246231	22.31296549139194	0.1609442060085837	-0.6785714285714285	1.099773242630385
11137.72583007812	-1.161726574564766	-7.089392835264454	5.968575823823528	64.06701810666928	-14.72548064784724	22.65161675134567	0.1545064377682404	-0.6517857142857143	1.104308390022676
11157.25708007812	-1.404779527419692	-6.965750184523784	5.784075190948776	63.64681278603815	-10.04986290431867	21.87703200706611	0.1502145922746781	-0.65625	1.140589569160998
11176.78833007812	-1.564821510141182	-6.610614411161215	6.482151014118207	63.58068830738623	-6.463843610882003	21.12042486412705	0.1351931330472103	-0.609375	1.140589569160998
11196.31958007812	-1.849733464923156	-6.769381453229557	6.401917920887036	60.12336236784704	-10.50614183224624	19.29314017647077	0.1502145922746781	-0.5848214285714285	1.167800453514739
11215.85083007812	-1.742451559636177	-6.07348457531273	6.8982171881075	57.68390791142482	-14.93771071371897	17.13039339486209	0.1566523605150215	-0.5401785714285714	1.17233560090703
11235.38208007812	-1.497269301076124	-6.378966700928634	6.869787250469535	55.63858448401228	-16.00572531730959	17.10016707234974	0.1523605150214592	-0.5491071428571428	1.1859410430839
11254.91333007812	-1.607520921151089	-6.165742972606672	6.670459462047641	53.91082297462088	-10.50418678976082	18.08973314753391	0.1502145922746781	-0.5625	1.199546485260771
11274.44458007812	-1.653602170633844	-5.640029634859319	7.196951757261978	54.62683677744183	-7.903756798880511	19.51689804454484	0.1459227467811159	-0.515625	1.208616780045352
11293.97583007812	-1.746588958197942	-5.911827039710952	7.311957044284011	52.86193051102678	-5.751007196827123	18.74064796276435	0.1502145922746781	-0.4977678571428571	1.210884353741497
11313.50708007812	-1.639191900704899	-5.407850505235376	7.796741090898	52.49073000553921	-5.783621308243609	18.01412563333711	0.1459227467811159	-0.4732142857142857	1.231292517006803
11333.03833007812	-1.956651649206947	-5.202655705730153	7.910062879878414	52.51538887137736	-5.385752109034464	18.73006457909343	0.1351931330472103	-0.4620535714285714	1.238095238095238
11352.56958007812	-2.101418751575796	-5.049692883191313	8.101058831048928	52.16680597287911	-7.591396307348667	18.02572490267496	0.1330472103004292	-0.4397321428571428	1.256235827664399
11372.10083007812	-1.682968085852217	-4.851857187828347	8.092726952568684	52.50494423904073	-5.765772549213847	18.37394366063267	0.1502145922746781	-0.4084821428571428	1.258503401360544
11391.63208007812	-1.808151149875772	-4.840504347087102	8.366135395740432	53.52485698100652	-3.584143923215486	18.73223785942783	0.1459227467811159	-0.3883928571428571	1.27437641723356
11411.16333007812	-1.54529395533413	-4.631011706911305	8.611028186474211	53.1783153413571	-3.218888835422827	18.72165447575691	0.1373390557939914	-0.359375	1.292517006802721
11430.69458007812	-1.653484956984778	-4.316798483763487	8.205638555620657	53.48425553935078	-1.066790914197913	18.34654007028871	0.1266094420600858	-0.3683035714285714	1.27891156462585
11450.22583007812	-1.929392776109285	-4.495857587390423	8.245400059908091	53.13190303968764	-2.910263431362496	17.63850328503544	0.1330472103004292	-0.3236607142857142	1.294784580498866
11469.75708007812	-1.461945650667926	-3.955077513190291	8.439463025976261	52.74939373070539	-1.856362499330124	16.90088962910381	0.1287553648068669	-0.3147321428571428	1.299319727891157
11489.28833007812	-1.831411977958572	-3.789766688301223	8.651401877489807	51.7173080140869	-1.484940598251387	16.87653369576066	0.1244635193133047	-0.28125	1.303854875283447
11508.81958007812	-1.634224152902122	-3.751334526147747	8.320374473885682	49.96543889348258	-3.351777006903339	15.42131575657178	0.1201716738197425	-0.2700892857142857	1.299319727891157
11528.35083007812	-1.838214080201818	-3.567476445056568	8.311203938549133	48.88403544518778	-3.776093504242891	13.96508193171597	0.1287553648068669	-0.2566964285714285	1.337868480725624
11547.88208007812	-1.460446651774943	-3.591456139542857	8.289563136677936	48.17296833122253	-2.701260406537717	13.58040002824379	0.1373390557939914	-0.2142857142857143	1.331065759637188
11567.41333007812	-1.72563517343586	-3.114056779578774	8.27780305787174	47.06894727593838	-0.9525468169795537	12.10198355037921	0.1223175965665236	-0.1785714285714285	1.326530612244898
11586.94458007812	-1.953483912204236	-3.071374251787049	8.613697342872577	46.40719789364946	0.9180246791439098	13.14917953841968	0.1287553648068669	-0.1897321428571428	1.342403628117914
11606.47583007812	-1.953255628006248	-2.778447241699736	8.590868923073774	44.3560636062232	-2.358717529403954	12.42149981432498	0.1351931330472103	-0.1540178571428571	1.340136054421769
11626.00708007812	-1.997365148486912	-2.676996045484828	8.920188318078992	42.98002876342937	-6.021646991417279	11.35147172144175	0.1309012875536481	-0.1383928571428571	1.340136054421769
11645.53833007812	-1.667679022771725	-2.548979775428849	8.604636971050029	42.96785578877668	-3.468596464340181	11.68540998689376	0.1072961373390558	-0.1183035714285714	1.365079365079365
11665.06958007812	-1.67007701695767	-2.256026502557696	8.844436389644519	41.21802792702119	-2.764533586885271	10.92394834045244	0.1244635193133047	-0.1004464285714286	1.356009070294785
11684.60083007812	-1.801971273588103	-2.173899479183311	8.768555930238902	40.83755987688778	0.8602666312539616	10.88009097726838	0.1158798283261803	-0.08258928571428571	1.349206349206349
11704.13208007812	-1.880555913308681	-2.203416663089136	8.463754596174249	39.80256873026243	0.127324729854078	10.50700834313405	0.1137339055793991	-0.07589285714285714	1.378684807256236
11723.66333007812	-1.954249573363859	-2.131972655781513	8.690263458834929	39.84144182960212	0.5430426880929856	11.58276531618593	0.09871244635193133	-0.04241071428571428	1.360544217687075
11743.19458007812	-1.894751999309769	-1.779032277986701	8.862955033017769	39.50997859461225	-0.5403889487128331	11.58697036785419	0.1158798283261803	-0.03794642857142857	1.365079365079365
11762.72583007812	-1.763989062598569	-1.659127786141692	9.051967484346651	37.79321297218273	-1.629335717976258	11.20381229288241	0.1201716738197425	-0.01339285714285714	1.3718820861678
11782.25708007812	-1.733740272571505	-1.558420173031861	9.088312971436272	35.37959446928947	-1.625600630504745	10.795790341734	0.1266094420600858	0.01785714285714286	1.378684807256236
11801.78833007812	-1.794561086888269	-1.557811964888693	9.047945423520821	35.44862437794826	-4.107256121462791	11.90112418546424	0.1201716738197425	0.002232142857142857	1.35827664399093
11821.31958007812	-1.509634990607305	-1.085913751104028	9.126764366852951	34.70912879697996	-3.068120541817144	10.79680622740094	0.111587982832618	0.03125	1.378684807256236
11840.85083007812	-1.824351288305215	-1.244382749743211	8.96574107541945	33.67240930803856	-0.8679914759605475	11.11378277717937	0.1223175965665236	0.04241071428571428	1.376417233560091
11860.38208007812	-1.857082921512165	-0.9107221000778079	9.177679906318566	32.34192259575617	-3.373010858405963	11.471935466974	0.1351931330472103	0.06473214285714285	1.3718820861678
11879.91333007812	-2.261606189715473	-0.9167778774967849	8.813680196037064	30.95834855063256	-6.311596958120049	10.39451315642119	0.1330472103004292	0.07366071428571429	1.378684807256236
11899.44458007812	-1.692291374115179	-0.7608548640366262	9.025055778864875	29.99152314150798	-8.059658866849739	11.47179395797348	0.1416309012875537	0.1026785714285714	1.380952380952381
11918.97583007812	-1.4274260867169	-0.5311802845873765	9.069139283934859	29.64670984417462	-10.62747474631356	10.77115139038979	0.1437768240343348	0.1116071428571428	1.360544217687075
11938.50708007812	-1.274234650149191	-0.9165505827914375	9.056118076143626	29.21142611888394	-4.503170278186518	9.981778210771056	0.1309012875536481	0.09821428571428571	1.380952380952381
11958.03833007812	-1.474784152765935	-0.2377774109975932	8.702905072511863	29.50637042991574	4.239412939850594	10.9793879554588	0.1287553648068669	0.1339285714285714	1.360544217687075
11977.56958007812	-1.741637330879438	-0.1846038287114077	8.857610638964186	27.74523376466558	6.029990860754362	10.20683498251311	0.1309012875536481	0.1361607142857143	1.385487528344671
11997.10083007812	-1.949011116866124	-0.2532371615586115	9.186825972326687	26.0908230197231	1.717196479203889	10.57658694164559	0.1223175965665236	0.1517857142857143	1.365079365079365
12016.63208007812	-1.864668866842309	-0.2237775537558194	8.915866276067582	23.66644696796043	-4.163059126867322	8.428628595376084	0.1244635193133047	0.1696428571428571	1.3718820861678
12036.16333007812	-1.507323865629444	-0.05563383205077627	8.895651869066853	21.31518334255421	-7.383171651682859	8.773516678331942	0.1545064377682404	0.1875	1.365079365079365
12055.69458007812	-1.222811913247484	-0.2402971333927777	9.015885202299465	19.90812751928326	-6.682192180870988	8.018941306726749	0.1416309012875537	0.1986607142857143	1.349206349206349
12075.22583007812	-1.387561036147499	0.0441786406645053	9.164266880056033	18.18759229568884	-7.408967268984793	7.632086122920172	0.1287553648068669	0.1941964285714285	1.3718820861678
12094.75708007812	-2.099301525926657	0.01089200515825647	8.909744429400407	16.15734727293587	-9.925668597173894	7.616648235747004	0.1609442060085837	0.2008928571428571	1.374149659863946
12114.28833007812	-1.644965631492408	0.1780658179310857	9.394522332914251	15.44887267244469	-13.25044195035344	6.196877556405666	0.148068669527897	0.2165178571428571	1.380952380952381
12133.81958007812	-1.552316219689938	0.3387554854292227	9.313254622055048	16.47718878789829	-13.25969217028256	6.217536380914029	0.1695278969957082	0.2098214285714285	1.374149659863946
12153.35083007812	-1.610427926842968	0.3696396328037833	9.001976357766209	16.13355257825573	-11.79007328001128	6.555679698034292	0.1566523605150215	0.21875	1.36281179138322
12172.88208007812	-1.458872863729864	0.1863059003544704	9.152592495435412	15.0608654199815	-8.901298369914969	6.145625975552018	0.1566523605150215	0.2209821428571428	1.360544217687075
12192.41333007812	-1.407555177963515	0.195893733597817	9.122864735126981	15.73046692113299	-5.992242974974329	6.489639681841468	0.184549356223176	0.2455357142857143	1.383219954648526
12211.94458007812	-1.21390676808295	0.5777956333373953	9.145778849111357	15.6396835766429	-2.804092880746806	5.017093593146082	0.1652360515021459	0.2611607142857142	1.376417233560091
12231.47583007812	-1.49811972877197	0.6008397831463056	8.99564634658474	14.60877494771522	1.604763790067032	6.031523544506872	0.1802575107296137	0.265625	1.360544217687075
12251.00708007812	-1.569690143764445	1.005595891336634	9.009830702975149	11.85701817866035	-0.217124880596276	5.275282835400753	0.1695278969957082	0.2678571428571428	1.356009070294785
12270.53833007812	-1.209848157872703	0.5474520169322624	8.739917828086645	11.20830594218213	-2.366139395178151	5.643510966032835	0.1630901287553648	0.2790178571428572	1.35827664399093
12290.06958007812	-1.248406129892562	0.4872315360464005	8.51408237701127	8.794687439288881	-2.362404307706638	5.235489014884427	0.1738197424892704	0.28125	1.342403628117914
12309.60083007812	-1.302061203420612	0.6695862685998628	8.777548913489731	7.093000221518909	-4.900037801568541	4.86711937525182	0.167381974248927	0.2700892857142857	1.376417233560091
12329.13208007812	-1.182144837663913	0.8502052867604777	9.03081029700361	5.347806132086334	-6.024682088891491	3.764325245688915	0.1630901287553648	0.2566964285714285	1.365079365079365
12348.66333007812	-0.8483899594389114	0.7660596571701468	9.328791862258493	4.240879646795336	-5.380332301811947	1.937182067033163	0.1759656652360515	0.2834821428571428	1.346938775510204
12368.19458007812	-1.222201808576755	0.931413937277687	8.954874735226563	3.85868325434587	1.177538883583765	2.583383887761871	0.1759656652360515	0.2924107142857142	1.365079365079365
12387.72583007812	-1.254183942337214	1.194360021241554	9.091863621476515	2.45249160223294	0.4119828707673955	1.483778924200294	0.1695278969957082	0.2790178571428572	1.365079365079365
12407.25708007812	-1.295772235569303	0.6291193385173093	9.169060291624172	1.720535223594412	0.7267750881138051	0.3868551838065776	0.1888412017167382	0.28125	1.365079365079365
12426.78833007812	-1.246616178934344	1.042769192092374	9.355495444454837	-0.3456774684913937	-1.101280395835581	-0.3556129756272994	0.184549356223176	0.2790178571428572	1.356009070294785
12446.31958007812	-1.307230931408677	0.6999409961827737	9.29452171229622	0.4042627448135468	-1.760395535301848	1.104825900896772	0.1888412017167382	0.2767857142857142	1.36281179138322
12465.85083007812	-1.113097670134155	0.7788077443781095	9.26895068688491	-0.9735004402963331	-2.490254030058692	0.724856991926315	0.1995708154506438	0.2834821428571428	1.356009070294785
12485.38208007812	-1.309725895873413	0.6494608953223705	9.544018158769848	-2.004721985756792	-3.585367612608195	0.3554714666267735	0.1802575107296137	0.2767857142857142	1.35827664399093
12504.91333007812	-1.378863973039538	0.8723744983162541	9.314968732525239	-2.066212692085806	-1.828055483949387	-0.742468159433877	0.2017167381974249	0.2790178571428572	1.353741496598639
12524.44458007812	-1.025704855527835	0.7779338162320462	9.713342695640591	-1.373129412786965	-2.558565659534703	-0.721301392092047	0.1974248927038627	0.28125	1.349206349206349
12543.97583007812	-1.430466508999837	0.8324864832718167	9.373181512228633	-1.050069551284899	0.7157448231985937	-0.3878710694735113	0.1931330472103004	0.2857142857142857	1.35827664399093
12563.50708007812	-1.596437861455452	0.9654593281095043	9.643786145545159	-2.114353336071323	1.413640887367425	-1.135560166242583	0.1952789699570815	0.2723214285714285	1.365079365079365
12583.03833007812	-1.281069034589841	0.7097803873155956	9.739556520208634	-1.068053385951311	1.06006774531845	-0.7513862056038655	0.1931330472103004	0.2611607142857142	1.376417233560091
12602.56958007812	-1.175140714006519	0.6279130233016815	9.350806094529416	-1.417500455607593	0.3209590306324882	-1.110696290065959	0.1824034334763948	0.2723214285714285	1.349206349206349
12622.10083007812	-1.351504089234801	0.5690705964479037	9.640204841847481	-1.443887663761809	2.856160798679824	-1.136576051909516	0.1802575107296137	0.265625	1.349206349206349
12641.63208007812	-1.514774415383248	0.4090871380932265	9.640706844447211	-1.839747035087553	2.425677488054192	-2.579037327093085	0.184549356223176	0.2678571428571428	1.346938775510204
12661.16333007812	-1.105598594012096	0.4049953798795149	9.539451237944288	-1.186401026286425	2.745984837858208	-3.288597940846757	0.1995708154506438	0.2522321428571428	1.3718820861678
12680.69458007812	-1.412021871430342	0.5696757742698592	9.569534081809728	-0.4808318558021128	4.966394388559134	-2.217553962296598	0.1888412017167382	0.2611607142857142	1.374149659863946
12700.22583007812	-1.454196026763462	0.8125217582474328	9.705316962060504	-1.523362204757236	4.957795849458488	-2.598030814100521	0.1802575107296137	0.2589285714285714	1.3718820861678
12719.75708007812	-1.618722926107913	0.8949751080489581	9.831476284260717	-1.518728432434321	3.129088684680629	-2.939363297222112	0.1695278969957082	0.28125	1.35827664399093
12739.28833007812	-1.772423456639276	0.6136838305259887	9.895406888417419	-1.175092222791761	1.65946979440935	-3.277506614342375	0.1716738197424893	0.2633928571428572	1.360544217687075
12758.81958007812	-1.585629674569637	0.6320179129073126	9.583375620228987	-2.192099534750696	0.5822049708896095	-3.287074112346356	0.1866952789699571	0.2834821428571428	1.36734693877551
12778.35083007812	-1.322404801054245	0.9021129368994315	9.791500513587705	-0.7954883438163758	-0.4987949401016429	-2.88861965920193	0.1866952789699571	0.28125	1.351473922902494
12797.88208007812	-1.493780267567196	0.6108973986352679	9.582108389372664	-0.0928246033389246	0.6172508081206621	-2.166302381442949	0.1888412017167382	0.25	1.351473922902494
12817.41333007812	-1.8110965808652	0.7453836930813794	9.681086657948521	-0.4289216106517085	1.362526336092703	-1.820764846653098	0.184549356223176	0.2723214285714285	1.351473922902494
12836.94458007812	-1.584607446214044	0.6118056704217364	9.481152784669749	-0.04350687166260137	1.412989206538952	-0.7344244899302963	0.1866952789699571	0.2611607142857142	1.376417233560091
12856.47583007812	-1.418256293499831	0.5192330679855035	9.172568125493273	-0.3770113655013042	-2.241341716373728	-1.423975731009598	0.1888412017167382	0.25	1.35827664399093
12876.00708007812	-1.608231912842312	0.7534560565021605	9.80278312096589	-0.3987648013326049	-1.534847113104252	-1.791187975974746	0.1695278969957082	0.2589285714285714	1.376417233560091
12895.53833007812	-1.103998584412038	0.768615743419878	9.379450277938528	0.3076685403097343	-0.7809730460315663	-1.065173589380972	0.1802575107296137	0.2745535714285714	1.344671201814059
12915.06958007812	-1.261369844038483	0.8813005671272537	9.810453791603395	-0.396723542483771	1.036052173002609	-1.097431683227184	0.1759656652360515	0.2857142857142857	1.36734693877551
12934.60083007812	-1.065555764598245	0.5157060626964877	9.616800949620377	0.6089749659804996	3.199832039971207	-1.098955511727584	0.1888412017167382	0.25	1.35827664399093
12954.13208007812	-1.75259097318344	0.8963137885197134	8.932566706099063	-0.06612447865192908	3.586019293436668	-0.75660714293906	0.184549356223176	0.2566964285714285	1.385487528344671
12973.66333007812	-1.433088746955487	0.4890783622170297	9.635405307793629	-0.7716936491362412	1.365609742735742	-1.827651121489219	0.1716738197424893	0.2678571428571428	1.349206349206349
12993.19458007812	-1.67564876755989	0.6329181038372153	9.401611449866598	-1.14375832578185	2.799531114947496	-2.209143858960076	0.1802575107296137	0.265625	1.353741496598639
13012.72583007812	-1.470083073229835	0.3480341640656318	9.253205282167173	-0.4231107506379866	3.571253941049945	-1.123311445070741	0.1781115879828326	0.2633928571428572	1.360544217687075
13032.25708007812	-1.4740305716623	0.5298918208681382	9.647955125413706	-0.7612490167996044	1.745630182915124	-1.471530203028453	0.1609442060085837	0.2544642857142857	1.353741496598639
13051.78833007812	-1.541861570278884	0.7628933631775364	9.288197844214896	-0.7357259798034157	0.676963898496029	-1.100620849228511	0.1824034334763948	0.2566964285714285	1.351473922902494
13071.31958007812	-1.435056435529295	0.5699061199108487	9.83217416517445	-1.413730854442705	-0.04121265051713119	-1.106999181231165	0.167381974248927	0.2723214285714285	1.351473922902494
13090.85083007812	-1.595668159867545	0.6927243583663524	9.566815986754508	-1.371088153938131	0.0123336265721571	-0.02754509934448419	0.1802575107296137	0.2678571428571428	1.376417233560091
13110.38208007812	-1.595823716356439	0.7836350048403323	9.582371635643957	-2.030245022752981	-2.5167013281891	-0.01543788717316862	0.1716738197424893	0.2723214285714285	1.360544217687075
13129.91333007812	-1.626898773967371	0.7132386847093709	9.62865290694115	-1.352240148113691	-1.79852477917594	-0.009059555170514429	0.1781115879828326	0.2745535714285714	1.356009070294785
13149.44458007812	-1.434428148931293	0.701212968358	9.76934550537421	-1.748099519439435	-2.229008089801571	-1.451520830354083	0.1974248927038627	0.25	1.36734693877551
13168.97583007812	-1.328806900897476	0.4577325134534193	9.41130233464559	-0.3674309043226944	-0.3947857925661056	-0.7228252205924476	0.1695278969957082	0.25	1.36281179138322
13188.50708007812	-1.533883703405292	0.601197422892639	9.510819320121035	0.6315925729698273	1.026801953073491	-1.07677285871882	0.1695278969957082	0.25	1.36281179138322
13208.03833007812	-1.400464185098036	0.6705702984166371	9.434173611844393	0.2888205344852945	1.029885359716531	-1.083659133554941	0.1759656652360515	0.265625	1.3718820861678
13227.56958007812	-1.842300932181186	0.5537765446753472	9.74029729975123	0.6666960711446257	1.804691592462018	-0.004712994501727668	0.1781115879828326	0.25	1.376417233560091
13247.10083007812	-1.798397473542953	0.7957617525132074	9.431584088989178	1.702551388928	1.071098010233662	0.02334004767622338	0.1695278969957082	0.2611607142857142	1.369614512471655
13266.63208007812	-1.473109354013782	0.5096805884896328	9.555833360561905	1.02454651428871	0.3529214612205015	0.01696171567356919	0.1759656652360515	0.2745535714285714	1.346938775510204
13286.16333007812	-1.635771595705641	0.6830243826237231	9.495526917502879	0.2934543068082095	-0.798821805061329	-1.424991616676532	0.1802575107296137	0.2790178571428572	1.360544217687075
13305.69458007812	-1.636577661148094	0.5113152715609759	9.576133461748206	0.3038989391448463	-0.4188013648819469	-1.068870698215766	0.1995708154506438	0.2544642857142857	1.351473922902494
13325.22583007812	-1.607690495452393	0.6928445817222008	9.748641381974041	1.39661119093432	-1.080999910991252	0.3984544531444263	0.1695278969957082	0.265625	1.378684807256236
13344.75708007812	-1.302293486818022	0.386760308605554	9.821185416496133	1.713860192422664	-0.01541703321519637	0.03443137418060524	0.1781115879828326	0.2522321428571428	1.3718820861678
13364.28833007812	-1.494184310395493	0.610901439063551	9.622512672202401	1.725168995917328	-1.101932076664054	0.0455227006849871	0.1716738197424893	0.2633928571428572	1.374149659863946
13383.81958007812	-1.585356945660536	0.6825202361232721	9.556102729318914	0.05481567515726522	-2.49950424998781	0.7455158164346781	0.184549356223176	0.2589285714285714	1.35827664399093
13403.35083007812	-1.454050571345275	0.5700960612690085	9.690771420241798	2.088830299075134	-0.3449746029483294	0.7646508124426407	0.167381974248927	0.2700892857142857	1.3718820861678
13422.88208007812	-1.821353249290388	0.6646781789575504	9.686345337202102	0.3398666084776718	-1.10744720912166	-0.3418404259550573	0.1716738197424893	0.2544642857142857	1.369614512471655
13442.41333007812	-1.40337733389006	0.8120135713186988	9.7254884910468	1.383261128590822	-2.565384153649255	-0.3063931661075184	0.1824034334763948	0.2834821428571428	1.351473922902494
13461.94458007812	-1.034943336025714	0.5153999384107624	9.616782582163234	1.383261128590822	-2.565384153649255	-0.3063931661075184	0.1824034334763948	0.2723214285714285	1.36281179138322
13481.47583007812	-1.483359961796547	0.4188740036583696	9.560485975573039	0.7006224816286173	-1.454853537884556	0.02856098501141791	0.167381974248927	0.2723214285714285	1.36281179138322
13501.00708007812	-1.723887646974614	0.5424914017222714	9.123458575012428	1.050069551284899	-0.7157448231985937	0.3878710694735113	0.1909871244635193	0.2700892857142857	1.356009070294785
13520.53833007812	-1.410185496775731	0.5393543802202826	9.385896616348573	1.749827861755489	-0.7040628774549096	0.7614616464413136	0.1974248927038627	0.2589285714285714	1.35827664399093
13540.06958007812	-1.227613962261799	0.3557104830569615	9.496090103730895	2.766835173714424	0.3732019460648306	0.7710291444452949	0.1609442060085837	0.28125	1.383219954648526
13559.60083007812	-1.146697995421945	0.7084366769239167	9.567758725867963	2.07752149558047	0.7415404405005285	0.7535594859382588	0.1931330472103004	0.2589285714285714	1.376417233560091
13579.13208007812	-1.329231145867188	0.6597569579233185	9.453726831616814	2.102180361418632	1.139409639709673	1.469498431694585	0.1909871244635193	0.2678571428571428	1.36734693877551
13598.66333007812	-1.378328616292044	0.8218640942437287	9.261433057775838	1.042530348955123	0.008598539100644939	0.3804768518039234	0.1824034334763948	0.2477678571428571	1.356009070294785
13618.19458007812	-1.359405187971017	0.7711698094554679	9.409906552203694	0.7139725439721151	0.02953070477344698	0.7334086042633625	0.1781115879828326	0.2589285714285714	1.36734693877551
13637.72583007812	-1.250367716595085	0.7296753943376681	9.730649210528949	0.007539202329775903	-0.7243433622992387	0.007394217669587907	0.1952789699570815	0.265625	1.378684807256236
13657.25708007812	-1.108390529955631	0.8494677436833948	9.818644832297773	-0.6997583104705902	-0.01168194574368421	-0.3735905769678023	0.1888412017167382	0.2566964285714285	1.351473922902494
13676.78833007812	-1.428807913189677	0.7617628266066444	9.207321931212562	-0.3398666084776718	1.10744720912166	0.3418404259550573	0.1759656652360515	0.2723214285714285	1.346938775510204
13696.31958007812	-1.094238888665655	0.6675080454523132	9.423888866565525	-0.7110671139652541	1.074833097705174	-0.3846819034721842	0.1695278969957082	0.2633928571428572	1.374149659863946
13715.85083007812	-1.53504936696493	0.6921181704373263	9.627385676084828	-1.053839152449787	1.077916504348213	-0.3915681783083053	0.1759656652360515	0.2678571428571428	1.36281179138322
13735.38208007812	-1.444977748406998	0.7720255350598276	9.803897289679348	-1.12200488995055	2.09303651167802	-1.841931613994928	0.1759656652360515	0.2790178571428572	1.36734693877551
13754.91333007812	-1.708253127275927	0.7544562686464967	9.600822931674347	-0.7394955809683037	1.039135579645648	-1.104317958063305	0.1866952789699571	0.25	1.36281179138322
13774.44458007812	-1.880026575974752	0.4531437001031819	9.431229026046596	-0.3436362096425598	1.469618890271279	0.3381433171202634	0.1738197424892704	0.2522321428571428	1.36734693877551
13793.97583007812	-1.587819586699009	0.4098175898063841	9.802366833166163	0.3645254743158334	-0.7095780099125152	0.3740985198012692	0.1802575107296137	0.265625	1.349206349206349
13813.50708007812	-1.411886517082863	0.6807855318374954	9.555998647061767	-0.3427720384845327	0.003083406643039275	-0.006886274836121049	0.1738197424892704	0.2522321428571428	1.353741496598639
13833.03833007812	-1.555776846514305	0.5509113038186785	9.659317304491749	0.7139725439721151	0.02953070477344698	0.7334086042633625	0.1738197424892704	0.2700892857142857	1.36281179138322
13852.56958007812	-1.982773059285233	0.7875044982696202	9.501795724441633	0.3787397078173582	-0.6917292508827525	0.7339165470968294	0.1909871244635193	0.2477678571428571	1.36734693877551
13872.10083007812	-1.504525827814625	0.6716109148438029	9.636256250850225	-0.652481837643101	-1.786842833432255	0.3645310217972879	0.184549356223176	0.2566964285714285	1.374149659863946
13891.63208007812	-1.707634941748632	0.7342480665892036	9.539004378944849	-0.03015680931910361	2.897373449196955	-0.02957687067835163	0.1824034334763948	0.2834821428571428	1.369614512471655
13911.16333007812	-1.591841874283569	0.7128881157125329	9.184187428356895	-0.7127954562813082	4.007904064961654	0.3053772804405847	0.1974248927038627	0.2611607142857142	1.36734693877551
13930.69458007812	-1.695931799998139	0.5927168937575572	9.389098367160809	-1.333079225756472	1.894587068439305	1.393241465663787	0.184549356223176	0.2321428571428571	1.383219954648526
13950.22583007812	-1.523152284656853	0.7324032400182858	9.458085608542513	-1.64278902491504	0.1046608283640102	1.764658762297196	0.184549356223176	0.2566964285714285	1.353741496598639
13969.75708007812	-1.267145677497854	0.739944184047706	9.367628974275187	-1.313367048774005	-1.382806820937032	1.066697417881372	0.1802575107296137	0.2566964285714285	1.351473922902494
13989.28833007812	-1.228670534257796	0.7698624629183357	9.601747303330658	-0.3114381414746222	1.143144727181185	1.061476480546178	0.1824034334763948	0.2611607142857142	1.365079365079365
14008.81958007812	-1.19780557891758	0.5170285608396809	9.576476259104927	-0.3407307796356988	2.5739826927499	0.6868700179114418	0.1824034334763948	0.2589285714285714	1.351473922902494
14028.35083007812	-1.463828449018932	0.7015069713588763	9.648151024342141	-0.6930832792988414	0.7305101755853173	-0.02116676734183	0.1609442060085837	0.2433035714285714	1.356009070294785
14047.88208007812	-1.308748112228933	0.3666228346576429	9.446239794321885	-0.7102029428072271	-0.3917023859230663	-0.7297114954285686	0.1866952789699571	0.2633928571428572	1.353741496598639
14067.41333007812	-1.31002084713807	0.4676456630168354	9.573513285235558	-1.416636284449566	-1.145576452995752	-1.455725882022343	0.1888412017167382	0.2566964285714285	1.35827664399093
14086.94458007812	-1.718893636387998	0.4717343909093346	9.644465679616179	0.32478820381812	0.3412395154768173	-0.3566288612942332	0.1888412017167382	0.2410714285714285	1.351473922902494
14106.47583007812	-1.330540244630872	0.3163357054766118	9.584636707985164	0.0008641711580270224	-1.46653548362824	-0.3450295919563844	0.1630901287553648	0.2589285714285714	1.360544217687075
14126.00708007812	-1.401977325490009	0.498868258103385	9.58548765104176	1.04339452011315	-1.457936944527595	0.03544725984753896	0.1781115879828326	0.2544642857142857	1.36734693877551
14145.53833007812	-1.53686957990641	0.3588030392334076	9.809406970232795	-0.6742352734744016	-1.080348230162779	-0.002681223167860238	0.1652360515021459	0.25	1.365079365079365
