Time Stamp	Accelerometer X	Accelerometer Y	Accelerometer Z	Gyroscope X	Gyroscope Y	Gyroscope Z	Magnetometer X	Magnetometer Y	Magnetometer Z
216.827392578125	-0.4667982244133415	-1.924624947048796	9.945128563783134	-54.61588341283618	8.784512804624965	-1.899587256734628	0.2188841201716738	-0.3794642857142857	0.7301587301587302
236.358642578125	0.4018099969247105	-9.791896887848036	-2.425897651654721	2.692858576199939	-0.8204056515626039	-1.376787692823685	0.2317596566523605	-0.3839285714285714	0.7392290249433107
255.889892578125	0.1528822613463407	-9.304559125643769	-2.022920012185091	-1.428809259102257	1.407474074081346	-1.121787616570341	0.2317596566523605	-0.3727678571428571	0.7188208616780045
275.421142578125	0.2769218841658133	-9.598728814801257	-2.181984334948682	1.320042079945754	2.124998942266033	-0.7142736082554	0.2103004291845494	-0.3794642857142857	0.7074829931972789
294.952392578125	0.3176374448887798	-9.599135970408486	-2.171907754184105	0.2859151044784336	-0.07447844276209033	-1.43238583434612	0.2317596566523605	-0.3660714285714285	0.7120181405895691
314.483642578125	0.5323850537207532	-9.863909709123069	-2.21809720881001	0.260392067482245	0.9941878416570049	-1.803295188146062	0.2210300429184549	-0.3772321428571428	0.7210884353741497
334.014892578125	0.3801471582278267	-9.720973188753996	-2.300430108496957	0.2737421298257428	2.478572084315008	-1.098447568894117	0.2210300429184549	-0.390625	0.7074829931972789
353.546142578125	0.2160182410692486	-9.628422808673321	-2.214069004884036	0.6788690457973167	-0.7483589346150801	-0.3386512599537302	0.2103004291845494	-0.390625	0.7120181405895691
373.077392578125	0.6525216228188732	-9.713595923298898	-1.986856159438338	0.03015680931910361	-2.897373449196955	0.02957687067835163	0.2103004291845494	-0.3816964285714285	0.7233560090702948
392.608642578125	0.5315749478500169	-9.692184436347191	-2.137086621736387	0.3189773438043981	-1.867488089480424	-1.05408226287659	0.2231759656652361	-0.3816964285714285	0.7346938775510204
412.139892578125	0.1948705569784439	-9.405989109610189	-2.140116922334188	0.6315925729698273	1.026801953073491	-1.07677285871882	0.2210300429184549	-0.3883928571428571	0.7120181405895691
431.671142578125	-0.1840423328666544	-9.493109071620829	-2.003929978640684	0.3143435714814832	-0.03878092470256481	-0.7127497797549994	0.2231759656652361	-0.3727678571428571	0.7120181405895691
451.202392578125	0.3360982441714069	-9.720532699613432	-1.9771713559162	0.3076685403097343	-0.7809730460315663	-1.065173589380972	0.2296137339055794	-0.3727678571428571	0.7188208616780045
470.733642578125	0.3382194690199681	-9.720553911861918	-2.189293840772321	-0.06439613633587504	0.6529483261801876	-1.446666326851829	0.2274678111587983	-0.3883928571428571	0.7142857142857143
490.264892578125	0.3988362417084418	-9.549442907871633	-2.128522130027854	0.2679312698120209	0.2698444793577662	-1.795900970476474	0.2296137339055794	-0.3861607142857142	0.7006802721088435
509.796142578125	0.3989614949852139	-9.58984820080844	-2.141047457705072	0.6817744758041775	0.3560048678635408	0.01007544083744814	0.2317596566523605	-0.375	0.7210884353741497
529.327392578125	0.65340041597042	-9.663099660725363	-2.074735474593017	-0.4033985736555198	0.2938600516736076	-1.449855492853156	0.2467811158798283	-0.3705357142857142	0.7120181405895691
548.858642578125	0.3205647351797943	-9.932498576644731	-2.464636783285552	0.2821455033135457	0.287693238387529	-1.436082943180914	0.1974248927038627	-0.3883928571428571	0.7074829931972789
568.389892578125	0.4387699795586529	-9.761963457371344	-2.040263261987735	1.028316115453598	-0.009250219929117825	0.02065882450836315	0.1974248927038627	-0.3705357142857142	0.7188208616780045
587.921142578125	0.4383517952313651	-9.57004008360888	-1.998444829258957	0.7006224816286173	-1.454853537884556	0.02856098501141791	0.2253218884120172	-0.3839285714285714	0.6961451247165533
607.452392578125	0.6736309228409896	-9.703706006198107	-2.056969835119361	0.2670670986539939	1.736379962986007	-1.45087137852009	0.2231759656652361	-0.3928571428571428	0.7052154195011338
626.983642578125	0.2686995713811017	-9.871373864400681	-2.380161219742829	0.9488415744581713	2.092384830849547	-1.440795937682642	0.2188841201716738	-0.4017857142857142	0.7165532879818595
646.514892578125	0.4082363393376403	-9.892971252282265	-2.048123729682391	0.9923484461207727	0.6793956243105954	-0.7063714477523452	0.2253218884120172	-0.3861607142857142	0.7097505668934241
666.046142578125	0.3272617862876833	-9.811353425943686	-2.113933730809147	0.3134794003234562	1.427754558925675	-0.367720187798615	0.2253218884120172	-0.3861607142857142	0.7120181405895691
685.577392578125	0.09103315803156002	-9.778688109358095	-1.96045866029886	0.9270881386268708	2.798879434119023	-1.80800818264779	0.2274678111587983	-0.359375	0.6984126984126985
705.108642578125	-0.1411631227981555	-9.564244934428586	-2.210218332429352	0.3331915773059229	-1.849639330450662	-0.6942642355810297	0.2188841201716738	-0.390625	0.7074829931972789
724.639892578125	0.4187051302476852	-9.660752707868136	-2.074594657421583	0.7508043844629675	-2.125650623094506	1.115409284567686	0.2167381974248927	-0.3772321428571428	0.7188208616780045
744.171142578125	0.6815057587933654	-9.693683744456623	-1.82404526709164	0.6826386469622047	-1.110530615764699	-0.3349541511189363	0.2124463519313305	-0.3928571428571428	0.7256235827664399
763.702392578125	0.3468720874168164	-9.660034377439827	-2.034147517191844	-0.140965247324441	3.858947179437473	-2.559394388251655	0.2188841201716738	-0.3883928571428571	0.7074829931972789
783.233642578125	-0.01883058092823923	-9.706882401261426	-2.198574560237302	0.2746063009837698	1.012036600686768	-1.443477160850502	0.2231759656652361	-0.3660714285714285	0.7233560090702948
802.764892578125	0.6146182001808564	-9.854631030486658	-2.278146548697887	0.7006224816286173	-1.454853537884556	0.02856098501141791	0.2339055793991416	-0.375	0.7210884353741497
822.296142578125	0.5830320283921291	-9.914921229374833	-2.180753859621076	0.6788690457973167	-0.7483589346150801	-0.3386512599537302	0.2339055793991416	-0.3883928571428571	0.7210884353741497
841.827392578125	0.522554650479418	-9.813306354585603	-2.255465047941803	-0.7537098144698285	1.021286820615886	-1.464135985358865	0.2381974248927039	-0.3772321428571428	0.7120181405895691
861.358642578125	0.2379942129580628	-9.547834487584128	-2.370849867234846	0.9998876484505487	-0.04494773798864335	-0.6989772300827574	0.2231759656652361	-0.3816964285714285	0.7120181405895691
880.889892578125	0.4209677700861505	-9.559765233256419	-2.300858641268113	1.056744582456648	0.0264472981304077	0.7402948790994835	0.2253218884120172	-0.3772321428571428	0.7074829931972789
900.421142578125	0.488924021979506	-9.833172068502623	-1.953626687746521	0.6240533706400514	1.75114531537273	-1.084167076388408	0.2339055793991416	-0.3727678571428571	0.7142857142857143
919.952392578125	0.0195556728895929	-9.697165253698595	-1.955567288959289	0.9961180472856607	0.317223943160976	-0.7026743389175513	0.2339055793991416	-0.375	0.7097505668934241
939.483642578125	0.2142000483419104	-9.628404626746047	-2.032249732150218	0.01680674697560585	-4.381757691854958	-0.675270748573593	0.2360515021459227	-0.3772321428571428	0.7165532879818595
959.014892578125	0.5496862500861667	-9.904486761490762	-1.907400518820759	1.323811681110642	1.762827261116414	-0.7105764994206061	0.2360515021459227	-0.3816964285714285	0.7188208616780045
978.546142578125	0.1228799374445391	-9.647693445839092	-2.083912111800851	0.9952538761276337	1.783759426789216	-0.3576447469611668	0.2360515021459227	-0.3772321428571428	0.7301587301587302
998.077392578125	0.02534762683323575	-9.58611206212692	-2.534762683323575	-1.045435778961984	-1.112962341579266	-0.7292035525951017	0.2231759656652361	-0.3772321428571428	0.7165532879818595
1017.608642578125	0.1653652057554481	-9.567310217714123	-2.250806289830524	0.01594257581757883	-2.915222208226718	-0.3302411566172086	0.2210300429184549	-0.3772321428571428	0.7210884353741497
1037.139892578125	0.4779360360350989	-9.873466229047221	-1.875236256571116	0.652481837643101	1.786842833432255	-0.3645310217972879	0.2296137339055794	-0.3727678571428571	0.7188208616780045
1056.671142578125	0.3657510710267313	-9.468303975356735	-1.881229551652717	-0.06526030749390206	2.119483809808428	-1.101636734895444	0.2167381974248927	-0.3794642857142857	0.6984126984126985
1076.202392578125	0.1004958822991446	-9.384843342661377	-1.886322923792006	0.2992651668219314	1.409905799895913	-0.7275382150941753	0.2188841201716738	-0.3772321428571428	0.7188208616780045
1095.733642578125	0.298372600377841	-9.821165544185599	-2.286239629620833	0.714836715130142	-1.437004778854793	0.3883790123069781	0.2081545064377682	-0.3727678571428571	0.7120181405895691
1115.264892578125	0.299215029674841	-9.710062857367458	-2.370482559320835	0.6684244134606798	-1.128379374794462	-0.6947721784144965	0.2296137339055794	-0.3638392857142857	0.7097505668934241
1134.796142578125	0.4703702928463706	-9.388542086766849	-2.139070100963587	0.9952538761276337	1.783759426789216	-0.3576447469611668	0.2446351931330472	-0.375	0.7029478458049887
1154.327392578125	0.2328265051841393	-9.689196951920531	-1.854079089842505	0.2490832639875812	2.080702885105863	-1.814386514650444	0.2253218884120172	-0.375	0.7165532879818595
1173.858642578125	0.1955614702148324	-9.547410160156696	-2.209208245973038	1.006562679622298	0.6972443833403581	-0.346553420456785	0.2317596566523605	-0.3928571428571428	0.7210884353741497
1193.389892578125	0.1143323701830481	-9.546597869156379	-2.24956354891706	-0.4109377759852957	1.018203413972846	-1.457249710522744	0.2210300429184549	-0.3772321428571428	0.7188208616780045
1212.921142578125	-0.06110574696843356	-9.464035407176784	-2.052690609279092	0.2746063009837698	1.012036600686768	-1.443477160850502	0.2253218884120172	-0.3816964285714285	0.7142857142857143
1232.452392578125	0.2163636976874428	-9.699133333946573	-2.248614666703461	0.3578504431440845	-1.451770131241517	0.02167471017529686	0.2446351931330472	-0.3705357142857142	0.7278911564625851
1251.983642578125	0.5614398971901975	-9.793493186850691	-2.062357065958516	0.01680674697560585	-4.381757691854958	-0.675270748573593	0.2210300429184549	-0.3660714285714285	0.7188208616780045
1271.514892578125	0.5816623232042011	-9.65228126969669	-2.043783340828266	0.6382676041415761	1.768994074402493	-0.7243490490928481	0.2103004291845494	-0.3772321428571428	0.7052154195011338
1291.046142578125	0.09487762554280954	-9.788827564134218	-2.344905411423811	0.6420372053064641	1.406822393252873	-0.7206519402580541	0.2231759656652361	-0.3638392857142857	0.7142857142857143
1310.577392578125	0.2844573241424194	-9.528097098493951	-1.915120169343981	0.6855440769690655	-0.00616681328607855	0.0137725496722421	0.2274678111587983	-0.3861607142857142	0.6870748299319728
1330.108642578125	0.4794451359987896	-9.358329804895344	-2.026146252940185	0.3076685403097343	-0.7809730460315663	-1.065173589380972	0.2167381974248927	-0.3705357142857142	0.7029478458049887
1349.639892578125	0.4137616250146068	-9.842521454633987	-2.60065229737905	0.9526111756230593	1.730213149699928	-1.437098828847847	0.2446351931330472	-0.3772321428571428	0.7278911564625851
1369.171142578125	0.3172515839877558	-9.629435142102507	-2.133321664081706	0.6864082481270926	-1.472702296914319	-0.3312570422841423	0.2296137339055794	-0.3794642857142857	0.7097505668934241
1388.702392578125	0.6240708233777335	-10.11735181934489	-2.20300070512029	0.03769601164887951	-3.621716811496194	0.03697108834793953	0.240343347639485	-0.3950892857142857	0.7165532879818595
1408.233642578125	0.4503579691030816	-9.71157428676174	-2.1786540531653	-0.6658318999865986	-3.271227076090259	-0.3403165974546568	0.2317596566523605	-0.3839285714285714	0.7188208616780045
1427.764892578125	0.1864765259917059	-9.729137492532645	-2.321121986925696	1.622212676774546	4.639268544640567	-1.093085122558397	0.2489270386266094	-0.3638392857142857	0.7210884353741497
1447.296142578125	0.3993170526741157	-9.509043675577249	-2.176603226595241	0.6968528804637294	-1.092681856734937	0.02486387617662396	0.2103004291845494	-0.3861607142857142	0.7188208616780045
1466.827392578125	0.6856673999248284	-9.895745562888138	-2.240209380237935	0.3645254743158334	-0.7095780099125152	0.3740985198012692	0.2339055793991416	-0.3727678571428571	0.7256235827664399
1486.358642578125	0.6672046216569198	-9.430914470458994	-1.414339716712388	-0.4109377759852957	1.018203413972846	-1.457249710522744	0.2360515021459227	-0.3616071428571428	0.7074829931972789
1505.889892578125	0.4385113921485426	-9.499334608870981	-2.014404520976703	0.9668254091245841	1.748061908729691	-1.077280801552287	0.2532188841201717	-0.3727678571428571	0.7165532879818595
1525.421142578125	-0.05377838904840068	-9.383300599947901	-1.765018238017076	1.02454651428871	0.3529214612205015	0.01696171567356919	0.2231759656652361	-0.3683035714285714	0.7097505668934241
1544.952392578125	0.3793572544985053	-9.751268320019735	-2.221439735564821	1.054703323607814	-2.544451987976453	0.04653858635192082	0.2253218884120172	-0.3727678571428571	0.7074829931972789
1564.483642578125	0.4799118054654731	-9.631061744317282	-2.072813199608532	-1.073864245965034	-1.148659859638791	-1.448839607186222	0.2381974248927039	-0.390625	0.7165532879818595
1584.014892578125	0.07341478804593299	-9.546188693335006	-2.239437988266767	0.6307284018118002	2.493337436701732	-0.7317432667624361	0.2274678111587983	-0.3638392857142857	0.7074829931972789
1603.546142578125	0.4278648223940467	-9.77195541590071	-1.970155708792427	0.05104607399237727	-2.137332568838191	0.7418187075998842	0.2274678111587983	-0.3861607142857142	0.7233560090702948
1623.077392578125	0.4894957425815468	-9.439238391769251	-2.0107987479506	-0.04931773167632323	-0.7957383984182897	-1.431877891512653	0.2339055793991416	-0.3816964285714285	0.7188208616780045
1642.608642578125	0.2555459158770207	-9.669222125825437	-2.085203832600032	-0.07947454099542683	2.101635050778665	-1.461454762191005	0.2210300429184549	-0.3883928571428571	0.7097505668934241
1662.139892578125	0.2252324789974302	-9.830535153072804	-2.115084634436894	1.317136649938893	1.020635139787412	-1.063000309046578	0.2253218884120172	-0.3816964285714285	0.7233560090702948
1681.671142578125	0.4378831055505401	-9.630641457318132	-1.951575861176462	0.3323274061478959	-0.3831038468224214	-0.3492346436246452	0.2339055793991416	-0.3660714285714285	0.7097505668934241
1701.202392578125	0.5030635419846327	-9.994929625318839	-2.347170524993878	1.050933722442926	-2.182280306826834	0.04284147751712686	0.2188841201716738	-0.3816964285714285	0.6984126984126985
1720.733642578125	0.277970375305245	-9.831062532035881	-2.28683344889185	-1.445064751452616	-1.181273971055277	-2.175361936613464	0.2231759656652361	-0.3928571428571428	0.7097505668934241
1740.264892578125	-0.2048243581978499	-9.543406301872569	-1.966543772051748	1.371088153938131	-0.0123336265721571	0.02754509934448419	0.2081545064377682	-0.3772321428571428	0.7120181405895691
1759.796142578125	0.4380689652515569	-9.772057457329284	-1.970161831278141	0.6855440769690655	-0.00616681328607855	0.0137725496722421	0.2339055793991416	-0.359375	0.7052154195011338
1779.327392578125	0.3043403541806532	-9.831326231824637	-1.862606846636751	0.9705950102894721	1.385890227580071	-1.073583692717493	0.2317596566523605	-0.3683035714285714	0.7256235827664399
1798.858642578125	0.1142556020456716	-9.587001141879044	-2.241886735179409	0.2859151044784336	-0.07447844276209033	-1.43238583434612	0.2188841201716738	-0.3772321428571428	0.7210884353741497
1818.389892578125	0.1935715592854678	-9.597895311552453	-2.010217153036582	2.028203763904147	-0.05419795791776118	-0.6783184055743942	0.2424892703862661	-0.3950892857142857	0.7097505668934241
1837.921142578125	0.1644116646806663	-9.324876439879132	-2.155452182352344	1.003657249615437	-0.4071194191382627	-0.6952801212479633	0.2381974248927039	-0.3772321428571428	0.6984126984126985
1857.452392578125	0.1647268180867383	-9.850132116665717	-2.186967522959539	0.01217297465269088	-2.553050527077098	-0.3339382654520026	0.2188841201716738	-0.3727678571428571	0.7052154195011338
1876.983642578125	0.2262001615712024	-9.759837759191472	-2.211852891814114	1.032085716618486	-0.3714219010787372	0.0243559333431571	0.2167381974248927	-0.3883928571428571	0.7346938775510204
1896.514892578125	0.4603095851929059	-9.459148550397385	-2.153407498882429	0.6893136781339535	-0.3683384944356979	0.01746965850703605	0.2210300429184549	-0.3928571428571428	0.7074829931972789
1916.046142578125	0.2843785357909014	-9.396783179297305	-1.907241334192182	0.6487122364782131	2.149014514581875	-0.3682281306320819	0.2188841201716738	-0.3727678571428571	0.7210884353741497
1935.577392578125	0.3061807692635478	-9.700031504662334	-2.046648354926205	0.2963597368150704	0.3055419974172918	-1.076264915885354	0.2317596566523605	-0.3683035714285714	0.7120181405895691
1955.108642578125	0.3402760470160018	-9.781180538247938	-2.394951640375685	0.2670670986539939	1.736379962986007	-1.45087137852009	0.2360515021459227	-0.375	0.7052154195011338
1974.639892578125	0.1532438796776668	-9.738906176170515	-2.059081845317706	-0.0313338970099105	-1.140061320538146	-1.068362755382299	0.2339055793991416	-0.3816964285714285	0.7074829931972789
1994.171142578125	0.2133677201156178	-9.587992263059745	-1.949016909520958	0.6420372053064641	1.406822393252873	-0.7206519402580541	0.2446351931330472	-0.3861607142857142	0.6984126984126985
2013.702392578125	0.1543853006676069	-9.789422640885466	-2.173223944311714	-0.3862789101471341	1.416072613181991	-0.7413107647664173	0.2103004291845494	-0.3772321428571428	0.6870748299319728
2033.233642578125	0.09312407966799893	-9.72820396806941	-2.169550823942751	-1.145799584630685	0.2286318288406351	-2.902900151707639	0.2296137339055794	-0.390625	0.7188208616780045
2052.764892578125	0.3688440188773476	-9.741062177562513	-2.190524336714357	1.009468109629158	1.801608185818979	0.002173280334393381	0.2296137339055794	-0.3616071428571428	0.7097505668934241
2072.296142578125	0.3405447354968195	-9.892294336243857	-2.42182048845746	0.9592862067948084	2.472405271028929	-1.084675019221875	0.2167381974248927	-0.375	0.7074829931972789
2091.827392578125	0.2268082460277899	-9.93156101175321	-2.272661337472869	0.328557804983008	-0.02093216567280204	-0.3529317524594392	0.2467811158798283	-0.3638392857142857	0.7097505668934241
2111.358642578125	0.2942533837433493	-9.689811220706122	-1.87431796617166	0.02638720815421566	-2.535201768047335	0.02587976184355767	0.2317596566523605	-0.3660714285714285	0.7165532879818595
2130.889892578125	0.6959260885641586	-9.481706735633118	-2.245670080905664	-0.05599276284807211	-1.537930519747291	-1.784301701138625	0.2532188841201717	-0.375	0.7074829931972789
2150.421142578125	0.1347851006091813	-9.78922663888488	-2.25402026499976	0.2812813321555186	1.754228722015769	-1.09105335122453	0.2274678111587983	-0.3883928571428571	0.7278911564625851
2169.952392578125	0.1779895651544596	-9.729052622924273	-2.492834066466366	-0.6884495069759263	-1.098196989192542	-0.3624992504634205	0.2210300429184549	-0.3883928571428571	0.7097505668934241
2189.483642578125	0.83194764268565	-9.877006345113726	-2.582519370605814	0.7043920827935053	-1.817025219034175	0.03225809384621187	0.2381974248927039	-0.3794642857142857	0.7142857142857143
2209.014892578125	0.3868603710488476	-9.458414058255944	-1.951343227333741	-0.01711966350838571	-1.122212561508384	-0.7085447280867386	0.203862660944206	-0.4040178571428571	0.7301587301587302
2228.546142578125	0.2020726616217046	-9.789899514495007	-1.839919223394953	1.014101881952074	-0.02709897895888059	-0.3391592027871971	0.2210300429184549	-0.3549107142857142	0.7210884353741497
2248.077392578125	0.4073110812608393	-9.529325636065135	-1.955597922002292	1.068053385951311	-1.06006774531845	0.7513862056038655	0.2167381974248927	-0.3727678571428571	0.7210884353741497
2267.608642578125	0.5846057752083473	-9.844229896135925	-2.338128541242903	0.3427720384845327	-0.003083406643039275	0.006886274836121049	0.259656652360515	-0.3616071428571428	0.7210884353741497
2287.139892578125	0.570508679700192	-9.75317983427175	-1.948827153692669	-1.15333878696046	0.9529751911398736	-2.910294369377227	0.2231759656652361	-0.4017857142857142	0.7278911564625851
2306.671142578125	0.275596623688998	-9.578513541994468	-2.049458287267143	0.5730072966476741	3.888477884210921	-1.825985783988292	0.2188841201716738	-0.3772321428571428	0.7188208616780045
2326.202392578125	0.237497240279257	-9.729647699675521	-2.321152599354269	0.2992651668219314	1.409905799895913	-0.7275382150941753	0.2145922746781116	-0.3861607142857142	0.7052154195011338
2345.733642578125	0.2681864369891641	-9.689550551238582	-2.328847780549062	0.2290581704723345	-0.1458734788811414	-2.871657943528361	0.2296137339055794	-0.3883928571428571	0.7188208616780045
2365.264892578125	0.6050322428506412	-9.874737191115377	-2.33995897894167	0.3143435714814832	-0.03878092470256481	-0.7127497797549994	0.2339055793991416	-0.3727678571428571	0.7210884353741497
2384.796142578125	0.4501539274747914	-9.539855074628285	-2.158249890336283	1.027451944295571	1.457285263699122	0.3656884164647475	0.2103004291845494	-0.3616071428571428	0.7233560090702948
2404.327392578125	0.3454276343056533	-9.609514882403664	-1.889702206075533	1.020776913123822	0.7150931423701209	0.01326460683877524	0.2296137339055794	-0.3794642857142857	0.7188208616780045
2423.858642578125	0.1835350942017011	-9.708906058012726	-2.026978807925208	0.5985303336438628	2.819811599791825	-1.455076430188351	0.2381974248927039	-0.375	0.7369614512471655
2443.389892578125	0.1249405558688557	-9.546703951013235	-2.289973954232511	0.2954955656570434	1.772077481045532	-0.7312353239289692	0.2274678111587983	-0.3883928571428571	0.7142857142857143
2462.921142578125	0.1344234822778551	-9.859930093408639	-2.217858431867145	0.6864082481270926	-1.472702296914319	-0.3312570422841423	0.2360515021459227	-0.3705357142857142	0.7120181405895691
2482.452392578125	0.1776824926049536	-9.385615208764435	-2.462126811515765	0.3047631103028733	-1.885336848510187	-1.41390029017215	0.2145922746781116	-0.3794642857142857	0.7256235827664399
2501.983642578125	0.4300668558082674	-9.56995723421465	-2.190359050214495	0.2261527404654735	-1.250237281359762	-3.220384644319539	0.2167381974248927	-0.3883928571428571	0.7120181405895691
2521.514892578125	0.3251728848653859	-9.528504254101181	-1.905043588579404	0.9772700414612209	2.128082348909073	-0.721159883091521	0.2231759656652361	-0.3705357142857142	0.7120181405895691
2541.046142578125	0.2034706498076135	-9.426277130740502	-1.979718041985844	0.03510349817479845	0.777889639388527	1.072059864217093	0.2167381974248927	-0.375	0.7074829931972789
2560.577392578125	0.07176831352062119	-9.495667178084702	-2.074790535735588	0.6487122364782131	2.149014514581875	-0.3682281306320819	0.2296137339055794	-0.3839285714285714	0.7210884353741497
2580.108642578125	0.2372669358671275	-9.85085751784352	-2.298122158141318	0.6901778492919806	-1.834873978063938	-0.3275599334493484	0.2489270386266094	-0.3772321428571428	0.7188208616780045
2599.639892578125	0.4299981685274569	-9.792178769564064	-2.18349032213344	0.03306223932596454	-1.793009646718334	0.37830357146953	0.2446351931330472	-0.3839285714285714	0.7188208616780045
2619.171142578125	0.562728793812466	-9.753102035412875	-2.191246728185379	0.2963597368150704	0.3055419974172918	-1.076264915885354	0.2381974248927039	-0.375	0.7278911564625851
2638.702392578125	0.06330559525307265	-9.535986591306068	-2.248926872246041	0.259527896324218	2.460723325285245	-1.458265596189678	0.2317596566523605	-0.3861607142857142	0.7188208616780045
2658.233642578125	0.2756572301132426	-9.679524249068811	-2.055518929691603	0.6600210399728769	1.062499471133017	-0.3571368041277	0.2274678111587983	-0.390625	0.7142857142857143
2677.764892578125	0.5143020344825842	-9.530395545597353	-2.45061161152372	-0.02088926467327366	-0.7600408803587642	-0.7122418369215325	0.240343347639485	-0.375	0.6984126984126985
2697.296142578125	0.2643763131183198	-9.568300328787751	-1.947835393464639	0.6893136781339535	-0.3683384944356979	0.01746965850703605	0.2060085836909871	-0.3705357142857142	0.7256235827664399
2716.827392578125	0.2975220902242751	-9.750449968376993	-2.201188614264236	-0.03219806816793752	0.3264741630900938	-0.7233331634259144	0.2231759656652361	-0.390625	0.7029478458049887
2736.358642578125	0.2053817723854601	-9.749528565198604	-2.170830299770502	0.645806806471352	1.044650712103254	-0.7169548314232602	0.2317596566523605	-0.3772321428571428	0.7256235827664399
2755.889892578125	0.1772986519180711	-9.587631572377768	-2.423742742827515	-0.7348618086453887	-0.7895715851322112	-1.445650441184895	0.2339055793991416	-0.3727678571428571	0.7074829931972789
2775.421142578125	0.1553954077383504	-9.789432741956173	-2.274234651386057	-0.0539515039992382	1.03296876635957	-1.090545408391063	0.2145922746781116	-0.4017857142857142	0.7142857142857143
2794.952392578125	0.6116343438938803	-9.763692101014698	-1.979760920000276	-0.03510349817479845	-0.777889639388527	-1.072059864217093	0.240343347639485	-0.3794642857142857	0.7029478458049887
2814.483642578125	0.3472195642491521	-9.902462094632392	-2.068895200425418	-0.08905500217403665	0.2550791269710427	-2.162605272608155	0.2188841201716738	-0.3883928571428571	0.7188208616780045
2834.014892578125	0.2372871380085423	-9.547827416834632	-2.300142372282806	1.344700945783915	2.522868141475178	0.001665337500926522	0.2339055793991416	-0.3861607142857142	0.7210884353741497
2853.546142578125	0.1158859148578515	-9.778936636926359	-2.4049180163974	0.2984009956639044	2.876441283524152	-0.3825086231377908	0.2339055793991416	-0.3638392857142857	0.7097505668934241
2873.077392578125	0.1541105515443647	-9.668207772182111	-2.145749031987493	0.9914842749627457	2.145931107938835	-0.3613418557959608	0.240343347639485	-0.3816964285714285	0.7097505668934241
2892.608642578125	0.2659116758658499	-9.770335884435429	-2.101371668217641	0.6759636157904557	-1.852722737093701	-0.6873779607449086	0.2317596566523605	-0.3727678571428571	0.7233560090702948
2912.139892578125	0.4281234098041571	-10.03458426440107	-1.996014449803458	0.325652374976147	-1.125295968151423	-0.7016584532506176	0.2253218884120172	-0.3839285714285714	0.7120181405895691
2931.671142578125	0.604607997880929	-9.672712746645477	-2.297534481970446	0.9932126172787999	-0.7871398593176447	-1.05140103970873	0.2210300429184549	-0.3794642857142857	0.7052154195011338
2951.202392578125	0.3160879406422594	-9.710231586477132	-2.016957329532063	0.6202837694751635	2.113316996522349	-1.087864185223202	0.2467811158798283	-0.3683035714285714	0.7120181405895691
2970.733642578125	0.1413528580120151	-9.78929231645891	-1.890387842017838	0.6429013764644912	-0.05971309037536685	-1.065681532214439	0.2296137339055794	-0.3772321428571428	0.7052154195011338
2990.264892578125	0.1036918610709768	-9.829319746893539	-2.205920800975229	-0.002905430006860929	-1.104363802478621	-0.3487267007911783	0.2103004291845494	-0.3816964285714285	0.7074829931972789
3009.796142578125	0.6619217204480715	-9.552073762659028	-1.906457759092875	0.6968528804637294	-1.092681856734937	0.02486387617662396	0.203862660944206	-0.3705357142857142	0.7324263038548753
3029.327392578125	0.5984827086039407	-9.228207049308265	-1.685005554271627	-0.0313338970099105	-1.140061320538146	-1.068362755382299	0.2296137339055794	-0.3727678571428571	0.7074829931972789
3048.858642578125	0.1053161132407322	-9.506103666182915	-2.368346017950773	0.64957640763624	0.6824790309536346	-0.7132577225884663	0.2274678111587983	-0.375	0.7006802721088435
3068.389892578125	0.1551610628979379	-9.567208176285547	-2.25080016734481	0.656251438807989	1.424671152282636	-0.360833912962494	0.2253218884120172	-0.3928571428571428	0.7165532879818595
3087.921142578125	0.3156838978139621	-9.71022754604885	-1.976553046702325	0.6382676041415761	1.768994074402493	-0.7243490490928481	0.2060085836909871	-0.3727678571428571	0.7097505668934241
3107.452392578125	0.222103167292267	-9.497170526622419	-1.802153463920578	1.342659686935082	-0.04803114463168263	-0.6920909552466362	0.2210300429184549	-0.3772321428571428	0.7074829931972789
3126.983642578125	0.4987928092895294	-9.611048534153504	-1.920097255483554	0.3181131726463711	-0.4009526058521842	-0.7090526709202054	0.2145922746781116	-0.3883928571428571	0.7188208616780045
3146.514892578125	0.4798431181846625	-9.853283279666696	-2.065944471527477	1.00279307845741	1.059416064489977	-0.350250529291579	0.2489270386266094	-0.3883928571428571	0.7233560090702948
3166.046142578125	0.1553388417423887	-10.03185641872046	-2.268578051789894	0.2850509333204066	1.39205704086615	-1.087356242389735	0.2231759656652361	-0.3772321428571428	0.7142857142857143
3185.577392578125	0.3379346188260185	-9.750854093663008	-2.160808821377357	1.050069551284899	-0.7157448231985937	0.3878710694735113	0.203862660944206	-0.3705357142857142	0.7120181405895691
3205.108642578125	0.3603792803956576	-9.609664398864563	-2.364458651810662	-0.3665667331646674	-1.861321276194346	-1.067854812548832	0.2188841201716738	-0.3772321428571428	0.7052154195011338
3224.639892578125	0.3987796757124802	-9.791866584635915	-2.122865530431691	-1.081403448294809	-0.4243164973395526	-1.45623382485581	0.2381974248927039	-0.3839285714285714	0.7256235827664399
3244.171142578125	0.3254314722754962	-9.791133102601545	-1.930902329590436	-0.05104607399237727	2.137332568838191	-0.7418187075998842	0.2231759656652361	-0.3772321428571428	0.6938775510204082
3263.702392578125	0.1849573249573078	-9.890738462138462	-2.169201883485884	0.32478820381812	0.3412395154768173	-0.3566288612942332	0.2253218884120172	-0.3705357142857142	0.7278911564625851
3283.233642578125	0.6349537581867833	-9.733622264854597	-2.270886022759963	-0.06816573750076299	1.015120007329807	-1.450363435686623	0.2317596566523605	-0.3816964285714285	0.7188208616780045
3302.764892578125	0.3603509973976768	-9.730876237246706	-2.36163035201258	-0.05772110516412615	1.395140447509189	-1.094242517225857	0.2274678111587983	-0.3928571428571428	0.7120181405895691
3322.296142578125	0.2290688656521137	-9.65885634522218	-2.49872329990525	0.7365901509614428	-2.143499382124269	0.7555912572721263	0.2274678111587983	-0.3638392857142857	0.7029478458049887
3341.827392578125	0.6038019324384757	-9.844421857708227	-2.21692793772512	-0.644078464155298	-3.977721679359735	0.02689564751049139	0.2381974248927039	-0.3616071428571428	0.7188208616780045
3361.358642578125	0.6454568927372335	-9.895343457816262	-2.300791314539683	-0.0464123016694623	0.3086254040603311	-1.083151190721475	0.2253218884120172	-0.3727678571428571	0.7120181405895691
3380.889892578125	-0.1975959907707498	-9.634387676455932	-1.668972351496447	1.649464056086789	0.6375312929649912	-1.412234952671224	0.2360515021459227	-0.3839285714285714	0.7210884353741497
3400.421142578125	0.2346244957700627	-9.487194729806188	-2.033878148434836	0.6930832792988414	-0.7305101755853173	0.02116676734183	0.2296137339055794	-0.3571428571428571	0.7165532879818595
3419.952392578125	0.3616196918785305	-9.488464681767272	-2.488499800097956	0.7177421451370031	-0.3326409763761723	0.7371057130981565	0.2253218884120172	-0.3794642857142857	0.7165532879818595
3439.483642578125	0.3878866398327229	-9.317010179529641	-2.053970105721274	-0.3845505678310801	-1.516998354074489	-1.431369948679186	0.2339055793991416	-0.375	0.6984126984126985
3459.014892578125	0.3389810897513087	-9.811470618978323	-2.265455913906377	0.6855440769690655	-0.00616681328607855	0.0137725496722421	0.2317596566523605	-0.3928571428571428	0.7029478458049887
3478.546142578125	0.1132596364739186	-9.778910374142519	-2.142290178004107	-1.001064736141356	-3.992487031746458	-0.3398086546211899	0.2060085836909871	-0.3839285714285714	0.7074829931972789
3498.077392578125	0.3991049301892595	-9.660556705867551	-2.155390978109629	0.6780048746392896	0.7181765490131601	0.006378332002654191	0.2188841201716738	-0.3705357142857142	0.7074829931972789
3517.608642578125	0.2970897643979968	-9.87165776633085	-2.157956031636417	0.5985303336438628	2.819811599791825	-1.455076430188351	0.2274678111587983	-0.3772321428571428	0.6984126984126985
3537.139892578125	0.3158131915190172	-9.589016717773779	-1.989482417207841	-0.07947454099542683	2.101635050778665	-1.461454762191005	0.2081545064377682	-0.3549107142857142	0.7120181405895691
3556.671142578125	0.07249761082569794	-9.364361339744622	-2.147720266243264	0.7035279116354782	-0.3504897354059351	0.3772876858025963	0.2167381974248927	-0.3683035714285714	0.7074829931972789
3576.202392578125	0.5961008349022677	-9.975657978045994	-2.467226347369628	0.3540808419791966	-1.089598450091897	0.01797760134050291	0.2188841201716738	-0.3950892857142857	0.7256235827664399
3595.733642578125	0.2986332080020928	-9.750461079554771	-2.312300392046013	0.3097097991585682	1.789926240075295	-0.3714172966334089	0.2210300429184549	-0.3772321428571428	0.7188208616780045
3615.264892578125	0.3203990776201924	-9.993102980675195	-2.44807102732536	-0.3778755366593312	-0.7748062327454877	-1.078946139053214	0.2188841201716738	-0.3727678571428571	0.7097505668934241
3634.796142578125	0.2977483542081216	-9.790856271420871	-2.223815012648889	0.3314632349898689	1.083431636805819	-0.004205051668260811	0.2167381974248927	-0.3616071428571428	0.7052154195011338
3654.327392578125	0.4476508821534892	-9.408516912861941	-1.90794535820606	-0.05018190283435026	0.6707970852099504	-1.086848299556268	0.2317596566523605	-0.390625	0.7052154195011338
3673.858642578125	0.3055848060918092	-9.548510393515466	-1.987052037752342	-0.04264270050457435	-0.05354627708928829	-1.079454081886681	0.2339055793991416	-0.3794642857142857	0.6984126984126985
3693.389892578125	0.1525711483685517	-9.627788337746313	-1.991808714406193	0.009267544645829948	-3.657414329555719	-0.682664966243181	0.2296137339055794	-0.375	0.7006802721088435
3712.921142578125	0.7334759737274152	-9.593193345595862	-1.919025944170095	0.6930832792988414	-0.7305101755853173	0.02116676734183	0.2188841201716738	-0.3816964285714285	0.7074829931972789
3732.452392578125	0.5532095035489197	-9.88431997382337	-2.259725865096069	1.290749441784677	3.555836907834748	-1.088880070890136	0.2339055793991416	-0.3660714285714285	0.7142857142857143
3751.983642578125	0.1971372372451922	-9.648436018837099	-2.366784949009014	-0.07947454099542683	2.101635050778665	-1.461454762191005	0.2231759656652361	-0.3638392857142857	0.7210884353741497
3771.514892578125	0.2956655134282486	-9.518108170285799	-2.015530934661593	0.6968528804637294	-1.092681856734937	0.02486387617662396	0.2210300429184549	-0.3794642857142857	0.7142857142857143
3791.046142578125	0.2237435811751544	-9.537590971165288	-1.966194852209311	0.328557804983008	-0.02093216567280204	-0.3529317524594392	0.2188841201716738	-0.375	0.7210884353741497
3810.577392578125	0.2350709630953313	-9.557906265186508	-2.078524880961696	0.9914842749627457	2.145931107938835	-0.3613418557959608	0.2467811158798283	-0.3727678571428571	0.7097505668934241
3830.108642578125	0.3555913728803338	-9.710626620799513	-1.885667900278274	0.2963597368150704	0.3055419974172918	-1.076264915885354	0.2274678111587983	-0.375	0.7006802721088435
3849.639892578125	-0.0604087730896206	-9.615557528430722	-2.122387997160389	0.6893136781339535	-0.3683384944356979	0.01746965850703605	0.2231759656652361	-0.3772321428571428	0.7052154195011338
3869.171142578125	0.5217526254652477	-9.823399344436472	-2.175262546524774	1.725168995917328	-1.101932076664054	0.0455227006849871	0.2339055793991416	-0.3839285714285714	0.7142857142857143
3888.702392578125	0.6128242500232162	-9.389966626338618	-2.098751532933853	1.017007311958934	1.07726482351974	0.009567498003981286	0.2188841201716738	-0.3839285714285714	0.7052154195011338
3908.233642578125	0.4286809889072075	-9.953781759384023	-2.051772360108496	0.259527896324218	2.460723325285245	-1.458265596189678	0.2231759656652361	-0.3705357142857142	0.7074829931972789
3927.764892578125	0.4459377405615083	-9.751934124880366	-1.736631199007973	0.6353621741347153	0.6646302719238718	-1.073075749884026	0.2210300429184549	-0.3995535714285714	0.7210884353741497
3947.296142578125	-0.07020887311883343	-9.61545952743043	-2.162786157504412	1.017871483116962	-0.3892706601084999	-0.3354620939524031	0.2081545064377682	-0.3861607142857142	0.7165532879818595
3966.827392578125	0.3574580507470677	-9.791453368386261	-2.072335686951661	0.6713298434675408	-0.02401557231584131	-0.3460454776233181	0.2231759656652361	-0.3816964285714285	0.7233560090702948
3986.358642578125	0.0720733658559857	-9.667387400325227	-2.105295769272039	-0.3787397078173582	0.6917292508827525	-0.7339165470968294	0.2145922746781116	-0.3861607142857142	0.7097505668934241
4005.889892578125	0.4514003996000888	-9.428756428238426	-2.282897102866023	1.047164121278038	-1.820108625677215	0.03914436868233291	0.2467811158798283	-0.3705357142857142	0.7029478458049887
4025.421142578125	0.6223374796443377	-9.753698122271192	-2.029666331780716	-0.002905430006860929	-1.104363802478621	-0.3487267007911783	0.2145922746781116	-0.3705357142857142	0.7142857142857143
4044.952392578125	0.4602671606959347	-9.89349156049585	-2.149165049185306	0.2954955656570434	1.772077481045532	-0.7312353239289692	0.2339055793991416	-0.375	0.7074829931972789
4064.483642578125	0.181775487684466	-9.638181391240483	-1.851018156201702	1.010332280787186	0.3350727021907388	-0.342856311621991	0.2210300429184549	-0.375	0.7278911564625851
4084.014892578125	0.5743794099952809	-9.975440763796923	-2.335900183201553	-0.3134794003234562	-1.427754558925675	0.367720187798615	0.2253218884120172	-0.375	0.7210884353741497
4103.546142578125	0.879727933490256	-9.695665966203592	-2.258507634739892	-0.01798383466641273	0.3443229221198566	-0.3635151361303542	0.2081545064377682	-0.3928571428571428	0.7210884353741497
4123.077392578125	0.4598853402231937	-9.76217461097799	-2.110983001911205	1.634385651427237	2.086218017563469	-1.427023388010399	0.2424892703862661	-0.3816964285714285	0.7052154195011338
4142.608642578125	-0.214107283406842	-9.5635154928225	-2.058659414417835	0.3105739703165952	0.3233907564470545	-0.7164468885897933	0.2317596566523605	-0.3705357142857142	0.7074829931972789
4162.139892578125	0.5519246473549342	-9.763095004049308	-2.131240245697504	-0.3477187273402276	-3.672179681942442	-1.049369268374862	0.2296137339055794	-0.3772321428571428	0.7074829931972789
4181.671142578125	0.5489448314962411	-9.51053995336547	-1.833258659828191	-0.03973727049771342	1.050817525389332	-0.7307273810955023	0.2081545064377682	-0.3883928571428571	0.7120181405895691
4201.202392578125	0.06110760226713494	-9.57636865178025	-2.02912757365227	0.3172490014883441	1.065582877776056	-0.364023078963821	0.2510729613733906	-0.3816964285714285	0.7188208616780045
4220.733642578125	0.2969402685515268	-9.790848190564306	-2.143006446989414	-0.05222316168318416	-1.900102200896911	-1.780604592303831	0.2360515021459227	-0.3772321428571428	0.7006802721088435
4240.264892578125	0.4012402965368111	-9.852497251450218	-2.368927612864791	0.2963597368150704	0.3055419974172918	-1.076264915885354	0.2467811158798283	-0.375	0.7029478458049887
4259.796142578125	0.3990584652640053	-9.75146533212739	-2.150744485584209	-0.04931773167632323	-0.7957383984182897	-1.431877891512653	0.2231759656652361	-0.3683035714285714	0.7052154195011338
4279.327392578125	0.5394396827316853	-9.833677225110145	-1.903151946637922	0.3465416396494207	-0.3652550877926586	0.010583383670915	0.2424892703862661	-0.3883928571428571	0.7210884353741497
4298.858642578125	0.471845049169656	-9.994617440390689	-2.286545733292129	0.3076685403097343	-0.7809730460315663	-1.065173589380972	0.2188841201716738	-0.375	0.7120181405895691
4318.389892578125	0.3293001823564435	-9.841676840207406	-2.317773337685172	0.2679312698120209	0.2698444793577662	-1.795900970476474	0.2274678111587983	-0.3816964285714285	0.6938775510204082
4337.921142578125	0.2148444966530447	-9.860734303552391	-2.096694563263649	1.371088153938131	-0.0123336265721571	0.02754509934448419	0.2446351931330472	-0.3816964285714285	0.7165532879818595
4357.452392578125	0.5626681873882214	-9.65209132833853	-2.185186085760918	1.020776913123822	0.7150931423701209	0.01326460683877524	0.2381974248927039	-0.3571428571428571	0.7074829931972789
4376.983642578125	0.5796825133455439	-9.551251370588004	-1.845802354962553	0.9923484461207727	0.6793956243105954	-0.7063714477523452	0.2274678111587983	-0.3705357142857142	0.7074829931972789
4396.514892578125	0.193775600913758	-9.769614523685908	-2.030621315865599	0.3436362096425598	-1.469618890271279	-0.3381433171202634	0.2253218884120172	-0.359375	0.7120181405895691
4416.046142578125	0.49930998410975	-9.631255726103726	-1.971814737505618	1.027451944295571	1.457285263699122	0.3656884164647475	0.2253218884120172	-0.3794642857142857	0.7278911564625851
4435.577392578125	0.6111232297160841	-9.753585979771911	-1.928649502220658	0.2708366998188818	1.374208281836387	-1.447174269685296	0.2188841201716738	-0.3928571428571428	0.7097505668934241
4455.108642578125	0.1537610544978875	-9.759113368120737	-2.11079932733977	0.5880857013072259	2.439791159612443	-1.811197348649117	0.2317596566523605	-0.3839285714285714	0.6984126984126985
4474.639892578125	-0.1191891711234827	-9.816989926470585	-2.366797173366013	-0.7519814721537744	-1.911784146640595	-2.154195169271634	0.2188841201716738	-0.3950892857142857	0.7006802721088435
4494.171142578125	0.4417780784153268	-9.893306669673043	-2.34107314765513	0.3900485113120221	-1.77824429433161	0.7450078736012112	0.2296137339055794	-0.3727678571428571	0.6916099773242631
4513.702392578125	0.4837522325484396	-9.802817320305286	-2.456855907905186	0.2917259644921555	2.134249162195151	-0.7349324327637631	0.2381974248927039	-0.3794642857142857	0.7029478458049887
4533.233642578125	0.07378650744796657	-9.829020693357309	-2.276609928470126	-0.06149070632901411	1.757312128658808	-1.09793962606065	0.2253218884120172	-0.375	0.7165532879818595
4552.764892578125	-0.006715315492882438	-10.0302358771481	-2.389692940507674	0.3474058108074477	-1.831790571420899	-0.3344462082854694	0.2210300429184549	-0.3861607142857142	0.7188208616780045
4572.296142578125	0.183389638783514	-9.466480361034302	-2.012433266106503	0.3758342778104973	-1.796093053361373	0.3851898463056511	0.2188841201716738	-0.3727678571428571	0.7165532879818595
4591.827392578125	0.6451498201877275	-9.551906043656423	-2.270084059589083	0.2812813321555186	1.754228722015769	-1.09105335122453	0.2231759656652361	-0.3816964285714285	0.7188208616780045
4611.358642578125	0.3284274498473212	-9.902274173488374	-2.230500086772939	0.9346273409566466	2.074536071819784	-1.800613964978202	0.2231759656652361	-0.3839285714285714	0.7029478458049887
4630.889892578125	0.1949150016895566	-9.648413796481544	-2.144561393445458	1.017007311958934	1.07726482351974	0.009567498003981286	0.2424892703862661	-0.390625	0.7210884353741497
4650.421142578125	0.3006190785031744	-9.861592049370893	-2.510887442154173	0.2821455033135457	0.287693238387529	-1.436082943180914	0.2124463519313305	-0.3683035714285714	0.7233560090702948
4669.952392578125	0.2850250043161772	-9.800830048022961	-1.971888186719762	0.2954955656570434	1.772077481045532	-0.7312353239289692	0.240343347639485	-0.3794642857142857	0.6984126984126985
4689.483642578125	0.2776835048971539	-9.689645521917662	-2.258146408082736	0.01217297465269088	-2.553050527077098	-0.3339382654520026	0.2274678111587983	-0.3638392857142857	0.7210884353741497
4709.014892578125	0.391787673339934	-9.589776462591987	-2.444073456442388	0.3181131726463711	-0.4009526058521842	-0.7090526709202054	0.2188841201716738	-0.3705357142857142	0.7006802721088435
4728.546142578125	0.01446267181004447	-9.798124424697901	-2.466675344269753	-0.4402304141463723	2.449041379541561	-1.83185617315748	0.2317596566523605	-0.3660714285714285	0.7074829931972789
4748.077392578125	0.2985685611495653	-9.811066493692305	-2.305835706793256	-0.3456774684913937	-1.101280395835581	-0.3556129756272994	0.2081545064377682	-0.3973214285714285	0.7210884353741497
4767.608642578125	0.3869290583296581	-9.741243027957035	-1.958211955414796	0.329421976141035	-1.487467649301042	-0.6979613444158236	0.2253218884120172	-0.3705357142857142	0.7120181405895691
4787.139892578125	0.3160717789291275	-9.851645566274142	-2.015341158218873	-0.3845505678310801	-1.516998354074489	-1.431369948679186	0.2253218884120172	-0.3839285714285714	0.7097505668934241
4806.671142578125	0.3076333032312768	-9.932369262325244	-2.191901751699111	0.9952538761276337	1.783759426789216	-0.3576447469611668	0.2253218884120172	-0.3638392857142857	0.7188208616780045
4826.202392578125	0.285364400291947	-9.86143950258878	-2.005827784296741	0.6600210399728769	1.062499471133017	-0.3571368041277	0.2103004291845494	-0.3727678571428571	0.7097505668934241
4845.733642578125	0.4402406954536554	-10.02460442715656	-2.18733485148798	1.00279307845741	1.059416064489977	-0.350250529291579	0.2103004291845494	-0.3526785714285714	0.7097505668934241
4865.264892578125	0.4006705961489119	-9.913097615052401	-2.311957574074861	0.6675602423026528	0.3381561088337781	-0.3497425864581121	0.2274678111587983	-0.3705357142857142	0.7052154195011338
4884.796142578125	0.2300910940077061	-9.679068587707755	-2.600946135464486	-0.06439613633587504	0.6529483261801876	-1.446666326851829	0.2210300429184549	-0.3861607142857142	0.7052154195011338
4904.327392578125	0.1644056040382418	-9.819825874222204	-2.154846118109898	0.2954955656570434	1.772077481045532	-0.7312353239289692	0.2145922746781116	-0.3660714285714285	0.7188208616780045
4923.858642578125	0.5094030151894785	-9.782871807929673	-1.960709682213154	-0.3456774684913937	-1.101280395835581	-0.3556129756272994	0.2103004291845494	-0.3683035714285714	0.7029478458049887
4943.389892578125	0.5409912071923473	-9.894298800960813	-2.058304392704114	0.3474058108074477	-1.831790571420899	-0.3344462082854694	0.2339055793991416	-0.3772321428571428	0.7142857142857143
4962.921142578125	0.4310426192386056	-9.681078102960065	-2.287935393248311	0.645806806471352	1.044650712103254	-0.7169548314232602	0.2167381974248927	-0.3861607142857142	0.6984126984126985
4982.452392578125	-0.08006351892986641	-9.524451890063229	-2.19772973966642	1.34933471810683	0.6941609766973188	-0.3396671456206639	0.2231759656652361	-0.3727678571428571	0.7165532879818595
5001.983642578125	0.3592216976925857	-9.700561913946624	-2.248700381503464	1.017871483116962	-0.3892706601084999	-0.3354620939524031	0.2424892703862661	-0.375	0.7097505668934241
5021.514892578125	0.5630358663619721	-9.591488944522206	-2.221953983135979	0.3076685403097343	-0.7809730460315663	-1.065173589380972	0.2274678111587983	-0.3772321428571428	0.7165532879818595
5041.046142578125	0.0736572137429114	-9.445181016581875	-2.26368055796461	0.2925901356501825	0.6677136785669111	-1.079962024720148	0.2274678111587983	-0.3816964285714285	0.7006802721088435
5060.577392578125	0.4019433310580486	-10.01412044341159	-2.439231064988534	0.3331915773059229	-1.849639330450662	-0.6942642355810297	0.2081545064377682	-0.3705357142857142	0.7097505668934241
5080.108642578125	0.5305426184237171	-9.823487244366058	-2.033853679106408	0	0	0	0.2317596566523605	-0.3727678571428571	0.7029478458049887
5099.639892578125	0.3157162212402258	-9.427399586454829	-1.979785389328704	1.314231219932032	-0.08372866269120816	-1.411727009837757	0.2296137339055794	-0.3839285714285714	0.7188208616780045
5119.171142578125	0.03244468034113916	-9.626587073066037	-2.224059870848609	1.341795515777054	1.418504338996557	-0.3470613632902518	0.2317596566523605	-0.3772321428571428	0.7052154195011338
5138.702392578125	0.2672712799830705	-9.67944038956751	-2.237332079939708	1.414595025600732	-1.425322833111109	0.7619695892747804	0.2253218884120172	-0.375	0.7233560090702948
5158.233642578125	0.5634055655498641	-9.702603752625198	-2.258923901925189	0.3360970073127839	-0.7452755279720408	-0.3455375347898513	0.2188841201716738	-0.3549107142857142	0.7120181405895691
5177.764892578125	0.5518923239286704	-9.540872458592824	-2.128007903071125	0.6202837694751635	2.113316996522349	-1.087864185223202	0.2274678111587983	-0.3816964285714285	0.7097505668934241
5197.296142578125	0.2472044104579614	-9.406512448144985	-2.271461453959406	0.6591568688148498	2.529034954761257	-0.01210721217131558	0.2253218884120172	-0.3705357142857142	0.6916099773242631
5216.827392578125	0.2166566287379584	-9.85065141477223	-2.277907771755021	0.3314632349898689	1.083431636805819	-0.004205051668260811	0.2274678111587983	-0.3705357142857142	0.7165532879818595
5236.358642578125	0.4603520096898772	-9.529856045349426	-2.157649948579552	1.014101881952074	-0.02709897895888059	-0.3391592027871971	0.2145922746781116	-0.3638392857142857	0.6984126984126985
5255.889892578125	0.3885836137115359	-9.973582805834086	-2.123667493602571	1.00279307845741	1.059416064489977	-0.350250529291579	0.2339055793991416	-0.3660714285714285	0.6984126984126985
5275.421142578125	0.05161861521571109	-9.758091943727916	-2.10063703177519	0.9981593061344947	2.888123229267837	-0.008918046169988481	0.2253218884120172	-0.3794642857142857	0.7029478458049887
5294.952392578125	0.2528974151375314	-9.800508772131176	-1.820353758651103	0.6750994446324288	-0.3861872534654606	-0.3423483687885241	0.2424892703862661	-0.3861607142857142	0.7097505668934241
5314.483642578125	0.3287648256089496	-9.79116643613488	-2.26423766293577	0.3360970073127839	-0.7452755279720408	-0.3455375347898513	0.2360515021459227	-0.3794642857142857	0.7006802721088435
5334.014892578125	0.3180010834342475	-9.700149707804043	-2.208271608730869	-0.02756429584502254	-1.502233001687766	-1.064665646547505	0.2360515021459227	-0.3794642857142857	0.7074829931972789
5353.546142578125	0.3179020929413146	-9.871865889616284	-2.198372559437583	0.3305990638318419	2.549967120434059	0.3408245402881236	0.2124463519313305	-0.375	0.7029478458049887
5373.077392578125	0.5613752503376699	-9.854098600988227	-2.055892380705759	0.6533460088011279	0.3203073498040153	-0.7095606137536723	0.2188841201716738	-0.3660714285714285	0.7301587301587302
5392.608642578125	0.2350447003114919	-9.850835295487965	-2.075898602577763	0.656251438807989	1.424671152282636	-0.360833912962494	0.2188841201716738	-0.3660714285714285	0.7052154195011338
5412.139892578125	0.3771673423691336	-9.468418138070158	-2.002448522627644	-1.369359811622077	-2.920737340684323	-0.717604283257253	0.240343347639485	-0.3616071428571428	0.7120181405895691
5431.671142578125	0.1867957198260609	-9.587726543056847	-2.353041370361189	-1.48770745195719	-1.234820248144566	-3.254816018500144	0.2339055793991416	-0.3772321428571428	0.7142857142857143
5451.202392578125	0.2439478252618846	-9.366075841888984	-1.945802934351723	1.039624918948262	-1.095765263377976	0.031750151012745	0.2210300429184549	-0.3660714285714285	0.6893424036281179
5470.733642578125	0.5451185046834049	-9.702420882016533	-2.471034141809881	0.6817744758041775	0.3560048678635408	0.01007544083744814	0.2360515021459227	-0.3727678571428571	0.7029478458049887
5490.264892578125	0.4280708842364784	-9.610341314902973	-1.990761893035593	0.6353621741347153	0.6646302719238718	-1.073075749884026	0.2231759656652361	-0.3928571428571428	0.7165532879818595
5509.796142578125	0.3585772493814514	-9.468232237140281	-2.184255550390033	0.9697308391314451	2.852425711208312	-0.7285541007611089	0.2167381974248927	-0.3794642857142857	0.7233560090702948
5529.327392578125	0.316920268868552	-9.750643950163436	-2.100190152161321	0.328557804983008	-0.02093216567280204	-0.3529317524594392	0.2274678111587983	-0.3683035714285714	0.7188208616780045
5548.858642578125	0.2677541111628859	-9.810758349192438	-2.285615197921243	0.6533460088011279	0.3203073498040153	-0.7095606137536723	0.2188841201716738	-0.3816964285714285	0.6984126984126985
5568.389892578125	0.2541438872628288	-9.689410125741317	-1.945000971180843	-2.107991221432354	-3.348137244666915	-2.166951833276942	0.2253218884120172	-0.3928571428571428	0.7074829931972789
5587.921142578125	0.03230124513709359	-9.555878568006927	-2.209716350444052	1.017007311958934	1.07726482351974	0.009567498003981286	0.2231759656652361	-0.3660714285714285	0.6916099773242631
5607.452392578125	0.2397517992611563	-9.951892467487562	-2.546608497544204	0.03306223932596454	-1.793009646718334	0.37830357146953	0.2145922746781116	-0.3861607142857142	0.6984126984126985
5626.983642578125	0.2464710727246017	-9.699434407696945	-2.198127680623433	1.042530348955123	0.008598539100644939	0.3804768518039234	0.2424892703862661	-0.3727678571428571	0.7097505668934241
5646.514892578125	0.2149535882166849	-9.537503071235705	-2.107603719627678	-0.04554813051143528	-1.157910079567909	-1.428180782677859	0.2124463519313305	-0.3772321428571428	0.6984126984126985
5666.046142578125	0.2347638905458252	-9.719519356077177	-2.047817626011096	1.656139087258538	1.379723414293993	-1.059811143045251	0.2210300429184549	-0.3995535714285714	0.7052154195011338
5685.577392578125	-0.06287949498465903	-9.706441912120862	-1.875315807656545	0.6817744758041775	0.3560048678635408	0.01007544083744814	0.2360515021459227	-0.3683035714285714	0.7006802721088435
5705.108642578125	0.4490044256282854	-9.812570852337092	-2.04329970568568	0.01130880349466385	-1.086515043448858	0.01109132650438186	0.2317596566523605	-0.3705357142857142	0.6984126984126985
5724.639892578125	0.442675053494147	-9.87311361922181	-2.430770655537147	-1.38734364628849	-2.576414418564466	-1.081119419387607	0.2253218884120172	-0.3683035714285714	0.6984126984126985
5744.171142578125	0.3361204665269633	-9.589219790523856	-1.979393591471836	0.6637906411377649	0.7003277899833973	-0.353439695292906	0.2317596566523605	-0.390625	0.7233560090702948
5763.702392578125	0.4177677508860353	-9.78195545528664	-1.980856721256593	1.656139087258538	1.379723414293993	-1.059811143045251	0.2381974248927039	-0.3816964285714285	0.7029478458049887
5783.233642578125	-0.03117413056158403	-9.171405430411557	-1.984627760168128	0.07193533866565094	-1.377291688479426	1.454060544521417	0.2424892703862661	-0.3883928571428571	0.7210884353741497
5802.764892578125	0.3377123952704549	-9.548831669407251	-2.138586465821001	-0.03973727049771342	1.050817525389332	-0.7307273810955023	0.2231759656652361	-0.3861607142857142	0.7188208616780045
5822.296142578125	0.02919617600162827	-9.767968729436785	-1.899209436897521	2.326604759568051	2.822243325606391	-1.060827028712185	0.2060085836909871	-0.3705357142857142	0.7120181405895691
5841.827392578125	0.4696389753271523	-9.853181238238122	-2.065938349041762	0.6835028181202316	-2.577066099392939	-0.6799837430753207	0.2231759656652361	-0.3772321428571428	0.7074829931972789
5861.358642578125	0.5429790979075704	-9.672096457645743	-2.257093464226422	0.01507840465955181	-1.448686724598477	0.01478843533917581	0.2381974248927039	-0.3705357142857142	0.7029478458049887
5880.889892578125	0.4497115005778058	-9.812577923086588	-2.114007200637721	-2.858795605895321	-1.222486621572409	-3.282361117844629	0.2296137339055794	-0.3727678571428571	0.7074829931972789
5900.421142578125	0.1942927757339787	-9.78982171563613	-2.082338797887663	0.9810396426261089	1.765910667759453	-0.7174627742567271	0.2339055793991416	-0.3616071428571428	0.7029478458049887
5919.952392578125	0.256725720935649	-9.447011701653803	-2.203184338462865	1.359779350443467	1.074181416876701	0.01645377284010233	0.2253218884120172	-0.375	0.7029478458049887
5939.483642578125	0.165227831193827	-9.506702783362446	-2.237068833668414	0.6930832792988414	-0.7305101755853173	0.02116676734183	0.2274678111587983	-0.3705357142857142	0.7029478458049887
5959.014892578125	0.58058756928093	-9.712876582763519	-1.936307948501165	-0.0388730993396864	-0.4157179582389076	-1.075756973051887	0.2424892703862661	-0.3683035714285714	0.7256235827664399
5978.546142578125	0.438450785724298	-9.398323901796639	-2.008343878552243	0.6884495069759263	1.098196989192542	0.3624992504634205	0.2188841201716738	-0.375	0.7074829931972789
5998.077392578125	0.2662833952678835	-10.05316788445773	-2.138543608421	1.006562679622298	0.6972443833403581	-0.346553420456785	0.2467811158798283	-0.3549107142857142	0.7029478458049887
6017.608642578125	0.3571368366985712	-9.761147125942744	-2.040214282102019	-0.3607558731509455	0.3474063287628959	-0.3704014109664752	0.2296137339055794	-0.3660714285714285	0.7142857142857143
6037.139892578125	0.2048423752096831	-9.860634282337957	-2.116890582192803	1.020776913123822	0.7150931423701209	0.01326460683877524	0.2360515021459227	-0.3683035714285714	0.7029478458049887
6056.671142578125	0.05358832400366078	-9.505586388290544	-2.29760791057016	0.6675602423026528	0.3381561088337781	-0.3497425864581121	0.2274678111587983	-0.3660714285714285	0.7052154195011338
6076.202392578125	0.4729844499454546	-9.873416713186325	-2.400485810871988	2.749715510206038	-0.7490106154435529	0.0624844163585563	0.2103004291845494	-0.3616071428571428	0.7120181405895691
6095.733642578125	0.4320163624548023	-9.620481779786166	-2.385309714867978	0.3607558731509455	-0.3474063287628959	0.3704014109664752	0.2231759656652361	-0.3861607142857142	0.7142857142857143
6115.264892578125	0.6022463675495309	-9.945416403069437	-2.061371448830631	-0.04727647282748933	1.775160887688571	-0.7381215987650902	0.2081545064377682	-0.3794642857142857	0.7142857142857143
6134.796142578125	0.1551772246110698	-9.930844701539042	-2.252416338657999	0.6374034329835492	3.235529558030733	-0.3793194571364637	0.2231759656652361	-0.3839285714285714	0.7120181405895691
6154.327392578125	0.02182639358462414	-9.777996041713624	-2.182639358462414	-0.02465886583816162	-0.3978691992091449	-0.7159389457563266	0.2317596566523605	-0.390625	0.7233560090702948
6173.858642578125	0.07309357399743657	-9.515882450891491	-2.207316583417126	-0.3494470696562816	-0.7391087146859622	-0.3593100844620934	0.2210300429184549	-0.3772321428571428	0.7278911564625851
6193.389892578125	0.3166980453129885	-9.548621525907677	-2.077967796604966	-2.154403523101816	-3.039511840606584	-3.250103023998417	0.2360515021459227	-0.3861607142857142	0.7278911564625851
6212.921142578125	0.4874230028723812	-9.52002574518024	-1.803524777034047	0.3532166708211696	0.3769370335363428	0.3630071932968873	0.2381974248927039	-0.3727678571428571	0.7142857142857143
6232.452392578125	0.5207142353965235	-9.4395505766974	-2.071423539652349	1.692106756591363	0.6910775700542795	-0.3327808707845429	0.2231759656652361	-0.3839285714285714	0.7006802721088435
6251.983642578125	0.1632096372664816	-9.678399773140343	-2.035249440933875	0.6118803959873605	4.304195842449827	-0.7502288109364058	0.2317596566523605	-0.375	0.6870748299319728
6271.514892578125	0.1949574261865278	-9.719121291433584	-2.148803843142581	0.32478820381812	0.3412395154768173	-0.3566288612942332	0.2167381974248927	-0.3839285714285714	0.7188208616780045
6291.046142578125	0.2569944094164668	-9.558125499649721	-2.23005318654464	0.3787397078173582	-0.6917292508827525	0.7339165470968294	0.2424892703862661	-0.3727678571428571	0.7120181405895691
6310.577392578125	0.3995958422256408	-9.973692928119229	-2.20448218174776	1.014101881952074	-0.02709897895888059	-0.3391592027871971	0.2231759656652361	-0.3928571428571428	0.7006802721088435
6330.108642578125	0.3997978636397895	-9.468644443282866	-2.224684323162629	0.3218827738112591	-0.7631242870018035	-0.7053555620854115	0.2339055793991416	-0.390625	0.7165532879818595
6349.639892578125	0.5409103986266879	-9.591267689844853	-2.050223536138166	0.2545812074685231	-1.214539763300237	-2.500748589728419	0.2274678111587983	-0.375	0.7120181405895691
6369.171142578125	0.5179546228792524	-9.72235126340051	-1.795462287925243	0.2870921921692405	3.962956326973011	-0.3935999496421727	0.2188841201716738	-0.375	0.7052154195011338
6388.702392578125	0.3345204569269057	-9.952840154064219	-1.819392631466076	1.416636284449566	1.145576452995752	1.455725882022343	0.2381974248927039	-0.375	0.7006802721088435
6408.233642578125	0.1049524746952646	-9.910140433837864	-2.331982163404009	0.3532166708211696	0.3769370335363428	0.3630071932968873	0.2103004291845494	-0.3727678571428571	0.7120181405895691
6427.764892578125	0.3910482749641498	-9.872597351436511	-2.370133618863969	-0.01711966350838571	-1.122212561508384	-0.7085447280867386	0.2467811158798283	-0.390625	0.7006802721088435
6447.296142578125	0.6435013254482742	-9.834717841537312	-2.105234585643754	-0.4063040036623808	-0.8105037508050132	-1.798582193644334	0.2231759656652361	-0.3727678571428571	0.7074829931972789
6466.827392578125	0.387941185614543	-9.912970320947057	-2.059424683903288	0.3114381414746222	-1.143144727181185	-1.061476480546178	0.2296137339055794	-0.375	0.7097505668934241
6486.358642578125	0.7939533516401264	-9.69480822038509	-1.844314755849368	0.6571156099660159	-0.04186433134560408	-0.7058635049188784	0.2231759656652361	-0.3794642857142857	0.7006802721088435
6505.889892578125	0.4274890625637302	-9.650739537090285	-1.932579725760771	0.6420372053064641	1.406822393252873	-0.7206519402580541	0.2210300429184549	-0.3727678571428571	0.6984126984126985
6525.421142578125	0.2771138045092546	-9.750245885519842	-2.201176369292807	0.6997583104705902	0.01168194574368421	0.3735905769678023	0.2296137339055794	-0.3816964285714285	0.7210884353741497
6544.952392578125	0.6825320275772407	-9.55227986573032	-1.926672145479173	1.400380792099208	-1.443171592140872	0.4021515619792203	0.2360515021459227	-0.390625	0.7233560090702948
6564.483642578125	0.4378265395545785	-9.873065134082415	-1.945919261580299	1.006562679622298	0.6972443833403581	-0.346553420456785	0.2188841201716738	-0.3772321428571428	0.7165532879818595
6584.014892578125	0.04099426781677161	-9.899399841668069	-2.058610455146549	0.3143435714814832	-0.03878092470256481	-0.7127497797549994	0.2446351931330472	-0.390625	0.7188208616780045
6603.546142578125	0.2919543800503372	-9.730192271073234	-1.644417596870455	0.2792400733066847	-0.8166705640910918	-1.784809643972092	0.2167381974248927	-0.3950892857142857	0.7142857142857143
6623.077392578125	0.4908109019876548	-9.610968715080483	-2.142314688561395	0.3398666084776718	-1.10744720912166	-0.3418404259550573	0.2424892703862661	-0.3950892857142857	0.7120181405895691
6642.608642578125	0.7125101089093445	-9.673791767755761	-1.863255788893629	0.2386386316509443	1.700682444926481	-2.17050743311121	0.2231759656652361	-0.3928571428571428	0.7097505668934241
6662.139892578125	0.1743834829119055	-9.779521612606898	-2.13222584221096	-0.1250226715068621	0.9437249712107558	-2.889635544868864	0.2381974248927039	-0.375	0.7233560090702948
6681.671142578125	0.1640500463493402	-9.900630399453394	-2.119290349219729	1.359779350443467	1.074181416876701	0.01645377284010233	0.2081545064377682	-0.3727678571428571	0.7097505668934241
6701.202392578125	0.461600502029316	-9.59047459087888	-2.28249918252344	0.32478820381812	0.3412395154768173	-0.3566288612942332	0.2274678111587983	-0.3683035714285714	0.6984126984126985
6720.733642578125	0.2974756252990208	-9.841358594636832	-2.196542121738816	0.3068043691517073	0.6855624375966739	-0.7201439974245873	0.2253218884120172	-0.3883928571428571	0.7074829931972789
6740.264892578125	0.2031797389712394	-9.446476241834159	-1.950626958348433	-0.3778755366593312	-0.7748062327454877	-1.078946139053214	0.2253218884120172	-0.3883928571428571	0.7188208616780045
6759.796142578125	0.3389487663250448	-9.589248073521837	-2.262223571279998	1.027451944295571	1.457285263699122	0.3656884164647475	0.2231759656652361	-0.3794642857142857	0.7074829931972789
6779.327392578125	0.2832310541585368	-9.841216148925426	-1.792493170955728	0.3398666084776718	-1.10744720912166	-0.3418404259550573	0.2274678111587983	-0.3928571428571428	0.7006802721088435
6798.858642578125	0.4390952340354323	-9.630653578602981	-2.072788709665674	0.6429013764644912	-0.05971309037536685	-1.065681532214439	0.2231759656652361	-0.3839285714285714	0.7120181405895691
6818.389892578125	0.4379235098333699	-9.52963176035086	-1.955616289459436	0.9668254091245841	1.748061908729691	-1.077280801552287	0.2145922746781116	-0.359375	0.7074829931972789
6837.921142578125	0.3993069516034082	-9.660558726081693	-2.175593119524498	1.67412292192495	1.035400492174136	-0.6962960069148971	0.2489270386266094	-0.3772321428571428	0.6984126984126985
6857.452392578125	0.6024544496061038	-9.955519493991014	-2.082179654487946	-0.2670670986539939	-1.736379962986007	1.45087137852009	0.2381974248927039	-0.390625	0.7029478458049887
6876.983642578125	0.3050595504150225	-9.346484938938495	-1.934526470073684	-0.392089770160856	-0.7926549917752505	-1.438764166348774	0.2339055793991416	-0.3727678571428571	0.7188208616780045
6896.514892578125	0.1128636745021872	-9.455674091290479	-2.102693980830964	-0.06062653517098708	0.2907766450305683	-1.442969218017035	0.2210300429184549	-0.3928571428571428	0.7052154195011338
6916.046142578125	0.1450316679636627	-9.860036175265497	-2.258268837182597	0.6637906411377649	0.7003277899833973	-0.353439695292906	0.2274678111587983	-0.3772321428571428	0.6961451247165533
6935.577392578125	0.4686389693271163	-9.70165608666297	-1.965937749038162	0.7157008862881691	-2.903540262483033	0.04334942035059372	0.240343347639485	-0.3727678571428571	0.7210884353741497
6955.108642578125	0.6040342570647467	-9.894929231459537	-2.240160400352219	1.302922416437368	1.00278638075765	-1.422818336342139	0.2231759656652361	-0.3772321428571428	0.7233560090702948
6974.639892578125	0.2448589418396952	-9.537802124771934	-2.036914592132781	0.656251438807989	1.424671152282636	-0.360833912962494	0.2296137339055794	-0.3705357142857142	0.7142857142857143
6994.171142578125	0.1853492465007563	-9.870540361151876	-2.208394037830729	0.7139725439721151	0.02953070477344698	0.7334086042633625	0.2424892703862661	-0.3839285714285714	0.6961451247165533
7013.702392578125	0.6950816390530172	-9.926142735582451	-2.161225129791513	-0.7528456433118014	-0.4452486630123546	-1.809165577315249	0.2339055793991416	-0.3705357142857142	0.7052154195011338
7033.233642578125	0.2976917882121599	-9.528229443134649	-2.218158413052726	0.6127445671453876	2.837660358821588	-1.09525840289279	0.2274678111587983	-0.3883928571428571	0.6984126984126985
7052.764892578125	0.07307135164188021	-9.647195359981067	-2.205094347861491	-0.02465886583816162	-0.3978691992091449	-0.7159389457563266	0.2360515021459227	-0.359375	0.7097505668934241
7072.296142578125	0.2349840938872473	-9.749824588413622	-2.069837960153302	0.0130371458107179	-4.019586010705338	-0.6789678574083869	0.1995708154506438	-0.375	0.6984126984126985
7091.827392578125	0.3274941109139543	-9.861860799695	-2.137166193436246	0.3323274061478959	-0.3831038468224214	-0.3492346436246452	0.2231759656652361	-0.3571428571428571	0.7097505668934241
7111.358642578125	0.4275678509152482	-9.782053456286931	-1.94045856091257	0.6675602423026528	0.3381561088337781	-0.3497425864581121	0.2274678111587983	-0.3883928571428571	0.6961451247165533
7130.889892578125	0.2140303503540255	-9.850625151988391	-2.015279933361728	0.6742352734744016	1.080348230162779	0.002681223167860238	0.2210300429184549	-0.3683035714285714	0.6984126984126985
7150.421142578125	0.09492409046806374	-9.697918937874379	-2.349551903949231	0.326516546134174	-2.591831451779663	-1.046688045207002	0.2210300429184549	-0.3660714285714285	0.7052154195011338
7169.952392578125	0.3380012858926875	-9.356915366394283	-2.167475528044263	1.028316115453598	-0.009250219929117825	0.02065882450836315	0.2253218884120172	-0.3571428571428571	0.7052154195011338
7189.483642578125	0.484384559574725	-10.01494485569676	-2.520088610533725	-0.03219806816793752	0.3264741630900938	-0.7233331634259144	0.2296137339055794	-0.3839285714285714	0.7142857142857143
7209.014892578125	0.1731511522855985	-9.577489087280433	-2.00899277958026	0.2925901356501825	0.6677136785669111	-1.079962024720148	0.2210300429184549	-0.3861607142857142	0.7006802721088435
7228.546142578125	0.03155578611888493	-9.828598386144018	-2.135170448623187	1.028316115453598	-0.009250219929117825	0.02065882450836315	0.2167381974248927	-0.375	0.7029478458049887
7248.077392578125	0.5595772597517464	-9.551050318052065	-1.876093322113427	0.7072975128003661	-0.7126614165555545	0.3809847946373902	0.2296137339055794	-0.3928571428571428	0.7120181405895691
7267.608642578125	0.57083191396283	-9.450152763584075	-1.981150579956459	0.645806806471352	1.044650712103254	-0.7169548314232602	0.2317596566523605	-0.3861607142857142	0.7029478458049887
7287.139892578125	0.3477468401400802	-9.771154236078171	-2.121622789518226	0.2473549216715271	5.013773852362343	-1.124327330737675	0.2424892703862661	-0.3683035714285714	0.7074829931972789
7306.671142578125	0.1190657731454119	-9.688059344600143	-1.70249568188813	0.6307284018118002	2.493337436701732	-0.7317432667624361	0.2188841201716738	-0.3883928571428571	0.6984126984126985
7326.202392578125	-0.06336434637861589	-9.403406760576619	-1.82683066826086	-0.3880072524631882	4.349143580438471	-0.05125158085364849	0.2467811158798283	-0.3839285714285714	0.7074829931972789
7345.733642578125	0.07097638957715834	-9.354245117431127	-1.995598141389302	1.04370743664593	4.046033308835746	1.41926273650787	0.2317596566523605	-0.3816964285714285	0.6870748299319728
7365.264892578125	-0.5445772522089266	-8.72182695475064	-1.66472375869918	3.560595175214745	3.805067853422954	4.349707987559993	0.2381974248927039	-0.3772321428571428	0.6961451247165533
7384.796142578125	1.011397946350985	-9.909103878453411	-2.160202798363771	0.8659336782584399	-10.41990177147623	1.920078842359068	0.2253218884120172	-0.3794642857142857	0.6938775510204082
7404.327392578125	0.9090858503097833	-9.95858580799805	-1.112666663631398	12.65562696114825	9.391621459246464	1.957757475709637	0.2210300429184549	-0.4017857142857142	0.6938775510204082
7423.858642578125	-0.3223406270967414	-9.340210937163377	-0.4189985148156611	16.22020674619255	20.84010522878227	-0.2437091475797992	0.2231759656652361	-0.3861607142857142	0.6643990929705216
7443.389892578125	-1.002199952593655	-9.969775980272045	0.2199952593654957	20.81603140612511	12.90363899325019	1.366420928837482	0.240343347639485	-0.3928571428571428	0.6848072562358277
7462.921142578125	0.1517934483817993	-10.34495227791816	0.1267776107996579	23.71276136176177	-1.970067187028518	1.573092589753003	0.2081545064377682	-0.3973214285714285	0.6643990929705216
7482.452392578125	0.5817270525144487	-10.2583425230504	-0.009439945322417639	28.45620297076272	7.456775106948323	2.652829689640735	0.2339055793991416	-0.4330357142857142	0.6439909297052154
7501.983642578125	0.06668751618364173	-9.778444652939614	-0.5463026387723364	31.86421117862558	10.70333492989427	3.04823648578436	0.2210300429184549	-0.4285714285714285	0.6213151927437642
7521.514892578125	-0.729059868071845	-10.06341647202635	-0.5634009479175407	31.66209147093271	1.343500903736492	4.216929122539563	0.2532188841201717	-0.4441964285714285	0.6009070294784581
7541.046142578125	0.1219688620955886	-9.809300496701765	-0.9723964136404897	31.78067744936029	-12.81689217915819	3.641480312505406	0.2253218884120172	-0.4620535714285714	0.6031746031746031
7560.577392578125	0.4898553819275915	-10.03520158412231	-1.026354519289763	32.82352071484819	-7.304323386694202	5.405772640969662	0.2575107296137339	-0.4910714285714285	0.5668934240362812
7580.108642578125	0.7003322580644615	-9.916094231671556	-0.6454707044053438	35.4819016259389	2.105321829081349	5.724556037249547	0.2532188841201717	-0.5290178571428571	0.5510204081632654
7599.639892578125	0.5837755496539163	-9.632100381759168	-0.2142896592691862	38.81334072281318	8.557880505284579	5.007234771993346	0.2639484978540773	-0.546875	0.5306122448979592
7619.171142578125	0.02752150093605571	-10.00027521500936	0.3090743961903475	42.22975230416385	9.613561482303044	5.065006193850175	0.2510729613733906	-0.5959821428571428	0.5374149659863946
7638.702392578125	0.1787432287158142	-10.13310056360029	0.4930240671940838	47.71528200760718	13.60166174574952	6.213972475932059	0.2639484978540773	-0.59375	0.5056689342403629
7658.233642578125	-0.3335023102284563	-10.09767507790782	0.6971697983558344	51.20276475646546	14.74658651791679	8.070834034266689	0.259656652360515	-0.6428571428571428	0.4920634920634921
7677.764892578125	-0.1680461123789212	-10.3821579227146	0.4780806256472256	55.10958865479685	12.68242903018375	11.04730992883727	0.278969957081545	-0.6473214285714285	0.4965986394557823
7697.296142578125	0.045717652166148	-10.35399253005702	0.5302755997117309	59.61494288677211	13.43808314224253	12.56870939321949	0.2618025751072962	-0.6808035714285714	0.4784580498866213
7716.827392578125	0.1587490868997987	-9.981385470666979	0.4516219222650321	59.54010211809959	13.71101102824334	10.7659221479069	0.2725321888412017	-0.6830357142857143	0.5034013605442177
7736.358642578125	0.2924797181848439	-10.09383388809094	0.3438649162094933	60.12268987592588	19.44604483626188	9.641086874335755	0.259656652360515	-0.7254464285714285	0.4829931972789116
7755.889892578125	-0.260277339854103	-10.22972045892469	0.5175299037776502	59.84109562723758	12.18784586088277	9.348324748899953	0.2746781115879828	-0.7366071428571428	0.4875283446712018
7775.421142578125	-0.3445711047385229	-10.33998863238696	0.7836410860971867	58.93835343791609	4.282865372609548	10.48845640064374	0.2703862660944206	-0.7700892857142857	0.5102040816326531
7794.952392578125	-0.3161425276529396	-10.06754564543054	1.002007867334774	59.32840194922811	2.504621078277938	11.23346427424495	0.2875536480686695	-0.7767857142857142	0.4897959183673469
7814.483642578125	-0.2870977852542028	-10.14864417366261	1.158758117257011	61.09157987332709	3.284942443481031	12.69977353993821	0.2875536480686695	-0.7946428571428571	0.5056689342403629
7834.014892578125	-0.6639844003153897	-10.2458854085221	1.092317582559381	60.78477550417539	2.599380005884357	13.41991753736279	0.259656652360515	-0.8013392857142857	0.5102040816326531
7853.546142578125	-0.4842088421732756	-10.14667306309342	1.482108707123486	60.10881188838493	4.452102742978058	14.1072954981077	0.2768240343347639	-0.8325892857142857	0.5351473922902494
7873.077392578125	-0.7089969565172988	-10.15452619205099	1.511940549689062	60.86338587401279	1.964280438733932	15.22640189151018	0.2811158798283262	-0.8348214285714285	0.5374149659863946
7892.608642578125	-0.5486741228012818	-9.964210228468959	1.806187790332267	59.8617698832462	4.942299143979056	16.61543830550571	0.2725321888412017	-0.8638392857142857	0.5555555555555556
7912.139892578125	-0.9183909566454719	-10.22313932275678	2.043177297200251	58.1505022042976	0.5581097263095317	15.54591815545595	0.2510729613733906	-0.8660714285714285	0.5736961451247166
7931.671142578125	-0.6640288037976423	-10.33679405539637	2.117166094049956	57.90314728262608	-4.45566412605281	16.67024548619363	0.259656652360515	-0.8883928571428571	0.5873015873015873
7951.202392578125	-0.8486286333096271	-9.971311693464886	2.209802106472916	58.90476327339269	-7.433682831297936	15.2812090721981	0.2725321888412017	-0.8772321428571428	0.6122448979591837
7970.733642578125	-0.8726126980550792	-9.567031448777028	2.56739225448752	59.02397508488582	-10.58613540746593	17.47339121548461	0.2467811158798283	-0.8839285714285714	0.6417233560090703
7990.264892578125	-1.219412140220522	-9.967603858395774	2.553458920011406	58.11659912324142	-16.66240873096129	18.95485535034998	0.2618025751072962	-0.8816964285714285	0.6439909297052154
8009.796142578125	-1.162965089520077	-9.917663278397731	3.031202829558763	56.8673152942705	-24.20213413144186	20.08440361842285	0.259656652360515	-0.8794642857142857	0.655328798185941
8029.327392578125	-0.5543306811685851	-9.792436491168115	3.392251790327894	58.63976076301532	-27.07922709579448	20.86804791787293	0.2424892703862661	-0.8973214285714285	0.671201814058957
8048.858642578125	-0.5003442925213313	-9.853582415660648	3.095653741929049	59.27253042367596	-22.01499037298589	20.83006094385805	0.2639484978540773	-0.8950892857142857	0.671201814058957
8068.389892578125	-0.6253010925610389	-9.377585372912774	3.346435786716143	58.76562427625241	-9.009423963016076	19.97044269637823	0.2553648068669528	-0.8928571428571428	0.7074829931972789
8087.921142578125	-1.426755581766226	-9.409974868424763	3.90004797254098	56.0469297465235	-12.62432228039772	19.59250555874164	0.2446351931330472	-0.9040178571428571	0.7256235827664399
8107.452392578125	-0.5733692204668174	-9.883155196684221	4.275697556885817	59.23075189432942	-23.53507213370342	19.40557727001499	0.2360515021459227	-0.8816964285714285	0.7551020408163266
8126.983642578125	-0.6206363768794857	-9.236217878655449	3.900372381826128	62.9380252690142	-18.87860651086156	19.07344585106444	0.2360515021459227	-0.8839285714285714	0.761904761904762
8146.514892578125	-1.074556065971729	-9.251880701966547	4.394382107376957	63.92487577165403	-14.90396823814486	19.05343647839007	0.2446351931330472	-0.875	0.7687074829931972
8166.046142578125	-1.064210508124314	-9.150974056534919	4.380234485900835	64.93143845127634	-14.20672385480451	18.70688305793329	0.240343347639485	-0.8727678571428571	0.8072562358276644
8185.577392578125	-0.6085675351405231	-8.973712304446575	4.734304534460479	67.67738436031748	-14.59356278909844	18.76567036545705	0.2446351931330472	-0.8973214285714285	0.8208616780045351
8205.108642578125	-1.158902356423827	-8.937905925930714	4.66574584646436	67.63882417751057	-9.505310493974006	19.07372886906549	0.2317596566523605	-0.875	0.8367346938775511
8224.639892578125	-0.8955502094175212	-8.879933386794717	4.861143390731712	68.23444908114757	-7.789862696660802	17.26992573808596	0.2253218884120172	-0.8683035714285714	0.8752834467120182
8244.171142578125	-0.9784924510412863	-8.717487802762317	4.992102246985778	67.38736340871357	0.8191806690673279	15.36833243990086	0.2231759656652361	-0.8415178571428571	0.8979591836734694
8263.702392578125	-1.382613655401578	-8.38011325738538	5.608304315667989	64.57992679334342	2.96333173202007	14.21160550631645	0.2231759656652361	-0.8236607142857142	0.9070294784580499
8283.233642578125	-1.424846396944801	-8.713024263303282	5.749945816929077	66.71862607872011	-3.556410209501551	14.67928914165503	0.2167381974248927	-0.8147321428571428	0.9297052154195011
8302.764892578125	-1.350142629818879	-8.279427866631105	5.422426247194054	68.15206911014529	-6.792591448360757	15.45974427510378	0.2103004291845494	-0.7946428571428571	0.9569160997732427
8322.296142578125	-1.93794648647092	-8.263448817963576	6.039546606275722	67.45231079967469	-6.804273394104441	15.08615369813598	0.2274678111587983	-0.7745535714285714	0.9750566893424036
8341.827392578125	-1.590056128669075	-8.165917620531491	5.944388377111546	69.57247499575973	-6.009186676514624	16.91916726596092	0.2124463519313305	-0.7700892857142857	0.9886621315192744
8361.358642578125	-1.228759547366602	-7.846298263112193	6.54942412441529	69.59336426043301	-5.24914579615586	17.63140910288245	0.1931330472103004	-0.75	1.022675736961451
8380.889892578125	-1.290127839715709	-7.774977509481633	6.563804379734134	70.30443137439826	-6.323978893861034	18.01609100635464	0.203862660944206	-0.7388392857142857	1.027210884353742
8400.421142578125	-1.669481136243651	-7.801487006819383	6.744031991712051	70.99083962252536	-7.796681190775353	17.68483396407049	0.1931330472103004	-0.7209821428571428	1.052154195011338
8419.952392578125	-1.427991829134236	-7.339255435244012	7.084897199137886	71.70771759650434	-6.662786683523285	18.76696926912503	0.1652360515021459	-0.6986607142857143	1.079365079365079
8439.483642578125	-1.756437543366551	-6.841021483152194	7.276407397879557	73.74259639158024	-5.974792520112045	18.44107467317661	0.203862660944206	-0.6763392857142857	1.095238095238095
8459.014892578125	-1.432694887655617	-7.076582142032536	7.555203051276029	74.38722611036079	-8.967576577743893	16.68533395704941	0.1888412017167382	-0.6629464285714285	1.111111111111111
8478.546142578125	-1.303643072322256	-6.966761549074759	7.915327640388849	78.15975979253948	-6.430594764710463	17.4548392729943	0.1824034334763948	-0.6138392857142857	1.126984126984127
8498.077392578125	-1.414876516469983	-6.632315881299948	7.814182259243217	79.49111067597988	-5.392110865893287	16.75165699124328	0.1909871244635193	-0.6116071428571428	1.136054421768707
8517.608642578125	-1.567229564168974	-6.297459017489625	7.743364580162745	79.88115918729191	-7.170355160224898	17.49666486484449	0.1781115879828326	-0.5558035714285714	1.165532879818594
8537.139892578125	-1.678933718211668	-6.356948036555258	7.689290188513756	79.96817293061711	-9.996333573302801	18.96551384470508	0.2081545064377682	-0.5491071428571428	1.165532879818594
8556.671142578125	-1.616331075022113	-5.791917497330588	7.551474849150065	78.94826018865132	-12.17796219930116	18.60721964590993	0.1738197424892704	-0.5379464285714285	1.1859410430839
8576.202392578125	-1.330899925205777	-5.825074839131782	7.579788438945024	79.00134752149252	-11.74439548203249	20.04279464625737	0.1802575107296137	-0.4888392857142857	1.233560090702948
8595.733642578125	-1.789813624884635	-5.769980651629941	7.552791059892104	75.86621727229739	-11.04584773703519	18.89396987317601	0.1931330472103004	-0.4709821428571428	1.238095238095238
8615.264892578125	-1.683069096559292	-5.356906682771782	8.102828023276119	75.43698274511291	-15.18729165430583	15.68938954986258	0.1866952789699571	-0.4419642857142857	1.249433106575964
8634.796142578125	-1.384563079590393	-4.955851338901066	7.844063061080079	75.35373860295259	-12.72348492237754	14.22423767883678	0.1952789699570815	-0.4040178571428571	1.26984126984127
8654.327392578125	-1.424422069517369	-4.531210324759372	7.748329400716459	73.55286466720472	-9.882089476084444	12.72095732479559	0.1781115879828326	-0.3705357142857142	1.267573696145125
8673.858642578125	-1.673980111907882	-4.003462219082943	8.214337721400479	71.56062857263339	-10.51653736240639	14.12630600263069	0.1866952789699571	-0.3638392857142857	1.283446712018141
8693.389892578125	-1.753770819470928	-4.043068352411352	8.030143171582592	68.52554921257418	-16.66355404119233	13.76736235200154	0.1802575107296137	-0.3102678571428572	1.301587301587302
8712.921142578125	-1.498192497709923	-3.995119085123912	7.982515077114789	67.82115712978067	-14.84652882215816	13.73510425815532	0.2124463519313305	-0.2678571428571428	1.294784580498866
8732.452392578125	-1.741352521914348	-3.861374353568736	7.808721579189918	66.44457103236159	-11.5389525471799	14.39392123388882	0.2060085836909871	-0.2700892857142857	1.312925170068027
8751.983642578125	-1.823106877622919	-3.658536607991448	7.820891843924555	62.75732275119204	-13.96884180603475	15.78332408171728	0.2124463519313305	-0.2209821428571428	1.331065759637188
8771.514892578125	-1.602914750450779	-3.398112266636907	8.250658718547241	59.29622721048798	-17.64896834624937	13.95234228522621	0.2103004291845494	-0.2165178571428571	1.326530612244898
8791.046142578125	-1.590860091439666	-3.115404530398735	8.06560098070133	57.31906952057621	-19.7321029571698	15.37247939840049	0.2145922746781116	-0.1540178571428571	1.335600907029479
8810.577392578125	-1.14070002086473	-2.72596673716509	7.947553106881207	55.61942356165507	-19.69883716492484	15.69786605151544	0.2081545064377682	-0.1584821428571428	1.328798185941043
8830.108642578125	-0.9288837427520545	-2.313943485804803	8.194496724185047	53.55438795726007	-17.48945787913912	15.99418377678552	0.2317596566523605	-0.109375	1.335600907029479
8849.639892578125	-0.8980248480542625	-2.556676317176024	8.169831744201764	51.42582038768722	-16.09366575080146	14.49880558324737	0.2188841201716738	-0.1071428571428571	1.356009070294785
8869.171142578125	-0.4531193544613339	-1.995468806455387	8.577241568582375	49.92915830761699	-8.167101416026966	13.31047000765074	0.2339055793991416	-0.08482142857142856	1.349206349206349
8888.702392578125	-0.777807470390483	-1.699292632366803	8.392991937007489	48.14453986421947	-2.736957924597243	12.86076397365266	0.240343347639485	-0.06696428571428571	1.340136054421769
8908.233642578125	-1.073711451545147	-2.05996995619162	8.391553317780019	46.70238054277372	-2.8138680931739	11.03412873783038	0.2489270386266094	-0.03794642857142857	1.335600907029479
8927.764892578125	-0.8509092077022056	-1.435935352367423	8.560308525322602	44.25483562939647	0.4494121246441868	10.59283280716883	0.2381974248927039	-0.02455357142857143	1.383219954648526
8947.296142578125	-0.9509809274893579	-1.687459887694803	8.363398871384778	43.24363917745126	1.580874906081688	11.2807187107472	0.2274678111587983	-0.004464285714285714	1.349206349206349
8966.827392578125	-0.9020450741958214	-1.243504801783295	8.571854358357651	40.48638446491545	3.05422888382448	11.21084007671906	0.2274678111587983	0.02901785714285714	1.3718820861678
8986.358642578125	-0.9002390027533321	-1.223320842295699	8.391247214108724	38.08870853783977	0.1427417630692744	10.47257696895344	0.2446351931330472	0.03794642857142857	1.351473922902494
9005.889892578125	-1.084214586095597	-0.8881477531289431	8.421458609559739	35.65797037143813	-0.9757357109675969	9.356010289718295	0.2381974248927039	0.02901785714285714	1.378684807256236
9025.421142578125	-0.8555294374437861	-0.6379093520902087	9.02233149948065	33.61900905866457	-6.805528446592559	8.294392300171591	0.2446351931330472	0.06696428571428571	1.331065759637188
9044.952392578125	-0.8543657940982896	-0.5571129077155829	8.905967164931006	31.5281375007406	-9.031453129751091	6.835985194981388	0.2467811158798283	0.08258928571428571	1.353741496598639
9064.483642578125	-0.7322090108586827	-0.9118698290833325	8.935186800153991	29.77077043665534	-7.603046889996943	6.067129330870486	0.2424892703862661	0.1116071428571428	1.36281179138322
9084.014892578125	-0.5566678627859852	-0.6610999880388069	8.728010768394441	29.39870576000973	-6.169125517785188	5.68563659339963	0.2489270386266094	0.09821428571428571	1.3718820861678
9103.546142578125	-0.9227301292482256	-0.4453181532529724	8.599543537067449	26.6452206486388	-5.057943221192016	5.619455068206279	0.2446351931330472	0.1138392857142857	1.35827664399093
9123.077392578125	-0.8953662050152057	-0.08195542885893888	8.924375603561394	21.94473465667521	-8.927268984716228	7.002987526865559	0.2510729613733906	0.1540178571428571	1.35827664399093
9142.608642578125	-0.6035107742289414	-0.2161871144799328	8.310261096363529	21.5509165441983	-6.786853009234999	6.254282544429554	0.259656652360515	0.1517857142857143	1.349206349206349
9162.139892578125	-0.6581921165408667	-0.1752362606527732	8.676354511229523	19.48933762443541	-10.44361565796225	5.170481901874086	0.2553648068669528	0.1763392857142857	1.349206349206349
9181.671142578125	-0.6622951714622266	0.09753204262371319	9.086660003365505	18.37660027913069	-12.00799347583994	2.645885321635977	0.2682403433476395	0.1696428571428571	1.340136054421769
9201.202392578125	-0.4345615848999155	-0.2582806467772635	8.762280938971143	16.9820303470452	-8.35609427874183	2.941187161239114	0.2553648068669528	0.1517857142857143	1.342403628117914
9220.733642578125	-0.2003875144256844	0.1030139761543579	8.814261646650071	15.56743532144447	-6.930771445630721	2.179217571964333	0.2575107296137339	0.1785714285714285	1.360544217687075
9240.264892578125	-0.4245574432424125	0.07495264513949483	8.782274936486148	13.4693374777235	-2.928382513126673	2.097231725764874	0.2618025751072962	0.1808035714285714	1.344671201814059
9259.796142578125	-0.4649053249916283	0.1359621845630476	8.735430458346512	11.45040125846519	-6.53159888476463	2.092885165096087	0.2618025751072962	0.1941964285714285	1.351473922902494
9279.327392578125	-0.8747538776718952	0.2511717812009615	8.903959195760947	8.973250790394086	-7.341450954741171	-0.1068327048605339	0.2703862660944206	0.2008928571428571	1.337868480725624
9298.858642578125	-0.2928349048140053	0.4473727934925846	8.875327216094405	7.216747897466848	-7.379580198615263	-1.22071816092782	0.2832618025751073	0.2098214285714285	1.344671201814059
9318.389892578125	-0.4670285700543311	0.3077005887308464	8.947754964616781	5.451841631051807	-5.226830596561876	-1.996968242708309	0.2746781115879828	0.1852678571428571	1.344671201814059
9337.921142578125	-0.3989430244559204	0.1555045817597107	9.282057547632856	4.422661344440182	-3.751044893004518	-1.672597475260288	0.2854077253218884	0.2120535714285714	1.340136054421769
9357.452392578125	-0.661230518609663	0.5116628102366018	8.980194718109146	2.718381613196128	-1.889071935981699	-1.005878339023742	0.2875536480686695	0.2053571428571428	1.342403628117914
9376.983642578125	-0.8875135914183864	0.3018044288434769	9.159522407144753	1.708913503566969	-3.690680121800678	-1.008051619358136	0.2875536480686695	0.2165178571428571	1.346938775510204
9396.514892578125	-0.3969551337406974	0.3777069250747808	9.083268476110549	1.323498764577862	-3.741142992246927	-2.094391976080938	0.3197424892703863	0.203125	1.344671201814059
9416.046142578125	-0.399003630880165	0.2565152888340542	9.288118190057318	-2.782226494906755	-4.428485474829694	-2.169633056444802	0.2939914163090129	0.2366071428571428	1.324263038548753
9435.577392578125	-0.5117098111370363	0.5202686132628856	9.334246419826078	-1.413730854442705	-0.04121265051713119	-1.106999181231165	0.3068669527896996	0.2209821428571428	1.340136054421769
9455.108642578125	-0.450190002727318	0.7014715969969704	9.304714558446083	-1.749827861755489	0.7040628774549096	-0.7614616464413136	0.2768240343347639	0.203125	1.346938775510204
9474.639892578125	-0.7880236933039821	0.5129307419835449	9.414614228357399	-2.779008148367114	2.179848581012267	-0.4370908789932924	0.2939914163090129	0.2232142857142857	1.344671201814059
9494.171142578125	-0.5005824304168667	0.3282381475364919	9.241916511074413	-1.737654887102798	-1.848987649622189	-1.095399911893316	0.3068669527896996	0.2098214285714285	1.342403628117914
9513.702392578125	-0.4929136563069224	0.176646308280241	9.495447263345302	-1.730979855931049	-1.106795528293187	-0.7429761022673438	0.2939914163090129	0.1919642857142857	1.344671201814059
9533.233642578125	-0.2843822876171642	-0.1688733488410001	9.050473659675601	-2.438277368731415	-0.3941341117376327	-1.123960896904734	0.3068669527896996	0.1964285714285714	1.321995464852608
9552.764892578125	-0.6765781266713986	0.3299981044990373	9.494547361017419	-3.484577318851426	-0.04056096968865831	-1.508134857543451	0.2832618025751073	0.2053571428571428	1.337868480725624
9572.296142578125	-0.8286241018208838	0.3214175541495221	9.393022426986347	-4.17389099698538	0.3277775247470396	-1.525604516050487	0.2939914163090129	0.1941964285714285	1.337868480725624
9591.827392578125	-0.6581718731705918	-0.2055394933895063	9.694738337467339	-1.767811696421902	1.048385799574766	-1.124976782571668	0.3004291845493562	0.1830357142857143	1.346938775510204
9611.358642578125	-0.9644698973120658	0.4237861131145348	9.712295853655561	-1.374857755103019	0.3745053077217764	-0.03124220817927815	0.2725321888412017	0.1941964285714285	1.349206349206349
9630.889892578125	-1.201124790752043	0.3251425610388337	9.908397442551221	-1.363548951608355	-0.7120097357270816	-0.02015088167489629	0.2896995708154507	0.1919642857142857	1.346938775510204
9650.421142578125	-0.7046874686937671	0.3706832383233014	10.26466523672364	-1.42794508794423	-0.05906140954689396	-1.466817208526725	0.2768240343347639	0.203125	1.344671201814059
9669.952392578125	-0.2211634378855954	-0.290717658550437	9.871445829375864	0.2415440616578053	2.805046247405102	-1.821780732320032	0.2918454935622318	0.171875	1.346938775510204
9689.483642578125	-0.6190987465446541	0.006190987465446541	9.869058327934797	-0.03973727049771342	1.050817525389332	-0.7307273810955023	0.2982832618025751	0.1964285714285714	1.344671201814059
9709.014892578125	-0.966288090039404	0.4238042950418083	9.894115126389378	1.057608753614675	-1.440088185497832	0.3952652871430992	0.2768240343347639	0.2008928571428571	1.356009070294785
9728.546142578125	-0.5400393565008267	0.08620847437308909	10.12638462967451	0.7621131879576314	-3.212165666543364	1.126500611072068	0.2896995708154507	0.203125	1.360544217687075
9748.077392578125	-0.6197694576396278	0.4506421390208408	9.936129437432161	2.432466508717694	-1.814593493219609	0.4265074953223773	0.2875536480686695	0.1986607142857143	1.360544217687075
9767.608642578125	-0.247846549952934	0.06308452610558996	9.478532546313811	2.771468946037339	-1.455505218713029	0.4296966613237044	0.2875536480686695	0.1919642857142857	1.36281179138322
9787.139892578125	-0.5127684033471754	0.09603677494256269	9.44010564083999	1.657003258416565	-0.08681206933424743	-1.404840735001636	0.2939914163090129	0.2053571428571428	1.344671201814059
9806.671142578125	-0.6881519747168371	0.0876896005552492	9.631524002295944	1.314231219932032	-0.08372866269120816	-1.411727009837757	0.296137339055794	0.1875	1.351473922902494
9826.202392578125	-0.4732568902525351	0.4188739830439396	9.570586984437183	2.331238531890966	0.9935361608285319	-1.402159511833776	0.3004291845493562	0.1964285714285714	1.335600907029479
9845.733642578125	-0.6061693348102781	0.1777788650652745	9.596525317762504	1.291613612942704	2.089301424206508	-1.43390966284652	0.278969957081545	0.1964285714285714	1.333333333333333
9865.264892578125	-0.3765064025139871	0.6502297104897865	10.09961984323545	1.296247385265619	0.2605942594286484	-1.775242145968111	0.2854077253218884	0.1852678571428571	1.351473922902494
9884.796142578125	-0.6672083322543226	0.03697511362557353	9.577976082575113	1.653233657251677	0.2753596118153719	-1.40853784383643	0.2982832618025751	0.2098214285714285	1.340136054421769
9904.327392578125	-0.6028359814768248	0.17774553153194	9.263189984417171	1.981791462234685	0.2544274461425699	-1.761469596295869	0.3025751072961373	0.2008928571428571	1.340136054421769
9923.858642578125	-0.5236109338733955	0.3183674224700472	9.50395053019669	1.962943456410245	2.065285851890667	-1.779955140469839	0.2982832618025751	0.2098214285714285	1.349206349206349
9943.389892578125	-0.6957055966207163	0.04736109637024757	9.36647802941858	1.302058245279341	2.46932186438589	-1.077788744385754	0.2918454935622318	0.1964285714285714	1.344671201814059
9962.921142578125	-0.7307220920216885	0.1487213623343583	9.806903079719861	0.6249175417980783	0.2846098317444897	-1.429196668344793	0.2746781115879828	0.2008928571428571	1.365079365079365
9982.452392578125	-0.3751225558270687	0.1956704174774626	9.961235174543599	1.02164108428185	-0.7514423412581193	-0.3317649851176092	0.2918454935622318	0.203125	1.344671201814059
10001.98364257812	-0.311883545182945	0.2051390374720315	9.75978308972307	0.6872724192851195	-2.939237780542558	-0.6762866342405267	0.278969957081545	0.1875	1.335600907029479
10021.51489257812	-0.5455323599803895	0.1468694650139453	9.655276814365484	-0.02465886583816162	-0.3978691992091449	-0.7159389457563266	0.2918454935622318	0.1941964285714285	1.333333333333333
10041.04614257812	-0.7999894628928689	0.2504241370531712	9.590783023980768	0.6307284018118002	2.493337436701732	-0.7317432667624361	0.3068669527896996	0.203125	1.331065759637188
10060.57739257812	-0.8402464350057179	0.1599176158652087	9.53484758220444	1.00569850846427	2.163779866968598	-0.001523828500400573	0.2918454935622318	0.2120535714285714	1.369614512471655
10080.10864257812	-0.7280655104256333	0.09818974601334726	9.541244920114337	0.2984009956639044	2.876441283524152	-0.3825086231377908	0.2939914163090129	0.2008928571428571	1.344671201814059
10099.63989257812	-0.577310452112558	0.2380963368443579	9.771861537786421	0.2841867621623796	2.85859252449439	-0.742326650433351	0.2768240343347639	0.1941964285714285	1.333333333333333
10119.17114257812	-0.7397484500347118	0.03770051480337742	9.689130717756891	-0.03219806816793752	0.3264741630900938	-0.7233331634259144	0.2832618025751073	0.2053571428571428	1.340136054421769
10138.70239257812	-0.9320029121576503	0.3628553826569301	9.526821828009922	-0.3607558731509455	0.3474063287628959	-0.3704014109664752	0.278969957081545	0.1875	1.356009070294785
10158.23364257812	-0.3892297936347915	-0.0365117424676925	9.331142628785273	-0.7072975128003661	0.7126614165555545	-0.3809847946373902	0.2875536480686695	0.1830357142857143	1.349206349206349
10177.76489257812	-0.8803821942700777	0.3724401855790645	9.466790855579189	-2.100139102569798	1.431489646397187	-0.7757421389470226	0.2896995708154507	0.2008928571428571	1.369614512471655
10197.29614257812	-0.7411807818610259	0.06801786842467088	9.832363900388311	-1.035855317783374	0.7335935822283565	-0.02805304217795105	0.2939914163090129	0.2008928571428571	1.356009070294785
10216.82739257812	-0.7298736020822639	0.2497229784450651	9.722054085777412	-0.3569862719860575	-0.01476535238672349	-0.3667043021316813	0.2832618025751073	0.2008928571428571	1.340136054421769
10236.35864257812	-0.4547375047598049	-0.1368667663665434	9.759464761694776	0.323924032660093	1.807774999105058	-0.01159926933784872	0.2854077253218884	0.1986607142857143	1.346938775510204
10255.88989257812	-0.7790842044990428	0.4320332662874147	9.541073511128761	0.6666960711446257	1.804691592462018	-0.004712994501727668	0.3025751072961373	0.2209821428571428	1.360544217687075
10275.42114257812	-0.758952688121406	0.2197107390024262	9.568738199895703	0.3210186026532321	0.7034111966264366	-0.3603259701290271	0.2768240343347639	0.1964285714285714	1.342403628117914
10294.95239257812	-0.6059753942526953	0.3595951074778805	9.577131262004229	0.6571156099660159	-0.04186433134560408	-0.7058635049188784	0.3025751072961373	0.2075892857142857	1.344671201814059
10314.48364257812	-0.56509821639841	0.2581762346892367	9.571046129636912	-0.01798383466641273	0.3443229221198566	-0.3635151361303542	0.2832618025751073	0.1941964285714285	1.356009070294785
10334.01489257812	-0.5537344706236863	0.1772545164234086	9.45507971542985	-1.39661119093432	1.080999910991252	-0.3984544531444263	0.2746781115879828	0.1919642857142857	1.321995464852608
10353.54614257812	-0.8193088531856279	0.1193041996429674	9.481905726726055	-1.415459196758759	2.891858316739349	-0.416939997318396	0.2832618025751073	0.1986607142857143	1.340136054421769
10373.07739257812	-0.6367150963161397	0.06697321156922201	9.589876978552741	-1.031221545460459	-1.095113582549503	-0.3693855252995415	0.2768240343347639	0.1941964285714285	1.351473922902494
10392.60864257812	-0.6564122666533567	0.2287863448887558	9.518777685743832	-1.05297498129176	-0.388618979280027	-0.7365977702646896	0.278969957081545	0.2098214285714285	1.349206349206349
10412.13989257812	-0.3721508208249414	0.1249336294203706	9.664061674330881	-0.7612490167996044	1.745630182915124	-1.471530203028453	0.2832618025751073	0.1875	1.360544217687075
10431.67114257812	-0.6864994395491008	0.5321175196480162	9.466270485522317	-0.4080323459784348	2.122567216451467	-1.108523009731565	0.2682403433476395	0.2075892857142857	1.335600907029479
10451.20239257812	-0.8203856273230404	0.2304260784954527	9.589583140467305	-0.0594494474801802	4.328211414765669	-0.4041833333130876	0.2553648068669528	0.1964285714285714	1.351473922902494
10470.73364257812	-0.7387060195377044	0.3205183733266903	9.584887668056169	-0.06989407981681703	3.948190974586288	-0.760304251773854	0.2832618025751073	0.1897321428571428	1.344671201814059
10490.26489257812	-0.4758468047819213	0.3582938215831728	9.829578437375801	-0.7687882191293803	2.469973545214363	-1.478924420698041	0.2832618025751073	0.1919642857142857	1.333333333333333
10509.79614257812	-0.8633052416743691	0.2005522443359357	9.799911922538946	-1.064283784786424	0.697896064168831	-0.7476890967690715	0.2639484978540773	0.2075892857142857	1.331065759637188
10529.32739257812	-0.7897550168232363	0.1998167420874243	9.587746580282824	-1.402422050948042	-1.127727693965989	-1.095907854726783	0.2768240343347639	0.1964285714285714	1.360544217687075
10548.85864257812	-0.8713497756146299	-0.03169054264789412	9.583957153299714	-1.430850517951091	-1.163425212025515	-1.815543909317904	0.2832618025751073	0.1964285714285714	1.346938775510204
10568.38989257812	-0.6756932728774274	-0.1346572086853672	9.406061981620294	-1.056744582456648	-0.0264472981304077	-0.7402948790994835	0.2703862660944206	0.1941964285714285	1.356009070294785
10587.92114257812	-0.8126077616494559	-0.1029850334946166	9.832204736374162	-0.7386314098102766	-0.4273999039825919	-1.449347550019689	0.2682403433476395	0.1986607142857143	1.342403628117914
10607.45239257812	-0.872703319089426	-0.1326871082232472	9.719311500779334	0.3210186026532321	0.7034111966264366	-0.3603259701290271	0.2660944206008584	0.1941964285714285	1.340136054421769
10626.98364257812	-1.036983752308616	0.2123900395432882	9.820824210453408	0.3218827738112591	-0.7631242870018035	-0.7053555620854115	0.2875536480686695	0.203125	1.335600907029479
10646.51489257812	-0.6163936798092032	-0.1251491945150393	9.598551654389706	0.6324567441278544	-0.439733530554749	-1.421802450675205	0.2768240343347639	0.1897321428571428	1.337868480725624
10666.04614257812	-0.4629012313344134	0.1662451739295058	9.555429255890317	0.196860102304397	0.1806006842089524	-3.594991106954275	0.2896995708154507	0.1941964285714285	1.351473922902494
10685.57739257812	-0.5364373146865556	-0.02493865715616475	9.7661804482474	1.688337155426475	1.053249251203899	-0.3364779796193368	0.2854077253218884	0.1875	1.353741496598639
10705.10864257812	-0.7991409729534444	0.3514257531638779	9.505934030038318	0.6629264699797378	2.166863273611638	-0.008410103336521622	0.2768240343347639	0.1897321428571428	1.36281179138322
10724.63989257812	-0.789575217764644	0.06850181278370705	9.56976667442359	-0.01798383466641273	0.3443229221198566	-0.3635151361303542	0.2768240343347639	0.1875	1.351473922902494
10744.17114257812	-0.7076976289934425	-0.003024033811075678	9.545273103425883	-0.01421423350152478	-0.01784875902976276	-0.3598180272955602	0.2746781115879828	0.1919642857142857	1.337868480725624
10763.70239257812	-0.7606981531396507	0.09851607244048743	9.743284701720169	-1.027451944295571	-1.457285263699122	-0.3656884164647475	0.278969957081545	0.1875	1.337868480725624
10783.23364257812	-0.3719528398390758	-0.03668451200564965	9.64426357574431	0.3114381414746222	-1.143144727181185	-1.061476480546178	0.2703862660944206	0.1964285714285714	1.360544217687075
10802.76489257812	-0.8379514717409888	0.0386825450204402	9.305351255731532	-0.392953941318883	0.6738804918529897	-1.09373457439239	0.3004291845493562	0.203125	1.342403628117914
10822.29614257812	-0.6368504506636193	-0.04413654599841432	9.603412413300703	-1.15333878696046	0.9529751911398736	-2.910294369377227	0.2660944206008584	0.1941964285714285	1.346938775510204
10841.82739257812	-0.8700649194206441	-0.1529155124219552	9.455471533901148	-0.03306223932596454	1.793009646718334	-0.37830357146953	0.2725321888412017	0.1852678571428571	1.35827664399093
10861.35864257812	-1.024583636679309	0.4243872505082074	9.601220810788069	-1.060514183621536	0.3357243830192116	-0.7439919879342776	0.2703862660944206	0.2120535714285714	1.349206349206349
10880.88989257812	-0.5049582142473271	0.04545362254651368	9.67949489412047	-0.7168779739789759	-1.133894507252068	-1.082135305054541	0.2832618025751073	0.1897321428571428	1.351473922902494
10900.42114257812	-0.7069663114742243	-0.04343538739030827	9.472141351504058	-1.730979855931049	-1.106795528293187	-0.7429761022673438	0.278969957081545	0.2075892857142857	1.353741496598639
10919.95239257812	-0.6698628936362363	-0.08421046197272856	9.843432220766486	-1.716765622429525	-1.088946769263424	-0.3831580749717836	0.2682403433476395	0.1897321428571428	1.356009070294785
10939.48364257812	-0.6868267142400216	0.06747432774846084	9.498997954614405	-1.086037220617724	1.404390667438307	-1.11490134173422	0.2918454935622318	0.2120535714285714	1.337868480725624
10959.01489257812	-0.749043496528553	0.03779346526831584	9.598227203875696	-0.7612490167996044	1.745630182915124	-1.471530203028453	0.278969957081545	0.1919642857142857	1.340136054421769
10978.54614257812	-0.5973490386396864	0.1271856115985181	9.73490386396864	-0.3578504431440845	1.451770131241517	-0.02167471017529686	0.2832618025751073	0.1986607142857143	1.342403628117914
10998.07739257812	-0.7606153243598497	0.1288182744557198	9.735001823740072	-0.3427720384845327	0.003083406643039275	-0.006886274836121049	0.2896995708154507	0.1919642857142857	1.36734693877551
11017.60864257812	-0.7781811687777981	-0.06292525901929273	9.450769939004299	-0.326516546134174	2.591831451779663	1.046688045207002	0.2682403433476395	0.1808035714285714	1.360544217687075
11037.13989257812	-0.9348877779516934	0.1204599888906281	9.815308407414248	-1.018735654274989	1.85580614373674	0.6804916859087875	0.2896995708154507	0.1808035714285714	1.335600907029479
11056.67114257812	-0.7769165147252274	0.01787017524826237	9.32430453374722	-2.370111631230652	-1.40925411906744	0.3264025387818887	0.2896995708154507	0.171875	1.351473922902494
11076.20239257812	-0.6672628780361427	0.1278847499924826	9.583430660757127	-1.691242585433336	-2.15761305368252	-0.01224872117184152	0.2660944206008584	0.1696428571428571	1.35827664399093
11095.73364257812	-0.4048238678217887	0.02425025888023809	9.870141884219684	-0.6951245381476753	-1.840389110521544	-0.7149230600893928	0.2832618025751073	0.1785714285714285	1.349206349206349
11115.26489257812	-0.8613355328864194	0.4530577997733087	9.602941043743977	0	0	0	0.2746781115879828	0.1674107142857143	1.351473922902494
11134.79614257812	-0.5277139887947553	0.08608522069602838	9.914256022332673	-0.6788690457973167	0.7483589346150801	0.3386512599537302	0.2660944206008584	0.1875	1.369614512471655
11154.32739257812	-0.8006520931312766	0.008006520931312766	9.657046047821536	-0.3436362096425598	1.469618890271279	0.3381433171202634	0.2811158798283262	0.1808035714285714	1.351473922902494
11173.85864257812	-0.7525303861367593	-0.04297974664368293	9.946916164696331	-0.7072975128003661	0.7126614165555545	-0.3809847946373902	0.2811158798283262	0.1897321428571428	1.351473922902494
11193.38989257812	-0.7614718951558401	0.2096349209717605	9.820658903339115	-0.3741059354944433	-1.136977913895107	-1.07524903021842	0.2811158798283262	0.1741071428571428	1.351473922902494
11212.92114257812	-0.669592184941277	0.1380090531625441	9.816361351270562	-0.0464123016694623	0.3086254040603311	-1.083151190721475	0.278969957081545	0.1919642857142857	1.351473922902494
11232.45239257812	-0.5963086283568207	0.07667015699063892	9.630862835682066	0.6704656723095137	1.442519911312399	-0.001015885666933716	0.2982832618025751	0.1852678571428571	1.349206349206349
11251.98364257812	-0.678679149378545	0.1279989127059067	9.704649631732053	1.014101881952074	-0.02709897895888059	-0.3391592027871971	0.2875536480686695	0.1986607142857143	1.349206349206349
11271.51489257812	-0.7807731035213258	0.04821177143925367	9.709963413357064	0.3398666084776718	-1.10744720912166	-0.3418404259550573	0.2832618025751073	0.1696428571428571	1.346938775510204
11291.04614257812	-0.8631193819733523	0.05913624432478404	9.781325952437266	0.6788690457973167	-0.7483589346150801	-0.3386512599537302	0.2746781115879828	0.1986607142857143	1.333333333333333
11310.57739257812	-1.027989717721856	0.04058292748024887	9.941828915042755	0.3436362096425598	-1.469618890271279	-0.3381433171202634	0.2918454935622318	0.1808035714285714	1.356009070294785
11330.10864257812	-0.8925419044165471	-0.07188266176391535	9.662353706960834	1.050069551284899	-0.7157448231985937	0.3878710694735113	0.2854077253218884	0.1808035714285714	1.335600907029479
11349.63989257812	-0.8219634145675416	-0.001881375955334687	9.74736186491743	1.378627356267907	-0.7366769888713958	0.0349393170140721	0.2811158798283262	0.1875	1.342403628117914
11369.17114257812	-0.4139734588974427	-0.2180824876332478	9.764692828519784	1.36818272393127	-1.116697429050778	-0.3211816014466942	0.2725321888412017	0.1785714285714285	1.353741496598639
11388.70239257812	-0.7199401679197129	0.02740142188121734	9.749118832787623	2.064171433236972	-0.7428438021574744	0.0487118666863142	0.2896995708154507	0.1875	1.35827664399093
11408.23364257812	-0.5122512285269548	0.07582958299234027	9.388388158817927	1.017871483116962	-0.3892706601084999	-0.3354620939524031	0.2768240343347639	0.1919642857142857	1.36734693877551
11427.76489257812	-0.6884408653390696	0.4008238025927847	9.660413064519204	1.713860192422664	-0.01541703321519637	0.03443137418060524	0.2682403433476395	0.1808035714285714	1.349206349206349
11447.29614257812	-0.6284907633172866	0.1679010692493345	9.78785184193274	1.36818272393127	-1.116697429050778	-0.3211816014466942	0.2854077253218884	0.1852678571428571	1.356009070294785
11466.82739257812	-0.5741185137690088	0.1370543164508214	9.452667703431496	1.029180286611625	-1.475785703557358	-0.3243707674480213	0.2811158798283262	0.171875	1.36734693877551
11486.35864257812	-0.60609054645876	0.04646494586862801	9.588646482610706	1.392841589769432	-0.718828229841633	0.3947573443096323	0.2875536480686695	0.1808035714285714	1.346938775510204
11505.88989257812	-0.5328797175833972	0.106338898185935	9.410420737931561	1.054703323607814	-2.544451987976453	0.04653858635192082	0.2832618025751073	0.1763392857142857	1.342403628117914
11525.42114257812	-0.6463737813554485	0.1680798994297161	9.535337319218311	0.3398666084776718	-1.10744720912166	-0.3418404259550573	0.296137339055794	0.1919642857142857	1.344671201814059
11544.95239257812	-0.5149785176179621	0.07585685588325033	9.661117067918653	1.050069551284899	-0.7157448231985937	0.3878710694735113	0.2832618025751073	0.1897321428571428	1.353741496598639
11564.48364257812	-0.4021592053691675	-0.2080996200675205	9.603675638957567	1.389071988604544	-0.3566565486920137	0.3910602354748384	0.2725321888412017	0.1875	1.326530612244898
11584.01489257812	-0.6482465198646068	0.2590077177238986	9.722611170134142	1.371088153938131	-0.0123336265721571	0.02754509934448419	0.2811158798283262	0.1852678571428571	1.351473922902494
11603.54614257812	-0.871557857671203	-0.02158745172631828	9.604765358957028	1.728074425924188	0.002431725814566389	0.3942494014761655	0.2854077253218884	0.1919642857142857	1.349206349206349
11623.07739257812	-0.8705255282449033	0.1097153562925501	9.50153241632705	0.6901778492919806	-1.834873978063938	-0.3275599334493484	0.278969957081545	0.171875	1.349206349206349
11642.60864257812	-0.4730063836989907	0.3380633971703233	9.545536329082747	1.734749457095937	0.7446238471435678	0.7466732111021378	0.2875536480686695	0.1941964285714285	1.342403628117914
11662.13989257812	-0.4949379108766923	0.01505038920977702	9.697872720322286	0.6742352734744016	1.080348230162779	0.002681223167860238	0.2746781115879828	0.1986607142857143	1.342403628117914
11681.67114257812	-0.6808710817220582	0.07751578152429131	9.923842866083378	-0.04554813051143528	-1.157910079567909	-1.428180782677859	0.278969957081545	0.1830357142857143	1.36281179138322
11701.20239257812	-0.70993602626221	-0.1444157912525294	9.769112830302628	1.014101881952074	-0.02709897895888059	-0.3391592027871971	0.315450643776824	0.1919642857142857	1.349206349206349
11720.73364257812	-0.891113613018516	0.2412343684534175	9.519524567157712	-0.6336338318186613	-3.597701239180352	0.3830165659712577	0.2768240343347639	0.2008928571428571	1.340136054421769
11740.26489257812	-0.5768397422175916	0.1269805186342972	9.724790548289777	1.050069551284899	-0.7157448231985937	0.3878710694735113	0.2875536480686695	0.1986607142857143	1.342403628117914
11759.79614257812	-0.5329989102177449	0.1366431204153088	9.422340001366335	1.028316115453598	-0.009250219929117825	0.02065882450836315	0.3047210300429185	0.171875	1.346938775510204
11779.32739257812	-0.9510738161110063	0.3226420512924232	9.393095896814922	0.71860631629503	-1.799176460004413	0.3920761211417721	0.2768240343347639	0.1941964285714285	1.342403628117914
11798.85864257812	-0.6265937822384304	0.03656896812541462	9.598153734047122	0.6571156099660159	-0.04186433134560408	-0.7058635049188784	0.2811158798283262	0.1785714285714285	1.349206349206349
11818.38989257812	-0.6236240674504446	-0.3675011330628694	9.301182255248552	0.3076685403097343	-0.7809730460315663	-1.065173589380972	0.2854077253218884	0.1875	1.342403628117914
11837.92114257812	-0.5761023640559489	0.0764680943476302	9.651052732125507	-0.01711966350838571	-1.122212561508384	-0.7085447280867386	0.3068669527896996	0.1808035714285714	1.337868480725624
11857.45239257812	-0.76042542423055	0.1490183956564469	9.716011810810096	-1.059650012463509	-1.130811100609028	-1.089021579890662	0.2768240343347639	0.1808035714285714	1.356009070294785
11876.98364257812	-0.7905388599101333	0.1594205401142529	9.666130888972514	0.3465416396494207	-0.3652550877926586	0.010583383670915	0.2811158798283262	0.1696428571428571	1.342403628117914
11896.51489257812	-0.5342716451268817	0.2376659487745012	9.549613492280008	-0.00667503117174888	-0.7421921213290015	-0.3524238096259723	0.2896995708154507	0.203125	1.346938775510204
11916.04614257812	-0.8224482659614984	-0.2038967294615971	9.795847004313114	-0.3741059354944433	-1.136977913895107	-1.07524903021842	0.2854077253218884	0.1808035714285714	1.349206349206349
11935.57739257812	-0.6987318774046637	0.2090075207942487	9.669106107813313	0.328557804983008	-0.02093216567280204	-0.3529317524594392	0.2811158798283262	0.1808035714285714	1.346938775510204
11955.10864257812	-0.7403201706367525	0.148817343120509	9.74630277796097	0.6286871429629663	-0.07756184940512961	-1.425499559509999	0.3068669527896996	0.1919642857142857	1.344671201814059
11974.63989257812	-0.3537203247544367	0.05404225375259488	9.861828393811017	0.6533460088011279	0.3203073498040153	-0.7095606137536723	0.2832618025751073	0.1830357142857143	1.349206349206349
11994.17114257812	-0.8210421969190236	-0.02209260833384007	9.655240100065628	0.6533460088011279	0.3203073498040153	-0.7095606137536723	0.278969957081545	0.1941964285714285	1.353741496598639
12013.70239257812	-0.6969722708874286	0.1382828540220056	9.493145456089806	1.356009749278579	1.43635309802632	0.01275666400530838	0.296137339055794	0.1875	1.351473922902494
12033.23364257812	-0.1475404853253692	-0.4126660092881605	9.652007716210388	1.017007311958934	1.07726482351974	0.009567498003981286	0.2875536480686695	0.1919642857142857	1.351473922902494
12052.76489257812	-0.4327049668750291	0.1861452314869321	9.597027299747804	1.02454651428871	0.3529214612205015	0.01696171567356919	0.2703862660944206	0.1897321428571428	1.346938775510204
12072.29614257812	-0.699364204430949	-0.08391544886478144	9.732338810441853	0.9998876484505487	-0.04494773798864335	-0.6989772300827574	0.2918454935622318	0.203125	1.344671201814059
12091.82739257812	-0.6068966119012134	-0.1252441651941192	9.669253026856031	0.3323274061478959	-0.3831038468224214	-0.3492346436246452	0.2918454935622318	0.1830357142857143	1.36734693877551
12111.35864257812	-0.5928803249587175	-0.4183136209928371	9.288032495871745	1.37776318510988	0.7298584947568444	0.3799689089704565	0.2746781115879828	0.1941964285714285	1.342403628117914
12130.88989257812	-0.6152704407465365	0.3596880579428189	9.486227748123035	0.2992651668219314	1.409905799895913	-0.7275382150941753	0.3025751072961373	0.1919642857142857	1.333333333333333
12150.42114257812	-0.7615628047922071	0.3611509815832757	9.829749866975806	0.6353621741347153	0.6646302719238718	-1.073075749884026	0.2854077253218884	0.1808035714285714	1.365079365079365
12169.95239257812	-0.7805306778243474	0.1492194481923849	9.685720843659222	-1.063419613628397	-0.7686394194594092	-1.092718688725456	0.2768240343347639	0.1830357142857143	1.3718820861678
12189.48364257812	-0.5354878140400569	0.07606194884747129	9.671230383597516	0.01884800582443976	-1.810858405748097	0.01848554417396977	0.2918454935622318	0.1808035714285714	1.353741496598639
12209.01489257812	-0.6060622634607793	0.1676767842507694	9.585818182812623	1.407055823270956	-0.7009794708118703	0.7545753716051926	0.2896995708154507	0.1763392857142857	1.351473922902494
12228.54614257812	-0.7002733007946181	-0.08390635790114476	9.823248446808762	1.353968490429745	-1.134546188080541	-0.6809996287422544	0.2854077253218884	0.1785714285714285	1.356009070294785
12248.07739257812	-0.7179058122792356	-0.1645381135943794	9.545683268739895	0.3427720384845327	-0.003083406643039275	0.006886274836121049	0.3068669527896996	0.1785714285714285	1.340136054421769
12267.60864257812	-0.5949712465951564	0.03625274276898187	9.497124659515636	0.3068043691517073	0.6855624375966739	-0.7201439974245873	0.3047210300429185	0.1919642857142857	1.342403628117914
12287.13989257812	-0.7169482307761709	-0.2453557702174909	9.449925118433416	1.046299950120011	-0.3535731420489744	0.3841739606387173	0.2703862660944206	0.1875	1.326530612244898
12306.67114257812	-0.3835549708824949	0.104845650718926	9.784068516820914	-0.002905430006860929	-1.104363802478621	-0.3487267007911783	0.3304721030042919	0.2008928571428571	1.342403628117914
12326.20239257812	-0.4935197205493685	0.1766523689226654	9.556053687589907	1.39951662094118	0.02336389148736843	0.7471811539356047	0.2918454935622318	0.1785714285714285	1.331065759637188
12345.73364257812	-0.7583708664486578	0.2601089611897392	9.510556032620881	1.384438216281629	1.472050616085846	0.7323927185964288	0.2875536480686695	0.1897321428571428	1.353741496598639
12365.26489257812	-0.6459798395978585	0.01656080849698869	9.495943143459316	1.388207817446517	1.109878934936226	0.7360898274312228	0.3111587982832618	0.1830357142857143	1.351473922902494
12384.79614257812	-0.5737952795063709	-0.06496911791200702	9.420344277167706	1.031221545460459	1.095113582549503	0.3693855252995415	0.2854077253218884	0.1897321428571428	1.353741496598639
12404.32739257812	-0.893196453798389	0.513982469588489	9.727808645145007	-0.7139725439721151	-0.02953070477344698	-0.7334086042633625	0.2896995708154507	0.1852678571428571	1.349206349206349
12423.85864257812	-0.2325837496562807	0.05283088800161333	9.993068843179088	1.032085716618486	-0.3714219010787372	0.0243559333431571	0.296137339055794	0.1964285714285714	1.333333333333333
12443.38989257812	-0.4115593029983659	0.135428724343115	9.523277238612105	0.6646548122957918	-0.7662076936448428	-0.6984692872492905	0.2725321888412017	0.1785714285714285	1.356009070294785
12462.92114257812	-0.6036359862768536	-0.004064650238241567	9.343190464420051	0.6391317752996032	0.3024585907742525	-1.069378641049233	0.2896995708154507	0.1875	1.344671201814059
12482.45239257812	-0.3698437362753635	-0.01650358283926657	9.43335321937308	1.356009749278579	1.43635309802632	0.01275666400530838	0.2854077253218884	0.1852678571428571	1.353741496598639
12501.98364257812	-0.8408706811754373	0.1902268886299362	9.597272199176384	1.009468109629158	1.801608185818979	0.002173280334393381	0.2854077253218884	0.1986607142857143	1.344671201814059
12521.51489257812	-0.6880873278643095	0.1482950146927845	9.625059317043185	0.6855440769690655	-0.00616681328607855	0.0137725496722421	0.2768240343347639	0.1986607142857143	1.344671201814059
12541.04614257812	-0.5743084138983086	0.1168541952500942	9.471657716361472	-0.02842846700304957	-0.03569751805952553	-0.7196360545911205	0.2854077253218884	0.1852678571428571	1.349206349206349
12560.57739257812	-0.524998820988597	0.106260089219987	9.642739241716837	-0.7139725439721151	-0.02953070477344698	-0.7334086042633625	0.2896995708154507	0.1986607142857143	1.353741496598639
12580.10864257812	-0.6679335891311163	0.06728539649737178	9.65050177025449	-0.003769601164887951	0.3621716811496193	-0.003697108834793953	0.2939914163090129	0.1763392857142857	1.36281179138322
12599.63989257812	-0.4511516246586657	0.1156226273576978	9.400876751580858	0.3314632349898689	1.083431636805819	-0.004205051668260811	0.3025751072961373	0.1897321428571428	1.326530612244898
12619.17114257812	-0.6574122726533927	-0.1247390085865974	9.618778285747432	-0.4109377759852957	1.018203413972846	-1.457249710522744	0.2896995708154507	0.1964285714285714	1.342403628117914
12638.70239257812	-0.525691754439127	-0.08565217336469966	9.712032586769837	0.6713298434675408	-0.02401557231584131	-0.3460454776233181	0.3025751072961373	0.1875	1.331065759637188
12658.23364257812	-0.8809640159428258	0.3320419633917515	9.524973022854011	-0.7499402133049405	0.6591151394662662	-1.460438876524071	0.2854077253218884	0.1875	1.331065759637188
12677.76489257812	-0.699782388758237	0.1080079248976834	9.774157243170631	-0.04264270050457435	-0.05354627708928829	-1.079454081886681	0.2854077253218884	0.1830357142857143	1.351473922902494
12697.29614257812	-0.626339235256603	0.1173745034636772	9.572699035864389	0.64957640763624	0.6824790309536346	-0.7132577225884663	0.2875536480686695	0.1964285714285714	1.344671201814059
