Time Stamp	Accelerometer X	Accelerometer Y	Accelerometer Z	Gyroscope X	Gyroscope Y	Gyroscope Z	Magnetometer X	Magnetometer Y	Magnetometer Z
1232.452392578125	-0.848790332898666	-9.708683813842732	0.185155738846204	30.00616739233883	7.969365086704975	-1.27813145409941	0.1716738197424893	-0.4040178571428571	0.7142857142857143
1251.983642578125	0.2470104699003787	-9.588328690557592	-2.252067398201132	3.038536044691333	0.2808747442729776	-1.021174717196385	0.184549356223176	-0.40625	0.7052154195011338
1271.514892578125	0.2179879498571982	-9.880967758286454	-2.411039883679006	-3.525491677039947	-3.027178214034427	-3.277648123342901	0.1781115879828326	-0.390625	0.7006802721088435
1291.046142578125	0.2581115878367091	-10.07328818658544	-2.341771028568864	-0.02465886583816162	-0.3978691992091449	-0.7159389457563266	0.1738197424892704	-0.421875	0.7188208616780045
1310.577392578125	0.2076686547936233	-9.688945373416626	-2.399518540586816	0.3068043691517073	0.6855624375966739	-0.7201439974245873	0.1695278969957082	-0.4084821428571428	0.7052154195011338
1330.108642578125	0.3362942049431311	-9.710433649120141	-1.996767433088623	0.6399959464576302	-1.164076892853988	-1.414408233005617	0.1630901287553648	-0.4241071428571428	0.7256235827664399
1349.639892578125	0.2894290711446185	-9.901884189701347	-2.412294869563899	-0.3712005054875823	-0.03261411141648625	-0.7265223294272415	0.1759656652360515	-0.4151785714285714	0.7006802721088435
1369.171142578125	0.5637065774569457	-9.530889591027096	-2.289025092633343	-1.43752554912284	-1.905617333354516	-2.167967718943876	0.1716738197424893	-0.4040178571428571	0.6870748299319728
1388.702392578125	0.0003534550170401455	-9.686872221418859	-2.076161828234627	-0.3854147389891071	-0.05046287044624902	-1.086340356722802	0.1716738197424893	-0.4084821428571428	0.7006802721088435
1408.233642578125	0.3072333008312624	-9.770749100685082	-2.151901511697671	-1.700823046611946	-4.004168977490142	-0.7133992315889922	0.167381974248927	-0.3839285714285714	0.7142857142857143
1427.764892578125	0.6024160655374157	-9.723195877827093	-2.078341247619121	-3.517952474710171	-3.751521576333666	-3.270253905673313	0.148068669527897	-0.4196428571428571	0.7029478458049887
1447.296142578125	0.1331709495101333	-9.455877164040556	-2.092605155094959	-2.216758400588857	0.1843357716804646	-4.003013058102683	0.1609442060085837	-0.4040178571428571	0.6961451247165533
1466.827392578125	0.2094262410967168	-9.587952848269554	-2.575277170896173	1.00279307845741	1.059416064489977	-0.350250529291579	0.1759656652360515	-0.3973214285714285	0.7052154195011338
1486.358642578125	0.2979665373354022	-9.649444311838002	-2.245633325376947	0.6675602423026528	0.3381561088337781	-0.3497425864581121	0.1566523605150215	-0.3995535714285714	0.7188208616780045
1505.889892578125	0.1559933911242305	-9.607620539971849	-2.334032989974069	-0.3883201689959681	-1.15482667292487	-1.43506705751398	0.1738197424892704	-0.40625	0.7006802721088435
1525.421142578125	0.2450347004700045	-9.830733175287531	-2.054490455163717	1.356009749278579	1.43635309802632	0.01275666400530838	0.1738197424892704	-0.3950892857142857	0.7097505668934241
1544.952392578125	0.1752925792755746	-9.779530703570535	-2.223135478577869	-0.03219806816793752	0.3264741630900938	-0.7233331634259144	0.1931330472103004	-0.390625	0.7120181405895691
1564.483642578125	0.4797239255503148	-9.822979057437324	-2.054025208092704	0.6742352734744016	1.080348230162779	0.002681223167860238	0.1566523605150215	-0.40625	0.7120181405895691
1584.014892578125	0.31021917733238	-9.52835471702585	-2.45048916180943	-2.188329933585807	0.2200332897399901	-3.283377003511562	0.1781115879828326	-0.421875	0.7097505668934241
1603.546142578125	0.03321640214318713	-9.565988729677999	-2.301232051053407	1.378627356267907	-0.7366769888713958	0.0349393170140721	0.1759656652360515	-0.4017857142857142	0.7142857142857143
1623.077392578125	0.186696729333128	-9.759442724869089	-2.343142321067903	0.6713298434675408	-0.02401557231584131	-0.3460454776233181	0.1738197424892704	-0.4084821428571428	0.7188208616780045
1642.608642578125	0.3390639185311096	-9.781168416963089	-2.273738791886473	0.6713298434675408	-0.02401557231584131	-0.3460454776233181	0.1587982832618026	-0.40625	0.7097505668934241
1662.139892578125	0.3597954385087679	-9.478345429132563	-2.306074463121691	0.2925901356501825	0.6677136785669111	-1.079962024720148	0.1738197424892704	-0.4174107142857142	0.7029478458049887
1681.671142578125	0.1517812446392303	-9.65808346901205	-1.912818341474056	0.3352328361547569	0.7212599556561994	-0.000507942833466858	0.1781115879828326	-0.4129464285714285	0.7165532879818595
1701.202392578125	0.3790259393793015	-9.872477128080662	-2.188308223644436	0.3323274061478959	-0.3831038468224214	-0.3492346436246452	0.1695278969957082	-0.3772321428571428	0.7210884353741497
1720.733642578125	0.02142033054218528	-9.606274809366029	-2.142033054218528	-0.6884495069759263	-1.098196989192542	-0.3624992504634205	0.1888412017167382	-0.3995535714285714	0.7006802721088435
1740.264892578125	0.2848936903969805	-9.750323684378719	-1.958756794800097	0.01507840465955181	-1.448686724598477	0.01478843533917581	0.1931330472103004	-0.40625	0.7120181405895691
1759.796142578125	0.5241950643623055	-9.853726799128472	-2.419506436230537	0.3456774684913937	1.101280395835581	0.3556129756272994	0.167381974248927	-0.4084821428571428	0.7052154195011338
1779.327392578125	0.3208879694424322	-9.629471505957053	-2.496960209549342	0.3427720384845327	-0.003083406643039275	0.006886274836121049	0.1566523605150215	-0.40625	0.6984126984126985
1798.858642578125	0.3132171751183466	-9.811212979831993	-2.750288940406081	-0.4109377759852957	1.018203413972846	-1.457249710522744	0.1759656652360515	-0.4040178571428571	0.6984126984126985
1818.389892578125	0.3594156382501684	-10.02379617658452	-2.268094437261738	0.3038989391448463	-0.4188013648819469	-1.068870698215766	0.1888412017167382	-0.4017857142857142	0.6848072562358277
1837.921142578125	0.3907432226287854	-9.700877129195986	-2.339628385327517	0.3607558731509455	-0.3474063287628959	0.3704014109664752	0.1630901287553648	-0.4129464285714285	0.6961451247165533
1857.452392578125	0.5707632266820194	-9.672374298933487	-1.974281851875404	0.2879563633272675	2.496420843344771	-0.7386295415985571	0.184549356223176	-0.4040178571428571	0.7165532879818595
1876.983642578125	0.002777711986824389	-9.686896463988557	-2.318587525213051	-0.06235487748704113	3.223847612287049	-0.752910034104266	0.1738197424892704	-0.4107142857142857	0.7052154195011338
1896.514892578125	0.4585580595322368	-9.570242146251889	-1.978254932815517	-1.801186852280646	-2.662574807070241	-2.887095830701529	0.1695278969957082	-0.390625	0.7029478458049887
1916.046142578125	0.69671599229348	-9.956462109417886	-2.3246604538378	0.6600210399728769	1.062499471133017	-0.3571368041277	0.1781115879828326	-0.4263392857142857	0.7278911564625851
1935.577392578125	0.121049623432352	-9.627473122496951	-1.900880710582141	1.648599884928762	2.104066776593231	-1.067205360714839	0.1716738197424893	-0.421875	0.7142857142857143
1955.108642578125	0.2266991544641496	-9.749741739019392	-2.26175218110884	-0.007539202329775903	0.7243433622992387	-0.007394217669587907	0.1824034334763948	-0.421875	0.6848072562358277
1974.639892578125	0.1968301646956862	-9.304998604677262	-2.336077694058414	0.02261760698932771	-2.173030086897716	0.02218265300876372	0.1566523605150215	-0.3950892857142857	0.7074829931972789
1994.171142578125	0.3195081631837967	-9.518346596783354	-2.35897958368579	0.6788690457973167	-0.7483589346150801	-0.3386512599537302	0.1824034334763948	-0.4129464285714285	0.7074829931972789
2013.702392578125	0.1136879218719138	-9.81931869740054	-2.185118717803629	0.2992651668219314	1.409905799895913	-0.7275382150941753	0.1888412017167382	-0.4107142857142857	0.7188208616780045
2033.233642578125	0.1559489464131178	-9.365195853100495	-2.329588518862798	0.3181131726463711	-0.4009526058521842	-0.7090526709202054	0.184549356223176	-0.40625	0.7006802721088435
2052.764892578125	0.4731824309313203	-9.529984349561841	-2.420283909458559	0.32478820381812	0.3412395154768173	-0.3566288612942332	0.1459227467811159	-0.4084821428571428	0.7029478458049887
2072.296142578125	0.1344962099869487	-9.476092436847345	-2.225131202776498	-0.03219806816793752	0.3264741630900938	-0.7233331634259144	0.167381974248927	-0.40625	0.7074829931972789
2091.827392578125	0.1634237799654792	-9.698603934769354	-2.056663710833636	0.01130880349466385	-1.086515043448858	0.01109132650438186	0.1738197424892704	-0.4040178571428571	0.7052154195011338
2111.358642578125	0.3072615838292433	-9.649537262302939	-2.154729811495752	0.3682950754807214	-1.071749691062134	0.3777956286360631	0.1759656652360515	-0.4129464285714285	0.7142857142857143
2130.889892578125	0.102730239139629	-9.405067706431801	-2.109758607840454	0.3143435714814832	-0.03878092470256481	-0.7127497797549994	0.1738197424892704	-0.4017857142857142	0.7006802721088435
2150.421142578125	0.2891118975244051	-9.709961826045953	-2.380577507542555	0.6411730341484372	2.873357876881113	-0.3756223483016697	0.1759656652360515	-0.40625	0.7120181405895691
2169.952392578125	0.1113323521829401	-9.597072919481429	-1.94956174890626	0.3068043691517073	0.6855624375966739	-0.7201439974245873	0.1759656652360515	-0.4040178571428571	0.6802721088435374
2189.483642578125	-0.1488783618333538	-9.503561721432174	-2.45910259217482	0.2934543068082095	-0.798821805061329	-1.424991616676532	0.1716738197424893	-0.40625	0.7052154195011338
2209.014892578125	0.6322830350917377	-9.491171315199404	-2.003813713255399	-0.4707001399982558	-0.1575554246248256	-3.245248520496163	0.1738197424892704	-0.4285714285714285	0.7052154195011338
2228.546142578125	0.4049413700728752	-9.620211029862347	-1.718626803205882	0.2737421298257428	2.478572084315008	-1.098447568894117	0.1609442060085837	-0.40625	0.7256235827664399
2248.077392578125	0.07219053827619194	-9.525974430635289	-2.117013011292663	0.6704656723095137	1.442519911312399	-0.001015885666933716	0.148068669527897	-0.4084821428571428	0.7074829931972789
2267.608642578125	-0.2531218238226766	-9.199488983781976	-2.238838025895606	-0.3674309043226944	-0.3947857925661056	-0.7228252205924476	0.1609442060085837	-0.4129464285714285	0.6825396825396826
2287.139892578125	0.5732258677204919	-9.904722157667106	-2.220545955722653	0.6637906411377649	0.7003277899833973	-0.353439695292906	0.1716738197424893	-0.4040178571428571	0.6848072562358277
2306.671142578125	0.5005140317380762	-9.954500089812333	-2.092219500338235	-0.3532166708211696	-0.3769370335363428	-0.3630071932968873	0.1630901287553648	-0.4017857142857142	0.6984126984126985
2326.202392578125	0.1300517388756775	-9.476047992136232	-1.780684091649386	0.6504405787942671	-0.7840564526746056	-1.058287314544851	0.1609442060085837	-0.4017857142857142	0.7120181405895691
2345.733642578125	0.3405225131412631	-9.518556740282929	-2.419598252901825	0.2963597368150704	0.3055419974172918	-1.076264915885354	0.1952789699570815	-0.4084821428571428	0.7006802721088435
2365.264892578125	0.09447762314279515	-9.627207402494056	-2.304905171422371	0.2850509333204066	1.39205704086615	-1.087356242389735	0.1802575107296137	-0.4107142857142857	0.7210884353741497
2384.796142578125	0.2586388637276371	-9.941980328031217	-2.394498617661671	-0.3607558731509455	0.3474063287628959	-0.3704014109664752	0.1866952789699571	-0.4017857142857142	0.6848072562358277
2404.327392578125	0.2649944986456148	-9.588508530845044	-2.009653946194137	0.3427720384845327	-0.003083406643039275	0.006886274836121049	0.1759656652360515	-0.4352678571428571	0.6916099773242631
2423.858642578125	0.3963877421689597	-9.509014382472197	-1.883672176079645	0.3427720384845327	-0.003083406643039275	0.006886274836121049	0.1695278969957082	-0.4084821428571428	0.7142857142857143
2443.389892578125	0.2059474323450765	-9.8505443228083	-2.227396295732134	0.260392067482245	0.9941878416570049	-1.803295188146062	0.1781115879828326	-0.3995535714285714	0.6961451247165533
2462.921142578125	-0.04915209866439574	-9.686377165882044	-2.227647276417569	-0.01044463233663683	-0.3800204401793821	-0.3561209184607663	0.1759656652360515	-0.3973214285714285	0.7120181405895691
2482.452392578125	0.2346527787680435	-9.365982891424045	-2.036706448232918	0.05567984631529226	-3.96603973361605	0.4004862244782937	0.1759656652360515	-0.4040178571428571	0.7006802721088435
2501.983642578125	0.5949513330557618	-9.743323250704295	-2.352276162719026	0.5993945048018898	1.353276116163585	-1.800106022144735	0.1866952789699571	-0.4040178571428571	0.6893424036281179
2521.514892578125	0.3816986826884886	-9.781594764604664	-2.455582554563149	0.9575578644787542	5.405476238285409	-0.3946158353091064	0.1652360515021459	-0.3950892857142857	0.7006802721088435
2541.046142578125	-0.2964111373618974	-9.62329851488901	-1.991539325034755	-0.01507840465955181	1.448686724598477	-0.01478843533917581	0.1781115879828326	-0.375	0.7142857142857143
2560.577392578125	-0.008808257343462833	-9.403952321466971	-2.180398755449635	-0.2699725286608548	-2.840743765464627	1.102144677728911	0.1609442060085837	-0.4107142857142857	0.6938775510204082
2580.108642578125	0.3873472426569459	-9.428115896668993	-2.000030388143574	-0.03306223932596454	1.793009646718334	-0.37830357146953	0.1781115879828326	-0.3950892857142857	0.7097505668934241
2599.639892578125	0.2665318816072864	-9.962261278412035	-2.163392242361288	0.3436362096425598	-1.469618890271279	-0.3381433171202634	0.1652360515021459	-0.4174107142857142	0.7142857142857143
2619.171142578125	0.5635490007539097	-9.773312257684308	-2.273267422329746	-1.026587773137544	-2.923820747327362	-0.710718008421132	0.1781115879828326	-0.4040178571428571	0.7029478458049887
2638.702392578125	0.3080514875585647	-9.619242131037204	-2.233720184427889	-0.05018190283435026	0.6707970852099504	-1.086848299556268	0.1759656652360515	-0.4151785714285714	0.6802721088435374
2658.233642578125	-0.1000859437438628	-9.493948635512057	-2.23630358479739	0.327693633824981	1.445603317955438	-0.007902160503054765	0.1609442060085837	-0.4196428571428571	0.7120181405895691
2677.764892578125	0.23611541380648	-9.446805598582511	-2.182969952076567	1.100251454119249	-1.386541908408544	1.47471936902978	0.1566523605150215	-0.40625	0.7052154195011338
2697.296142578125	0.3676702744611438	-9.973373672441584	-2.07314989509397	0.4251520094868205	-1.000354654943083	1.817067737818304	0.1609442060085837	-0.4263392857142857	0.7097505668934241
2716.827392578125	0.4122484846226332	-9.509172989896733	-2.449338258181683	0.6855440769690655	-0.00616681328607855	0.0137725496722421	0.1759656652360515	-0.4017857142857142	0.7097505668934241
2736.358642578125	0.11390004435677	-9.667805667110237	-2.206330966289241	0.2369102893348902	4.633753412182961	-1.480448249198441	0.1566523605150215	-0.3995535714285714	0.6961451247165533
2755.889892578125	0.1439730757535236	-9.779217508535314	-2.152409616168685	0.03015680931910361	-2.897373449196955	0.02957687067835163	0.1652360515021459	-0.4174107142857142	0.7029478458049887
2775.421142578125	0.3994261442377559	-9.690862948311068	-2.18751238295927	-0.7017995693194241	-2.582581231850545	-1.067346869715365	0.1802575107296137	-0.421875	0.6893424036281179
2794.952392578125	0.6217293951877502	-9.581974869709455	-1.968857886121961	-0.0539515039992382	1.03296876635957	-1.090545408391063	0.1523605150214592	-0.4017857142857142	0.7029478458049887
2814.483642578125	0.3990059396963266	-9.832272887679794	-2.145491928816343	0.6278229718049394	1.38897363422311	-1.080469967553614	0.167381974248927	-0.40625	0.7188208616780045
2834.014892578125	0.1558701580615998	-9.738932438954354	-2.321709683710999	-0.003769601164887951	0.3621716811496193	-0.003697108834793953	0.1738197424892704	-0.4084821428571428	0.7097505668934241
2853.546142578125	0.1254415689759445	-9.708325122760469	-2.340075264941386	0.3427720384845327	-0.003083406643039275	0.006886274836121049	0.1695278969957082	-0.4040178571428571	0.6984126984126985
2873.077392578125	0.2946513659292222	-9.679714190426971	-1.914116184758952	0.2708366998188818	1.374208281836387	-1.447174269685296	0.184549356223176	-0.4285714285714285	0.7029478458049887
2892.608642578125	0.2464508705831868	-10.00246450870583	-2.196107466481946	0.714836715130142	-1.437004778854793	0.3883790123069781	0.1695278969957082	-0.4151785714285714	0.7052154195011338
2912.139892578125	-0.2305579696186897	-9.593654016263411	-2.454407119763684	0.008403373487802925	-2.190878845927479	-0.3376353742867965	0.1716738197424893	-0.390625	0.7233560090702948
2931.671142578125	0.4216324205386997	-9.489064809053875	-2.367323686523031	-0.713108372814088	-1.496066188401687	-1.078438196219747	0.1738197424892704	-0.4084821428571428	0.7142857142857143
2951.202392578125	0.5417265651398485	-9.773094033328167	-2.131840187454236	0.3068043691517073	0.6855624375966739	-0.7201439974245873	0.1587982832618026	-0.3950892857142857	0.7052154195011338
2970.733642578125	0.2032282241106351	-9.527284807493633	-1.955475472288002	0.3427720384845327	-0.003083406643039275	0.006886274836121049	0.1759656652360515	-0.4241071428571428	0.7052154195011338
2990.264892578125	0.1935190337177892	-9.678702867104857	-2.004964596268716	0.02175343583130069	-0.7064946032694759	0.3672122449651481	0.1759656652360515	-0.421875	0.7142857142857143
3009.796142578125	0.5215203008389768	-9.772891970685158	-2.152030083897675	-0.02756429584502254	-1.502233001687766	-1.064665646547505	0.1824034334763948	-0.3995535714285714	0.6938775510204082
3029.327392578125	0.1658945018605177	-9.607719551079214	-2.30373590033748	-0.03306223932596454	1.793009646718334	-0.37830357146953	0.1888412017167382	-0.4017857142857142	0.7142857142857143
3048.858642578125	-0.06869775294100125	-9.777090800248368	-2.31389817528763	-0.02088926467327366	-0.7600408803587642	-0.7122418369215325	0.1437768240343348	-0.4040178571428571	0.6961451247165533
3068.389892578125	0.4320890901638958	-9.741694628275377	-2.392582485777331	-0.3343686649967298	-2.187795439284439	-0.3445216491229176	0.1630901287553648	-0.4196428571428571	0.6848072562358277
3087.921142578125	0.1955776319279643	-9.405996180359685	-2.210824417286228	0.9894430161139119	-0.4249681781680255	-1.055098148543524	0.1888412017167382	-0.4129464285714285	0.6916099773242631
3107.452392578125	0.3167142070261204	-9.912258051161174	-2.079583967918155	0.6344980029766882	2.131165755552112	-0.728046157927642	0.1909871244635193	-0.4196428571428571	0.7074829931972789
3126.983642578125	0.3399689744664958	-9.942793629138604	-2.364244385425084	1.006562679622298	0.6972443833403581	-0.346553420456785	0.1695278969957082	-0.40625	0.7188208616780045
3146.514892578125	0.3885250275014328	-9.53923878562855	-2.117808872592259	-0.01711966350838571	-1.122212561508384	-0.7085447280867386	0.1759656652360515	-0.4017857142857142	0.7052154195011338
3166.046142578125	0.5134454636865937	-9.954629404131817	-2.364954531924677	-0.06439613633587504	0.6529483261801876	-1.446666326851829	0.1630901287553648	-0.4174107142857142	0.7052154195011338
3185.577392578125	-0.06979270900568713	-9.635665709273582	-2.204402568819041	0.6780048746392896	0.7181765490131601	0.006378332002654191	0.1695278969957082	-0.4084821428571428	0.7165532879818595
3205.108642578125	0.2182687596228649	-10.01228369769724	-2.439120860245673	0.01130880349466385	-1.086515043448858	0.01109132650438186	0.1738197424892704	-0.4107142857142857	0.6984126984126985
3224.639892578125	0.360932819070425	-9.690478015059393	-2.419812519287402	-0.6988941393125633	-1.478217429371924	-0.7186201689241868	0.184549356223176	-0.4174107142857142	0.7006802721088435
3244.171142578125	0.501231207758304	-9.802992110057383	-2.163937102361019	-0.3532166708211696	-0.3769370335363428	-0.3630071932968873	0.1824034334763948	-0.3861607142857142	0.7006802721088435
3263.702392578125	0.4490933150505108	-9.792369721029296	-2.052188647908222	1.052110810133733	1.855154462908267	1.081627362221074	0.1738197424892704	-0.4107142857142857	0.7029478458049887
3283.233642578125	0.5128838441552603	-9.691997525310242	-2.308792578791342	2.401445528240563	2.549315439605586	0.7419602166004101	0.1609442060085837	-0.4084821428571428	0.6984126984126985
3302.764892578125	0.275509754480914	-9.770431865221578	-2.040771366458749	0.3393153538524247	5.863058527869921	1.387004642661659	0.1587982832618026	-0.4084821428571428	0.7052154195011338
3322.296142578125	-0.1627269710021063	-9.826655558572808	-2.094649838564874	-0.009267544645829948	3.657414329555719	0.682664966243181	0.1716738197424893	-0.4129464285714285	0.7006802721088435
3341.827392578125	0.0999948691920558	-9.72827267596465	-1.836221613083132	1.104021055284137	-1.748713589558164	1.478416477864574	0.1695278969957082	-0.4017857142857142	0.7097505668934241
3361.358642578125	0.684267391524778	-9.582600249672826	-2.100208540232895	0.03973727049771342	-1.050817525389332	0.7307273810955023	0.1695278969957082	-0.4352678571428571	0.7142857142857143
3380.889892578125	0.3992887696761348	-9.630255513959389	-2.173774926797159	-0.04350687166260137	1.412989206538952	-0.7344244899302963	0.184549356223176	-0.4129464285714285	0.6984126984126985
3400.421142578125	-0.01659824430189623	-9.555389573112537	-2.421808222871601	-1.416636284449566	-1.145576452995752	-1.455725882022343	0.1759656652360515	-0.4129464285714285	0.7029478458049887
3419.952392578125	0.3014857503698723	-9.790893645382489	-2.59755462882396	0.3494470696562816	0.7391087146859622	0.3593100844620934	0.1738197424892704	-0.4129464285714285	0.6916099773242631
3439.483642578125	0.0001049686776372603	-9.27272832241405	-2.051313194294338	-0.03306223932596454	1.793009646718334	-0.37830357146953	0.1738197424892704	-0.4174107142857142	0.7142857142857143
3459.014892578125	0.7245809296335886	-9.754720556771085	-2.04992969805273	0.3068043691517073	0.6855624375966739	-0.7201439974245873	0.1652360515021459	-0.3995535714285714	0.7142857142857143
3478.546142578125	0.3360214760340304	-9.760935972336098	-1.96949454217855	-0.7386314098102766	-0.4273999039825919	-1.449347550019689	0.1459227467811159	-0.4196428571428571	0.7097505668934241
3498.077392578125	0.2987867442768458	-9.669654534109437	-2.327654019521314	0.6713298434675408	-0.02401557231584131	-0.3460454776233181	0.1759656652360515	-0.4151785714285714	0.7029478458049887
3517.608642578125	0.06953799710841968	-9.313826693102397	-1.851758894515437	-0.02088926467327366	-0.7600408803587642	-0.7122418369215325	0.167381974248927	-0.3950892857142857	0.7188208616780045
3537.139892578125	0.1547408583565086	-9.708618115654275	-2.208779713201883	-0.03423932701677142	-2.244425123016767	-1.417089456173477	0.1781115879828326	-0.4308035714285714	0.7029478458049887
3556.671142578125	0.1742097444957376	-9.658307754010616	-2.114852000594173	-0.7377672386522496	-1.893935387610832	-1.794377141976073	0.1716738197424893	-0.421875	0.6870748299319728
3576.202392578125	0.3894038206529795	-9.488742523055016	-2.205688187746937	0.656251438807989	1.424671152282636	-0.360833912962494	0.167381974248927	-0.4196428571428571	0.7074829931972789
3595.733642578125	0.3995271549448303	-9.690863958418138	-2.197613453666705	0.6420372053064641	1.406822393252873	-0.7206519402580541	0.167381974248927	-0.4084821428571428	0.6961451247165533
3615.264892578125	-0.09303535516121363	-9.625332272711017	-1.920954279797005	0.2859151044784336	-0.07447844276209033	-1.43238583434612	0.1630901287553648	-0.4129464285714285	0.6984126984126985
3634.796142578125	0.1531832732534222	-9.637895469096172	-2.053021202893245	0.001728342316054045	-2.93307096725648	-0.6900591839127689	0.1630901287553648	-0.4174107142857142	0.6938775510204082
3654.327392578125	0.5309991868196932	-9.742683729241936	-2.079510518704011	1.032085716618486	-0.3714219010787372	0.0243559333431571	0.1695278969957082	-0.4107142857142857	0.7165532879818595
3673.858642578125	0.3778259321792583	-9.387616643160177	-2.068307503640116	0.3143435714814832	-0.03878092470256481	-0.7127497797549994	0.1630901287553648	-0.4107142857142857	0.7097505668934241
3693.389892578125	0.03409519529473393	-9.515492467104464	-2.389111366208086	-0.4213824083219326	0.6381829737934641	-1.81337062898351	0.167381974248927	-0.4174107142857142	0.6961451247165533
3712.921142578125	-0.2526187905014464	-9.532827347448521	-2.289141358018629	-0.00667503117174888	-0.7421921213290015	-0.3524238096259723	0.1459227467811159	-0.4151785714285714	0.7052154195011338
3732.452392578125	0.7248071936174351	-9.795126859814964	-2.072556096437383	0.01798383466641273	-0.3443229221198566	0.3635151361303542	0.1952789699570815	-0.40625	0.7074829931972789
3751.983642578125	0.3299729136655587	-9.952794678631607	-2.385046468596685	0.328557804983008	-0.02093216567280204	-0.3529317524594392	0.1545064377682404	-0.4084821428571428	0.7120181405895691
3771.514892578125	0.1619187204300715	-9.547073732658848	-1.906157757292864	0.2888205344852945	1.029885359716531	-1.083659133554941	0.1609442060085837	-0.4040178571428571	0.6780045351473923
3791.046142578125	0.1044110573053461	-9.849528959057903	-2.277840424412161	-0.01421423350152478	-0.01784875902976276	-0.3598180272955602	0.1695278969957082	-0.4263392857142857	0.7120181405895691
3810.577392578125	0.2067777403572275	-9.719239494575291	-2.310427096947245	0.01884800582443976	-1.810858405748097	0.01848554417396977	0.1888412017167382	-0.40625	0.7006802721088435
3830.108642578125	0.4534771797375373	-9.691403458666064	-2.490575116610873	0.325652374976147	-1.125295968151423	-0.7016584532506176	0.1738197424892704	-0.4174107142857142	0.7052154195011338
3849.639892578125	0.1687652261555705	-9.678455329029235	-2.590808329842765	-0.4138432059921567	-0.08616038850577454	-1.805976411313922	0.1738197424892704	-0.421875	0.7029478458049887
3869.171142578125	-0.2227659624461148	-9.613933956537156	-2.213199673755866	0.6600210399728769	1.062499471133017	-0.3571368041277	0.1824034334763948	-0.3883928571428571	0.7097505668934241
3888.702392578125	0.2270345100116365	-9.466916809746584	-2.295287735857523	-0.6374034329835492	-3.235529558030733	0.3793194571364637	0.1738197424892704	-0.4040178571428571	0.6984126984126985
3908.233642578125	0.6256728531919326	-9.925448647723838	-2.363203686540198	0.3427720384845327	-0.003083406643039275	0.006886274836121049	0.1566523605150215	-0.4040178571428571	0.7097505668934241
3927.764892578125	0.3377689612664165	-9.811458497693474	-2.144243065417164	1.003657249615437	-0.4071194191382627	-0.6952801212479633	0.1781115879828326	-0.4129464285714285	0.6825396825396826
3947.296142578125	0.3379265379694525	-9.569035831036262	-2.160000735720762	-0.3448132973333667	-2.567815879463821	-0.7006425675836838	0.148068669527897	-0.421875	0.7074829931972789
3966.827392578125	0.4022706057489695	-9.549477251512037	-2.471958534080621	1.37776318510988	0.7298584947568444	0.3799689089704565	0.167381974248927	-0.4040178571428571	0.6938775510204082
3986.358642578125	0.1431811518100607	-9.637795447881739	-2.073217221822399	1.367318552773243	0.3498380545774623	0.02384799050969024	0.1738197424892704	-0.4040178571428571	0.6984126984126985
4005.889892578125	0.2545943950163804	-9.598505539909763	-1.990051746536	-0.3778755366593312	-0.7748062327454877	-1.078946139053214	0.1437768240343348	-0.4196428571428571	0.7052154195011338
4025.421142578125	0.2464852142235921	-9.891353741031127	-2.199541830522474	0.6675602423026528	0.3381561088337781	-0.3497425864581121	0.1609442060085837	-0.40625	0.7052154195011338
4044.952392578125	0.1041585305376602	-9.597001181264975	-2.252587747643576	-0.7102029428072271	-0.3917023859230663	-0.7297114954285686	0.1716738197424893	-0.4174107142857142	0.7029478458049887
4064.483642578125	0.2476165341428247	-9.588334751200016	-2.312673822445738	0.02929263816107659	-1.430837965568715	0.374606462634736	0.1652360515021459	-0.4107142857142857	0.673469387755102
4084.014892578125	0.1866947091189865	-9.587725532949776	-2.342940299653755	-0.6403088629904101	-4.339893360509353	0.03059275634528534	0.1716738197424893	-0.4174107142857142	0.7142857142857143
4103.546142578125	0.6341133491039248	-9.511391638541546	-2.186845114474109	-0.7206475751438639	-0.7717228261024484	-1.085832413889335	0.1781115879828326	-0.40625	0.6870748299319728
4123.077392578125	0.1231425652829324	-9.748706173127578	-2.11017489564018	-1.128679921122299	1.350844390349019	-2.1943554236209	0.1459227467811159	-0.4040178571428571	0.7074829931972789
4142.608642578125	-0.08820704336306	-9.423360353808794	-2.403785459612366	-0.3636613031578064	-0.7569574737157249	-0.7191281117576536	0.1566523605150215	-0.40625	0.7074829931972789
4162.139892578125	0.2493074533792493	-9.881280953321674	-2.48176574608819	-0.1003638056687005	1.341594170419901	-2.173696599112537	0.1759656652360515	-0.3973214285714285	0.7006802721088435
4181.671142578125	0.08399873116204271	-10.01094099741263	-2.277424136612435	-0.4385020718303183	-0.4840295877149194	-2.521915357070249	0.1759656652360515	-0.4129464285714285	0.7052154195011338
4201.202392578125	0.0945160072114834	-9.859531018657975	-2.308743578291196	0.7043920827935053	-1.817025219034175	0.03225809384621187	0.1866952789699571	-0.4151785714285714	0.7210884353741497
4220.733642578125	0.3446357103621904	-9.468092821750089	-1.810509811729248	0.6939474504568685	-2.197045659213557	-0.3238628246145544	0.1738197424892704	-0.4174107142857142	0.7074829931972789
4240.264892578125	0.6221374784443305	-9.925413293976364	-2.009666211779996	-0.02552303699618864	1.068666284419095	-0.3709093537999421	0.1824034334763948	-0.4241071428571428	0.6916099773242631
4259.796142578125	-0.434293349936558	-9.834040904884475	-2.489032353282968	0.6278229718049394	1.38897363422311	-1.080469967553614	0.1652360515021459	-0.3950892857142857	0.6961451247165533
4279.327392578125	0.2799986703032978	-9.50785049175354	-2.489662948697132	0.004633772322914974	-1.828707164777859	-0.3413324831215905	0.1587982832618026	-0.4285714285714285	0.7052154195011338
4298.858642578125	0.5537185975125746	-9.722708903146845	-2.310635261461538	0.02842846700304957	0.03569751805952553	0.7196360545911205	0.1759656652360515	-0.4151785714285714	0.7052154195011338
4318.389892578125	-0.3140497094889393	-9.693829199874809	-2.268498438861176	0.2821455033135457	0.287693238387529	-1.436082943180914	0.1759656652360515	-0.4196428571428571	0.7097505668934241
4337.921142578125	0.2772713812122906	-9.507823218862629	-2.216934039596405	0.3540808419791966	-1.089598450091897	0.01797760134050291	0.1523605150214592	-0.4084821428571428	0.6893424036281179
4357.452392578125	-0.03061857167267514	-9.423936238525698	-2.040183649059017	0.260392067482245	0.9941878416570049	-1.803295188146062	0.1716738197424893	-0.4129464285714285	0.7029478458049887
4376.983642578125	0.1530317571928107	-9.385368701410313	-2.037869596832094	0.2879563633272675	2.496420843344771	-0.7386295415985571	0.1781115879828326	-0.4174107142857142	0.6802721088435374
4396.514892578125	-0.01646895059684107	-9.434178744837467	-2.434737593377117	-0.397587713641798	2.502587656630849	-0.7524020912707992	0.1716738197424893	-0.4040178571428571	0.7074829931972789
4416.046142578125	0.2258264219550273	-9.81033907230036	-2.174478930196607	-0.3862789101471341	1.416072613181991	-0.7413107647664173	0.1459227467811159	-0.4151785714285714	0.6961451247165533
4435.577392578125	0.3599004896441252	-9.316730318027755	-2.316579576657423	-0.4088965171364619	3.589102700079708	-0.7634934177751811	0.1716738197424893	-0.4196428571428571	0.7029478458049887
4455.108642578125	0.2770269353011707	-9.437113703696449	-2.192489448484413	0.2610179005478047	12.00212834838369	0.9643357651746013	0.1695278969957082	-0.4107142857142857	0.6916099773242631
4474.639892578125	-0.3639815283542289	-9.824643012999287	-2.377357368658745	0.582587757826284	5.735033808018542	-1.124835273571142	0.1738197424892704	-0.4040178571428571	0.6984126984126985
4494.171142578125	0.4352527867383242	-9.792231315746172	-1.688543979954871	0.02725137931224269	-4.001737251675576	-0.3191498301128267	0.167381974248927	-0.4196428571428571	0.7120181405895691
4513.702392578125	0.2163293540470375	-9.305193596570776	-2.245180302662934	0.6797332169553436	-2.21489441824332	-0.6836808519101146	0.1695278969957082	-0.421875	0.7029478458049887
4533.233642578125	0.1673672379696616	-9.537027207733233	-2.451009511251873	0.3474058108074477	-1.831790571420899	-0.3344462082854694	0.1630901287553648	-0.4151785714285714	0.7029478458049887
4552.764892578125	0.5443023381702442	-10.02564504358372	-2.389417490493812	0.323924032660093	1.807774999105058	-0.01159926933784872	0.167381974248927	-0.4040178571428571	0.6961451247165533
4572.296142578125	0.17562591460892	-9.830039087428919	-2.256469011912402	-0.7064333416423392	-0.7538740670726856	-0.7260143865937746	0.184549356223176	-0.4107142857142857	0.6984126984126985
4591.827392578125	0.7348557799860508	-9.704318254769559	-2.057006570033648	-0.3900485113120221	1.77824429433161	-0.7450078736012112	0.1630901287553648	-0.4151785714285714	0.7052154195011338
4611.358642578125	0.5419992940489492	-9.722591710112207	-2.159113078364308	-1.072687158274227	2.88877491009631	-0.410053722482275	0.1587982832618026	-0.4129464285714285	0.7097505668934241
4630.889892578125	0.0565398568643731	-9.37430277230602	-2.592761196641392	-1.458966068421361	4.3048475232783	-1.151364487248692	0.1587982832618026	-0.3973214285714285	0.7074829931972789
4650.421142578125	0.05300650233091257	-9.545984610477856	-2.239425743295338	-0.07075825097484406	5.414726458214528	-0.4152746598174695	0.1609442060085837	-0.4285714285714285	0.7052154195011338
4669.952392578125	-0.1213305981134588	-9.614948310180482	-2.152654474368405	1.010332280787186	0.3350727021907388	-0.342856311621991	0.1587982832618026	-0.4040178571428571	0.7029478458049887
4689.483642578125	0.2166061233844212	-9.598125657193442	-2.272857236401304	1.113288599929967	-5.406127919113882	0.7957515116213929	0.1781115879828326	-0.4129464285714285	0.7074829931972789
4709.014892578125	0.4687945258160108	-9.792566733136951	-1.981493397927611	-0.317561918021124	-6.569553131139397	-1.019792397696511	0.1716738197424893	-0.3995535714285714	0.7097505668934241
4728.546142578125	0.4795077626371757	-9.631057703888999	-2.032408916778795	0.6759636157904557	-1.852722737093701	-0.6873779607449086	0.1738197424892704	-0.3883928571428571	0.7074829931972789
4748.077392578125	0.4401013006778928	-9.792279800885568	-2.17339537391172	0.7281867774736398	0.04737946380320975	1.093226631558923	0.1716738197424893	-0.4017857142857142	0.7120181405895691
4767.608642578125	0.7423993008192228	-9.310454296038497	-1.790950490085542	-0.3636613031578064	-0.7569574737157249	-0.7191281117576536	0.1781115879828326	-0.4017857142857142	0.6984126984126985
4787.139892578125	0.3391326058119202	-9.558946881613675	-2.280607519967528	1.017007311958934	1.07726482351974	0.009567498003981286	0.167381974248927	-0.40625	0.7052154195011338
4806.671142578125	-0.05999866961889876	-9.625662639566439	-2.163398344232572	-1.047477037810818	-3.683861627686127	-1.422959845342665	0.1502145922746781	-0.4084821428571428	0.6916099773242631
4826.202392578125	-0.1105143303710781	-9.625157482958917	-2.213873085341171	-1.735926544786744	-4.782058616878669	-1.785459095806085	0.1630901287553648	-0.3883928571428571	0.7029478458049887
4845.733642578125	0.1377689568961574	-9.880165568356842	-2.55240589369737	-1.830479490441723	-1.231736841501526	-3.261702293336266	0.1952789699570815	-0.4107142857142857	0.7006802721088435
4865.264892578125	0.3615692277538534	-9.569272257934106	-1.463045224364935	0.9856734149490239	-0.06279649701840612	-1.058795257378317	0.1824034334763948	-0.4040178571428571	0.7052154195011338
4884.796142578125	0.3503125120997685	-9.670169791787666	-2.378189985487058	0.3181131726463711	-0.4009526058521842	-0.7090526709202054	0.1630901287553648	-0.4151785714285714	0.7097505668934241
4904.327392578125	0.137356833211294	-9.69834326530181	-2.511193525211038	-1.117371117627635	0.2643293469001606	-2.183264097116518	0.1759656652360515	-0.4017857142857142	0.7120181405895691
4923.858642578125	0.1552378310353144	-10.03185540861339	-2.25847698108246	-0.3627971319997794	-2.223492957343965	-1.064157703714038	0.1738197424892704	-0.40625	0.6870748299319728
4943.389892578125	-0.08944341441764997	-9.382943949694209	-2.28014835415337	-0.005810860013721858	-2.208727604957241	-0.6974534015823567	0.1802575107296137	-0.4040178571428571	0.6870748299319728
4962.921142578125	0.2231759010013965	-9.769908526686784	-1.90942683483353	0.3833734801402732	-2.520436415660612	0.3925840639752389	0.1759656652360515	-0.4107142857142857	0.7052154195011338
4982.452392578125	0.5923169738152628	-9.561478725293709	-2.088840238669138	0.3218827738112591	-0.7631242870018035	-0.7053555620854115	0.1781115879828326	-0.3950892857142857	0.6938775510204082
5001.983642578125	0.2156788450934787	-9.567813354107503	-2.180129407307057	0.3172490014883441	1.065582877776056	-0.364023078963821	0.1781115879828326	-0.4107142857142857	0.7097505668934241
5021.514892578125	0.2664571336840513	-9.669331238003508	-2.155917450037787	0.2717008709769088	-0.09232720179185309	-1.79220386164168	0.1695278969957082	-0.3995535714285714	0.6780045351473923
5041.046142578125	0.3078999714979531	-9.87176586840185	-2.218568578366737	-0.02670012468699552	-2.968768485316006	-1.409695238503889	0.1459227467811159	-0.4107142857142857	0.7097505668934241
5060.577392578125	0.2269173375914302	-9.608329779436522	-2.283570493836899	0.259527896324218	2.460723325285245	-1.458265596189678	0.1759656652360515	-0.4330357142857142	0.6984126984126985
5080.108642578125	-0.1907414041886849	-9.44253703040256	-2.354431009702942	-0.03800892818165938	-1.882253441867148	-1.420786565008271	0.1695278969957082	-0.4084821428571428	0.6938775510204082
5099.639892578125	0.2689904822174758	-9.851174753307026	-2.40925230338024	0.7052562539515324	-3.283560702662415	-0.3127714981101726	0.1695278969957082	-0.3973214285714285	0.6984126984126985
5119.171142578125	0.3132677217007437	-9.386971061055393	-1.734935435380495	-2.107991221432354	-3.348137244666915	-2.166951833276942	0.1802575107296137	-0.4196428571428571	0.7029478458049887
5138.702392578125	-0.06701895498942567	-9.544784355904651	-2.481777970445188	0.9990234772925217	1.421587745639597	-0.3539476381263729	0.1716738197424893	-0.3950892857142857	0.6893424036281179
5158.233642578125	-0.1477914866252339	-9.463168549780214	-2.567790112986813	0.725281347466779	-1.056984338675411	0.7444999307677445	0.1759656652360515	-0.4084821428571428	0.7029478458049887
5177.764892578125	0.6053049717597418	-9.824234867899419	-2.367231869851743	-0.0777461986793728	-0.8314359164778152	-2.151513946103774	0.1995708154506438	-0.40625	0.7074829931972789
5197.296142578125	0.4421215148193796	-9.792300003026982	-2.375416788060407	-0.06526030749390206	2.119483809808428	-1.101636734895444	0.167381974248927	-0.4107142857142857	0.7074829931972789
5216.827392578125	0.05367115278346175	-9.47528418627531	-2.305890788550256	1.013237710794046	1.43943650466936	0.005870389169187333	0.1566523605150215	-0.4196428571428571	0.7097505668934241
5236.358642578125	0.3100211963465143	-9.871787080650334	-2.430691063222859	0.6893136781339535	-0.3683384944356979	0.01746965850703605	0.1781115879828326	-0.4151785714285714	0.7097505668934241
5255.889892578125	0.06477429093393361	-9.626910369171968	-2.395796440332136	-0.3561221008280305	-1.481300836014964	-0.7117338940880656	0.1738197424892704	-0.3995535714285714	0.6961451247165533
5275.421142578125	0.1234334761193065	-9.728507062033923	-2.139265979277591	-1.717942710120332	-5.126381538998525	-1.421943959675731	0.1802575107296137	-0.4174107142857142	0.7006802721088435
5294.952392578125	0.3376416877755029	-9.599336012837353	-2.131515716325797	0.3465416396494207	-0.3652550877926586	0.010583383670915	0.184549356223176	-0.4263392857142857	0.7074829931972789
5314.483642578125	0.1628338774361651	-9.557183894329919	-1.99767345790222	1.009468109629158	1.801608185818979	0.002173280334393381	0.1630901287553648	-0.4174107142857142	0.7097505668934241
5334.014892578125	0.1673510762565297	-9.678441187530245	-2.449393339938684	1.014101881952074	-0.02709897895888059	-0.3391592027871971	0.1652360515021459	-0.4285714285714285	0.7029478458049887
5353.546142578125	0.1410154822503868	-9.395349548761899	-1.856650265855007	-0.6913549369827874	-2.202560791671163	-0.7112259512545989	0.1824034334763948	-0.40625	0.6984126984126985
5373.077392578125	0.2967018832828314	-9.730239746105559	-2.119167920119869	-0.01044463233663683	-0.3800204401793821	-0.3561209184607663	0.167381974248927	-0.4196428571428571	0.6984126984126985
5392.608642578125	0.2255415717610777	-9.840639254101452	-2.145993910801643	-0.04264270050457435	-0.05354627708928829	-1.079454081886681	0.1802575107296137	-0.4107142857142857	0.7097505668934241
5412.139892578125	-0.09102322187629271	-9.443534212225686	-2.122167608289097	1.061378354779563	-1.802259866647452	0.3989623959778931	0.1695278969957082	-0.4129464285714285	0.7006802721088435
5431.671142578125	0.2373255220772306	-9.78015103299855	-2.30398077915163	1.414595025600732	-1.425322833111109	0.7619695892747804	0.167381974248927	-0.4107142857142857	0.6848072562358277
5451.202392578125	0.4415841378577441	-9.570072407035145	-2.321679091896856	1.352240148113691	1.79852477917594	0.009059555170514429	0.1630901287553648	-0.4263392857142857	0.7006802721088435
5470.733642578125	0.3189687660080197	-9.629452313922709	-2.30503986610809	0.3314632349898689	1.083431636805819	-0.004205051668260811	0.1802575107296137	-0.4151785714285714	0.6961451247165533
5490.264892578125	0.4087898780124077	-9.468734363426591	-2.103477597159131	-0.06816573750076299	1.015120007329807	-1.450363435686623	0.1738197424892704	-0.3973214285714285	0.6870748299319728
5509.796142578125	0.1129343819971392	-9.910220252910884	-2.109764730326168	0.656251438807989	1.424671152282636	-0.360833912962494	0.1716738197424893	-0.4151785714285714	0.7052154195011338
5529.327392578125	0.06307933126922613	-9.49558028826219	-2.226300473861388	1.028316115453598	-0.009250219929117825	0.02065882450836315	0.1909871244635193	-0.4107142857142857	0.6984126984126985
5548.858642578125	-0.1503733202980541	-9.705566973867729	-2.309606745704791	0.2812813321555186	1.754228722015769	-1.09105335122453	0.1437768240343348	-0.4196428571428571	0.7029478458049887
5568.389892578125	0.2275900689005453	-9.719447617860723	-2.350843624748411	-0.2946313944990164	-3.238612964673772	0.3862057319725847	0.1716738197424893	-0.4084821428571428	0.7006802721088435
5587.921142578125	0.442206363813322	-9.428664487880559	-2.383901687454652	-2.803115759580029	-5.188526355188459	-2.881874893366335	0.1716738197424893	-0.4017857142857142	0.6961451247165533
5607.452392578125	0.1169788507083959	-9.748644535981834	-2.514211601451839	0.2157081081288367	-1.630257721539144	-3.576505562780306	0.1695278969957082	-0.4107142857142857	0.6825396825396826
5626.983642578125	0.478841091970485	-9.530040936172233	-1.965741850109728	0.328557804983008	-0.02093216567280204	-0.3529317524594392	0.1630901287553648	-0.4196428571428571	0.6984126984126985
5646.514892578125	0.4607116078070618	-9.792485903956861	-2.193609760298018	1.056744582456648	0.0264472981304077	0.7402948790994835	0.1738197424892704	-0.4196428571428571	0.6984126984126985
5666.046142578125	-0.2916393915597054	-9.663750272751072	-2.468713905253953	1.039624918948262	-1.095765263377976	0.031750151012745	0.1759656652360515	-0.4241071428571428	0.7006802721088435
5685.577392578125	0.2902735206557601	-9.457448189752013	-2.49673982067805	1.067189214793285	0.4064677383097898	1.09641579756025	0.1738197424892704	-0.4084821428571428	0.6938775510204082
5705.108642578125	0.2563176376790687	-10.1136742874879	-2.16237601280483	0.3465416396494207	-0.3652550877926586	0.010583383670915	0.1630901287553648	-0.4084821428571428	0.7029478458049887
5724.639892578125	-0.107991082908361	-9.453465543716373	-2.466197831612882	-0.656251438807989	-1.424671152282636	0.360833912962494	0.167381974248927	-0.421875	0.7006802721088435
5744.171142578125	0.2545115662365794	-9.628807741924993	-1.981768868555904	0.7290509486316669	-1.41915601982503	0.7481970396025384	0.1759656652360515	-0.4040178571428571	0.6780045351473923
5763.702392578125	0.6191536221573545	-9.329423859453899	-1.711280583082385	0.3532166708211696	0.3769370335363428	0.3630071932968873	0.1738197424892704	-0.4084821428571428	0.6825396825396826
5783.233642578125	0.2169536002167569	-9.840553374386008	-2.307604919634878	0.2908617933341284	3.600784645823391	-0.3899028408073787	0.1759656652360515	-0.4196428571428571	0.7097505668934241
5802.764892578125	0.1791956329969272	-9.718963673501689	-2.613440850713132	0.9810396426261089	1.765910667759453	-0.7174627742567271	0.1738197424892704	-0.4151785714285714	0.7074829931972789
5822.296142578125	0.08284316867311223	-9.768505199363499	-2.161867887719386	-0.327693633824981	-1.445603317955438	0.007902160503054765	0.167381974248927	-0.4017857142857142	0.6870748299319728
5841.827392578125	0.3094353342454831	-9.568750918999022	-2.37210485311974	0.0832441421603148	-2.463806731928284	1.465151871025799	0.1781115879828326	-0.4241071428571428	0.7074829931972789
5861.358642578125	0.1154495486032904	-9.556710051041589	-2.361281390941284	-0.3825093089822462	1.053900932032372	-0.7376136559316233	0.1652360515021459	-0.4196428571428571	0.7052154195011338
5880.889892578125	0.1321264987989846	-9.566977830644557	-1.988160083980088	-0.7554381567858826	3.954357787872366	-0.774076801446096	0.1630901287553648	-0.4285714285714285	0.6802721088435374
5900.421142578125	-0.05244504771501933	-9.585334135381437	-1.89835237135521	0.647848065320186	3.615549998210115	-0.02319853867569743	0.1695278969957082	-0.4084821428571428	0.6961451247165533
5919.952392578125	-0.02909735042413553	-9.939102965889699	-2.192305773912978	1.089806821782612	-1.766562348587926	1.118598450569014	0.1781115879828326	-0.4241071428571428	0.6984126984126985
5939.483642578125	0.4716511086120732	-9.671383177752789	-2.267151677533854	0.03306223932596454	-1.793009646718334	0.37830357146953	0.1888412017167382	-0.40625	0.6916099773242631
5959.014892578125	0.4019635331994634	-9.711090342402704	-2.441251279130021	-0.01421423350152478	-0.01784875902976276	-0.3598180272955602	0.2017167381974249	-0.4241071428571428	0.7029478458049887
5978.546142578125	0.1855108636320752	-9.466501573282788	-2.224555750962624	-0.7386314098102766	-0.4273999039825919	-1.449347550019689	0.1781115879828326	-0.4107142857142857	0.6893424036281179
5998.077392578125	0.2999241248385029	-9.881787120036266	-2.441392075687025	0.9839450726329699	2.870274470238074	-0.3687360734655487	0.1759656652360515	-0.40625	0.6961451247165533
6017.608642578125	0.03496994801799774	-9.626612325742807	-2.476586638534468	0.3134794003234562	1.427754558925675	-0.367720187798615	0.167381974248927	-0.4040178571428571	0.6961451247165533
6037.139892578125	0.03891142703689865	-9.626651740532997	-1.850326377159253	-0.4184769783150716	1.742546776272085	-1.464643928192332	0.1824034334763948	-0.4129464285714285	0.7052154195011338
6056.671142578125	0.06278640021871054	-9.849112712487038	-2.197007368809829	-1.465954016125889	-1.941314851414042	-2.887603773534996	0.1802575107296137	-0.3950892857142857	0.6916099773242631
6076.202392578125	0.1567731937828444	-9.728840459210558	-2.412013255835462	0.7035279116354782	-0.3504897354059351	0.3772876858025963	0.1824034334763948	-0.4285714285714285	0.6984126984126985
6095.733642578125	0.3510478700472698	-9.54896502415502	-2.45172578023718	1.050069551284899	-0.7157448231985937	0.3878710694735113	0.1695278969957082	-0.4263392857142857	0.6961451247165533
6115.264892578125	0.7256476027002937	-10.01735748612801	-2.156597004723237	0.2746063009837698	1.012036600686768	-1.443477160850502	0.167381974248927	-0.40625	0.7029478458049887
6134.796142578125	-0.1110173636923083	-9.796869624342877	-2.163569753218149	0.7110671139652541	-1.074833097705174	0.3846819034721842	0.1759656652360515	-0.40625	0.7052154195011338
6154.327392578125	0.3705652413258945	-9.579463228170837	-2.362646581569039	-1.008603938471131	-3.268143669447219	-0.3472028722907778	0.1716738197424893	-0.4084821428571428	0.7006802721088435
6173.858642578125	0.2263577382742384	-9.517415092534259	-2.227610562117712	-1.068053385951311	1.06006774531845	-0.7513862056038655	0.1545064377682404	-0.4040178571428571	0.7052154195011338
6193.389892578125	-0.04707531852694724	-9.949024196309681	-2.43532529016242	-0.4440000153112603	2.81121306069118	-1.835553281992274	0.1759656652360515	-0.3950892857142857	0.6825396825396826
6212.921142578125	-0.1415227209153401	-9.806665580871657	-2.174258520710886	-0.3900485113120221	1.77824429433161	-0.7450078736012112	0.1781115879828326	-0.40625	0.7074829931972789
6232.452392578125	-0.08756057483778421	-9.827407222534452	-2.468432312139946	-0.01044463233663683	-0.3800204401793821	-0.3561209184607663	0.1652360515021459	-0.4107142857142857	0.6938775510204082
6251.983642578125	0.3956119799386287	-9.731228847072115	-1.806095953046549	0.3871430813051611	-2.882608096810231	0.3962811728100329	0.1738197424892704	-0.4151785714285714	0.6961451247165533
6271.514892578125	0.7800299533192787	-9.896689188422082	-2.492791250295224	0.7014866527866443	-2.921389021512796	-0.3164686069449665	0.1695278969957082	-0.3995535714285714	0.6984126984126985
6291.046142578125	0.1350982338011117	-9.637714618701649	-2.285333584192806	-0.0464123016694623	0.3086254040603311	-1.083151190721475	0.1716738197424893	-0.4151785714285714	0.6893424036281179
6310.577392578125	0.07384307344392821	-9.586597016593027	-2.282266528066289	-0.01130880349466385	1.086515043448858	-0.01109132650438186	0.1802575107296137	-0.4107142857142857	0.7006802721088435
6330.108642578125	0.6350567891079991	-9.905340466880981	-2.281189114881546	0.6571156099660159	-0.04186433134560408	-0.7058635049188784	0.1609442060085837	-0.4129464285714285	0.6938775510204082
6349.639892578125	0.1750420727220302	-9.698720117696919	-2.198084823223431	0.1951317599883429	3.113671651465433	-2.904931923041506	0.1652360515021459	-0.4352678571428571	0.7006802721088435
6369.171142578125	0.03196386937546528	-9.666986305360421	-2.175978774281222	0.5492126019675395	2.024073201373536	-2.886954321701003	0.1802575107296137	-0.4129464285714285	0.6984126984126985
6388.702392578125	0.07079255009028303	-9.384546309339289	-1.977214192701771	1.017871483116962	-0.3892706601084999	-0.3354620939524031	0.1866952789699571	-0.4151785714285714	0.7052154195011338
6408.233642578125	0.1753228824876969	-9.830036057107707	-2.226165799790099	0.6855440769690655	-0.00616681328607855	0.0137725496722421	0.1759656652360515	-0.4040178571428571	0.6893424036281179
6427.764892578125	0.001078711893833932	-9.717182504290657	-2.148687515914005	0.328557804983008	-0.02093216567280204	-0.3529317524594392	0.1738197424892704	-0.4084821428571428	0.6938775510204082
6447.296142578125	0.265808644944634	-9.598617682409046	-2.091068576096058	0.3076685403097343	-0.7809730460315663	-1.065173589380972	0.184549356223176	-0.4107142857142857	0.7120181405895691
6466.827392578125	0.2341396443761058	-9.689210083312449	-1.985393009039151	0.6893136781339535	-0.3683384944356979	0.01746965850703605	0.1566523605150215	-0.421875	0.7052154195011338
6486.358642578125	0.6665722534017743	-9.895554611422908	-2.371511054463153	0.2717008709769088	-0.09232720179185309	-1.79220386164168	0.1695278969957082	-0.4129464285714285	0.7097505668934241
6505.889892578125	-0.005630460498903988	-9.313075008526326	-2.498178439905519	0.5483484308095126	3.490608685001776	-2.541924729744619	0.1738197424892704	-0.4263392857142857	0.6938775510204082
6525.421142578125	-0.02794582836348801	-9.838104380100205	-2.30745797997773	-0.1174834691770862	0.2193816089115172	-2.882241327199276	0.1695278969957082	-0.4129464285714285	0.7074829931972789
6544.952392578125	0.1327143811141572	-9.536680679164677	-2.046948315497355	1.411689595593871	-2.52968663558973	0.4132428884836021	0.1738197424892704	-0.4017857142857142	0.7052154195011338
6564.483642578125	0.6879361004057182	-9.804859158983858	-2.46707942832691	0.3891843401539951	-0.3117088107033704	1.090037465557596	0.1587982832618026	-0.4017857142857142	0.6893424036281179
6584.014892578125	0.177775422455462	-9.708848461295265	-2.471419796566605	0.6374034329835492	3.235529558030733	-0.3793194571364637	0.1652360515021459	-0.4151785714285714	0.6961451247165533
6603.546142578125	0.04510540359469739	-9.343885397470292	-2.469724032939127	-0.3703363343295553	-1.499149595044726	-1.071551921383626	0.1824034334763948	-0.4107142857142857	0.7006802721088435
6623.077392578125	0.2527054947940902	-9.648991701412587	-1.801161724306978	0.3616200443089725	-1.813941812391136	0.02537181901009081	0.1609442060085837	-0.4107142857142857	0.7074829931972789
6642.608642578125	0.5102595859854689	-9.863688454445715	-2.046366761812198	-0.02842846700304957	-0.03569751805952553	-0.7196360545911205	0.1738197424892704	-0.4285714285714285	0.6961451247165533
6662.139892578125	0.2278850201652024	-9.537632385555188	-2.380338751214119	-0.09368877449695162	2.083786291748902	-1.821272789486565	0.1716738197424893	-0.4017857142857142	0.7074829931972789
6681.671142578125	0.2788229056729525	-9.568444794713297	-2.372086485662596	1.04339452011315	-1.457936944527595	0.03544725984753896	0.1738197424892704	-0.4017857142857142	0.6848072562358277
6701.202392578125	0.1857613701856196	-9.547312159156403	-2.249606406317061	0.3561221008280305	1.481300836014964	0.7117338940880656	0.148068669527897	-0.4084821428571428	0.6825396825396826
6720.733642578125	0.1136616590880745	-9.607197222651489	-2.182492439419696	1.006562679622298	0.6972443833403581	-0.346553420456785	0.1716738197424893	-0.4084821428571428	0.6984126984126985
6740.264892578125	0.3576358295915185	-9.751051105770664	-2.090113571396745	0.3068043691517073	0.6855624375966739	-0.7201439974245873	0.1545064377682404	-0.4174107142857142	0.6984126984126985
6759.796142578125	0.1026494305739696	-9.607087100366346	-2.101677751274506	-0.3712005054875823	-0.03261411141648625	-0.7265223294272415	0.184549356223176	-0.4151785714285714	0.7029478458049887
6779.327392578125	0.1956483394229163	-9.355491836929586	-2.217895166781432	-0.02379469468013459	-1.864404682837385	-1.060968537712711	0.1738197424892704	-0.4084821428571428	0.7074829931972789
6798.858642578125	0.1666702640908486	-9.890555591529798	-2.381312123370576	0.2754704721417968	-0.4544988829414724	-1.788506752806886	0.1587982832618026	-0.4129464285714285	0.6916099773242631
6818.389892578125	0.06197023370554984	-9.667286369003724	-2.115390717493759	0.6269588006469123	2.855509117851351	-0.73544037559723	0.1888412017167382	-0.40625	0.6938775510204082
6837.921142578125	0.09600692524790071	-9.8191418874343	-2.457835381932927	-0.3807809666661922	-1.879170035224109	-1.427672839844392	0.1351931330472103	-0.4196428571428571	0.6870748299319728
6857.452392578125	0.004234286382836422	-9.757618100439586	-2.464244964814254	0.2896847056433215	-0.4366501239117097	-1.428688725511326	0.1716738197424893	-0.4129464285714285	0.7052154195011338
6876.983642578125	0.2139394407176585	-9.699109091376876	-2.006188969725037	0.9990234772925217	1.421587745639597	-0.3539476381263729	0.1759656652360515	-0.4040178571428571	0.6916099773242631
6896.514892578125	0.164924799072604	-10.01175025809174	-2.20676562154611	0.6600210399728769	1.062499471133017	-0.3571368041277	0.1759656652360515	-0.421875	0.6961451247165533
6916.046142578125	-0.1115567608680853	-9.402924836431724	-2.109630035640449	-0.009580461178609809	-1.846555923807622	-0.7011505104171507	0.1866952789699571	-0.4129464285714285	0.7074829931972789
6935.577392578125	0.4607398908050426	-9.671274065574718	-2.196438060096099	0.3076685403097343	-0.7809730460315663	-1.065173589380972	0.1652360515021459	-0.40625	0.6916099773242631
6955.108642578125	0.2859926868899494	-9.730132654141629	-2.068656444096983	-0.3645254743158334	0.7095780099125152	-0.3740985198012692	0.1695278969957082	-0.4174107142857142	0.6984126984126985
6974.639892578125	0.004589844071738111	-9.17176307015789	-2.499800733704423	0.3097097991585682	1.789926240075295	-0.3714172966334089	0.1587982832618026	-0.3950892857142857	0.6938775510204082
6994.171142578125	0.09426146022965605	-9.435286048945732	-2.283288880108461	0.3163848303303171	2.532118361404296	-0.01899348700743662	0.1738197424892704	-0.4040178571428571	0.6984126984126985
7013.702392578125	0.2052282361107071	-9.830335110643937	-2.155476672295202	0.4004931436486589	-1.398223854152228	1.101128792061977	0.1630901287553648	-0.4017857142857142	0.6689342403628118
7033.233642578125	0.3378336081189441	-9.750853083555938	-2.150707750669922	0.2754704721417968	-0.4544988829414724	-1.788506752806886	0.184549356223176	-0.4084821428571428	0.6961451247165533
7052.764892578125	0.05205498147027224	-9.475268024562178	-2.144273657231307	0.6629264699797378	2.166863273611638	-0.008410103336521622	0.1545064377682404	-0.40625	0.7142857142857143
7072.296142578125	0.2366245077701346	-9.79024503295649	-2.233879348442036	-0.01711966350838571	-1.122212561508384	-0.7085447280867386	0.1759656652360515	-0.4196428571428571	0.6780045351473923
7091.827392578125	0.391343226228807	-9.690782119130978	-2.399628745329677	0.3682950754807214	-1.071749691062134	0.3777956286360631	0.1652360515021459	-0.4174107142857142	0.7006802721088435
7111.358642578125	0.1558459154919019	-9.698528156124617	-2.319285426741215	-1.074728417123061	0.3178756239894489	-1.103810015229838	0.1716738197424893	-0.4151785714285714	0.6825396825396826
7130.889892578125	0.3185546221090149	-9.78096332399887	-2.263625476207609	-0.03973727049771342	1.050817525389332	-0.7307273810955023	0.1802575107296137	-0.4040178571428571	0.7210884353741497
7150.421142578125	0.1340679245889534	-9.94073461863983	-2.182302662976976	0.6420372053064641	1.406822393252873	-0.7206519402580541	0.167381974248927	-0.4040178571428571	0.6938775510204082
7169.952392578125	-0.167716941160439	-9.594282426547993	-2.61606098599692	0.008403373487802925	-2.190878845927479	-0.3376353742867965	0.1609442060085837	-0.4040178571428571	0.6984126984126985
7189.483642578125	0.3790340202358675	-9.549244885656906	-2.189116309301031	0.7441293532912187	-2.867842744423508	0.7629854749417142	0.1824034334763948	-0.4129464285714285	0.6938775510204082
7209.014892578125	0.7575186246829705	-9.926767105438751	-2.282474713195012	-0.03219806816793752	0.3264741630900938	-0.7233331634259144	0.1738197424892704	-0.3950892857142857	0.7052154195011338
7228.546142578125	0.03476792660384905	-9.626610305528665	-2.456384497119599	-0.4335553829746235	3.191233500870562	-1.479432363531508	0.167381974248927	-0.4084821428571428	0.6757369614512472
7248.077392578125	0.1825128658461087	-9.68869381552715	-1.924755972365973	-0.32478820381812	-0.3412395154768173	0.3566288612942332	0.1630901287553648	-0.4241071428571428	0.6666666666666666
7267.608642578125	0.2969927941192055	-9.710040635011902	-2.14825900375728	-0.00667503117174888	-0.7421921213290015	-0.3524238096259723	0.1824034334763948	-0.4017857142857142	0.6938775510204082
7287.139892578125	0.216331374261179	-9.476910788490089	-2.245382324077082	0.6344980029766882	2.131165755552112	-0.728046157927642	0.1824034334763948	-0.4241071428571428	0.6961451247165533
7306.671142578125	0.2462569300256041	-10.18428075111844	-2.176713410723672	-0.03219806816793752	0.3264741630900938	-0.7233331634259144	0.1759656652360515	-0.4196428571428571	0.7120181405895691
7326.202392578125	0.7288072176175791	-10.40122746611557	-2.472558496451783	0.04060144165574044	-2.517353009017572	0.3856977891391179	0.1802575107296137	-0.421875	0.6961451247165533
7345.733642578125	0.8606267263247777	-9.685373944030927	-2.389203244722664	-0.3352328361547569	-0.7212599556561994	0.000507942833466858	0.1566523605150215	-0.421875	0.6961451247165533
7365.264892578125	0.2938695430564668	-9.386777079268951	-1.83593389748341	-0.4477696164761483	3.1733847418408	-1.839250390827068	0.1523605150214592	-0.4017857142857142	0.6802721088435374
7384.796142578125	0.26096619164749	-9.608670267977082	-1.606823246381655	-0.7339976374873617	-2.256107068760451	-1.79068003314128	0.1716738197424893	-0.4107142857142857	0.6916099773242631
7404.327392578125	0.206484809306712	-10.07277191880014	-2.281133991895685	0.6968528804637294	-1.092681856734937	0.02486387617662396	0.1866952789699571	-0.4174107142857142	0.6893424036281179
7423.858642578125	0.207929262417875	-9.618240908785797	-2.425579303011997	0.3578504431440845	-1.451770131241517	0.02167471017529686	0.1695278969957082	-0.4084821428571428	0.6848072562358277
7443.389892578125	-0.09098483780760445	-9.675857828389603	-2.126006015157922	0.3616200443089725	-1.813941812391136	0.02537181901009081	0.1759656652360515	-0.4129464285714285	0.7052154195011338
7462.921142578125	0.3489125036997182	-9.862074983622858	-2.238189145482018	0.3833734801402732	-2.520436415660612	0.3925840639752389	0.1888412017167382	-0.421875	0.7097505668934241
7482.452392578125	0.1051464152528473	-9.728324191425257	-2.351376219162283	0	0	0	0.1695278969957082	-0.4107142857142857	0.7052154195011338
7501.983642578125	0.3573833028238326	-9.498523327977734	-2.064860894628159	0.9868505026398308	3.974638272716695	-0.02000937267437034	0.1716738197424893	-0.390625	0.7029478458049887
7521.514892578125	0.3189142202261995	-10.0435931826063	-2.299585287926075	-0.06149070632901411	1.757312128658808	-1.09793962606065	0.1738197424892704	-0.3995535714285714	0.673469387755102
7541.046142578125	-0.2631966729751317	-9.583226619128837	-2.251761273915407	-0.3645254743158334	0.7095780099125152	-0.3740985198012692	0.1630901287553648	-0.4174107142857142	0.6848072562358277
7560.577392578125	0.2379881523156383	-10.0427839219272	-2.3702438029924	-1.055880411298621	-1.492982781758648	-1.085324471055868	0.1738197424892704	-0.4129464285714285	0.6893424036281179
7580.108642578125	0.2886351269870142	-9.588744937128457	-2.332900453803465	0.01507840465955181	-1.448686724598477	0.01478843533917581	0.1630901287553648	-0.4151785714285714	0.6916099773242631
7599.639892578125	0.3598560449330125	-9.579356136206908	-2.312135105546152	0.7043920827935053	-1.817025219034175	0.03225809384621187	0.1609442060085837	-0.4129464285714285	0.6848072562358277
7619.171142578125	0.3981695710417512	-9.448426140154865	-2.061855063358787	-0.0464123016694623	0.3086254040603311	-1.083151190721475	0.1759656652360515	-0.4084821428571428	0.6916099773242631
7638.702392578125	0.3392457378038435	-9.579150033135615	-2.291920719159855	-0.7206475751438639	-0.7717228261024484	-1.085832413889335	0.1759656652360515	-0.4241071428571428	0.6984126984126985
7658.233642578125	0.1781996674251742	-9.910872905765164	-2.513844293537829	-0.03596766933282547	0.6886458442397132	-0.7270302722607084	0.1974248927038627	-0.3995535714285714	0.7233560090702948
7677.764892578125	0.3472579483178404	-9.629735205745806	-2.072733607294244	-0.02465886583816162	-0.3978691992091449	-0.7159389457563266	0.1695278969957082	-0.421875	0.6961451247165533
7697.296142578125	0.3576681530177823	-9.468223146176644	-2.093345914023124	-0.0464123016694623	0.3086254040603311	-1.083151190721475	0.1716738197424893	-0.4285714285714285	0.6893424036281179
7716.827392578125	0.1739006517320902	-9.648203652981968	-2.083942724229424	-0.01798383466641273	0.3443229221198566	-0.3635151361303542	0.1652360515021459	-0.4084821428571428	0.7074829931972789
7736.358642578125	0.1765794556837018	-9.567422360213405	-2.351823119390582	-0.7093387716492	-1.858237869551306	-1.074741087384953	0.167381974248927	-0.4151785714285714	0.7142857142857143
7755.889892578125	0.1915816483561033	-9.648380462948209	-1.811226060100125	-0.002905430006860929	-1.104363802478621	-0.3487267007911783	0.1652360515021459	-0.4084821428571428	0.7029478458049887
7775.421142578125	0.3396295784907259	-9.882184174572787	-2.330304787848105	-0.3050760268356532	-3.618633404853154	0.03008481351181848	0.1716738197424893	-0.40625	0.6938775510204082
7794.952392578125	0.09707359831460577	-9.576728311740725	-2.564502688603433	-0.6536589253339079	-5.824277603167356	-0.6742548629066593	0.1952789699570815	-0.40625	0.6802721088435374
7814.483642578125	0.8188404521068232	-9.583945980278646	-2.292208475988436	0.3540808419791966	-1.089598450091897	0.01797760134050291	0.1824034334763948	-0.40625	0.671201814058957
7834.014892578125	0.3061120819827372	-9.417202534961243	-2.039779626845149	1.654410744942484	4.312794381550473	-0.3697519591324824	0.1738197424892704	-0.4151785714285714	0.6961451247165533
7853.546142578125	0.01335357424636818	-9.464780000388931	-2.355765587902124	-0.3578504431440845	1.451770131241517	-0.02167471017529686	0.1609442060085837	-0.4285714285714285	0.6870748299319728
7873.077392578125	0.3080514875585647	-10.12429263608771	-2.233720184427889	-1.060514183621536	0.3357243830192116	-0.7439919879342776	0.1802575107296137	-0.4196428571428571	0.6938775510204082
7892.608642578125	0.02057992145932674	-9.384044183052978	-2.057992145932674	-0.01711966350838571	-1.122212561508384	-0.7085447280867386	0.1652360515021459	-0.40625	0.6893424036281179
7912.139892578125	0.1455367214990344	-9.860041225800851	-2.308774190719769	0.2954955656570434	1.772077481045532	-0.7312353239289692	0.1888412017167382	-0.4107142857142857	0.6825396825396826
7931.671142578125	0.2875745145627336	-9.841259583529467	-2.226839211375405	0.03683184049085249	-2.155181327867953	0.3820006803043239	0.1716738197424893	-0.40625	0.7074829931972789
7951.202392578125	0.603521122672809	-9.713105918297439	-2.188846961158453	-0.002905430006860929	-1.104363802478621	-0.3487267007911783	0.167381974248927	-0.4129464285714285	0.7029478458049887
7970.733642578125	0.07425519712879151	-9.768419319648057	-2.323478896552621	-0.7102029428072271	-0.3917023859230663	-0.7297114954285686	0.2081545064377682	-0.40625	0.6848072562358277
7990.264892578125	0.2567762262891862	-9.699537459232591	-2.208234873816582	1.011196451945213	-1.131462781437501	-0.6878859035783754	0.1738197424892704	-0.4084821428571428	0.6938775510204082
8009.796142578125	-0.06814825469451682	-9.514470032604571	-2.368847999936072	-0.3825093089822462	1.053900932032372	-0.7376136559316233	0.1609442060085837	-0.4174107142857142	0.6893424036281179
8029.327392578125	0.3890543236065023	-9.579648118993642	-2.170738483099215	-0.003769601164887951	0.3621716811496193	-0.003697108834793953	0.1609442060085837	-0.4017857142857142	0.6893424036281179
8048.858642578125	0.3070615826292361	-9.821252434008112	-2.134729691495032	-0.7177421451370031	0.3326409763761723	-0.7371057130981565	0.167381974248927	-0.4107142857142857	0.6984126984126985
8068.389892578125	0.1453589426545836	-9.395392983365943	-2.290996306274684	0.6893136781339535	-0.3683384944356979	0.01746965850703605	0.1802575107296137	-0.4174107142857142	0.6893424036281179
8087.921142578125	0.4403841306577009	-9.590262427165165	-2.201678371892536	-0.005810860013721858	-2.208727604957241	-0.6974534015823567	0.184549356223176	-0.4084821428571428	0.6870748299319728
8107.452392578125	0.2652268232718858	-9.639015904596357	-2.032886408821236	-0.0539515039992382	1.03296876635957	-1.090545408391063	0.1566523605150215	-0.4196428571428571	0.6916099773242631
8126.983642578125	0.04989133212473981	-9.404539317361651	-1.927908722678063	-0.7424010109751646	-0.0652282228329725	-1.453044658854483	0.1716738197424893	-0.4084821428571428	0.6893424036281179
8146.514892578125	0.275663290755667	-9.689625319776246	-2.05612499393405	0	0	0	0.1824034334763948	-0.4151785714285714	0.6916099773242631
8166.046142578125	0.4564792591806468	-9.640928428955444	-1.770374897656519	-0.6922191081408143	-0.7360253080429229	-0.3661963592982144	0.1695278969957082	-0.4151785714285714	0.6938775510204082
8185.577392578125	0.296911985553546	-9.912060028946447	-2.140178147191332	0.3390024373196448	0.35908827450658	0.003189166001327095	0.1759656652360515	-0.4129464285714285	0.6984126984126985
8205.108642578125	-0.0380893647967536	-9.43396254069547	-2.313512499916476	-0.7102029428072271	-0.3917023859230663	-0.7297114954285686	0.1759656652360515	-0.4107142857142857	0.6893424036281179
8224.639892578125	0.8271839777400239	-9.513322344827907	-2.10615287604321	0.6809103046461504	1.822540351491781	0.3551050327938325	0.1545064377682404	-0.421875	0.7097505668934241
8244.171142578125	0.2987867442768458	-9.669654534109437	-2.327654019521314	-0.02552303699618864	1.068666284419095	-0.3709093537999421	0.1866952789699571	-0.3883928571428571	0.7074829931972789
8263.702392578125	-0.06872401572484058	-9.564969325499318	-2.311271896903697	-0.3636613031578064	-0.7569574737157249	-0.7191281117576536	0.1716738197424893	-0.421875	0.6825396825396826
8283.233642578125	0.3763430949994069	-9.609824037010602	-1.92002378565498	0.01130880349466385	-1.086515043448858	0.01109132650438186	0.1738197424892704	-0.4151785714285714	0.6961451247165533
8302.764892578125	0.1520681150473215	-9.799500479130273	-1.94150538228317	0.07570493983053889	-1.739463369629046	1.457757653356211	0.1759656652360515	-0.4151785714285714	0.6938775510204082
8322.296142578125	0.15444388687771	-9.718716156040495	-2.179082565322026	0.01507840465955181	-1.448686724598477	0.01478843533917581	0.167381974248927	-0.4040178571428571	0.6802721088435374
8341.827392578125	0.1666237991655944	-9.981464217789638	-2.376665630845156	-0.3364099238455637	-4.7586947253913	-1.03827794187048	0.1695278969957082	-0.4174107142857142	0.6916099773242631
8361.358642578125	0.2878593647566833	-9.810959401728375	-2.255324230770369	0.2963597368150704	0.3055419974172918	-1.076264915885354	0.1652360515021459	-0.4017857142857142	0.6757369614512472
8380.889892578125	-0.01668511350998017	-9.747307896339649	-2.413121302063208	-0.7064333416423392	-0.7538740670726856	-0.7260143865937746	0.1695278969957082	-0.421875	0.7097505668934241
8400.421142578125	0.4340648595942699	-10.00434064859594	-2.590159428814747	-0.6382676041415761	-1.768994074402493	0.7243490490928481	0.1802575107296137	-0.4107142857142857	0.6961451247165533
8419.952392578125	0.8664490247094029	-9.45310893469154	-1.951024919919876	0.3210186026532321	0.7034111966264366	-0.3603259701290271	0.1716738197424893	-0.4107142857142857	0.7006802721088435
8439.483642578125	0.1751208610735482	-9.830034036893565	-2.20596365837523	-0.39381811247691	2.14041597548123	-0.7487049824360053	0.1781115879828326	-0.4040178571428571	0.6916099773242631
8459.014892578125	-0.1112032233933251	-9.655453624331725	-2.144983783116469	-0.008403373487802925	2.190878845927479	0.3376353742867965	0.1716738197424893	-0.4040178571428571	0.6916099773242631
8478.546142578125	-0.02053564166365414	-9.727067370856092	-2.02806848669581	0.325652374976147	-1.125295968151423	-0.7016584532506176	0.1888412017167382	-0.4308035714285714	0.6984126984126985
8498.077392578125	0.3596358415915905	-9.549050903870462	-2.290114771403945	0.3465416396494207	-0.3652550877926586	0.010583383670915	0.1738197424892704	-0.4129464285714285	0.6916099773242631
8517.608642578125	0.4831017235948808	-9.560386572791506	-2.391805012549309	-0.1174834691770862	0.2193816089115172	-2.882241327199276	0.1566523605150215	-0.4263392857142857	0.6893424036281179
8537.139892578125	0.1149424748537772	-9.384987808586924	-2.310574015989963	0.6817744758041775	0.3560048678635408	0.01007544083744814	0.1759656652360515	-0.4040178571428571	0.6825396825396826
8556.671142578125	0.2798289723154129	-9.730071016995884	-2.472693149908642	0.3825093089822462	-1.053900932032372	0.7376136559316233	0.1695278969957082	-0.4196428571428571	0.6916099773242631
8576.202392578125	0.5472417909749676	-9.197391609828944	-1.662954607700848	-0.04350687166260137	1.412989206538952	-0.7344244899302963	0.1781115879828326	-0.4129464285714285	0.6984126984126985
8595.733642578125	0.1967210731320459	-9.628229836993949	-2.325168537694385	0.6629264699797378	2.166863273611638	-0.008410103336521622	0.1781115879828326	-0.421875	0.7029478458049887
8615.264892578125	-0.04614399980772178	-9.817720378183743	-2.528457162084964	0.3891843401539951	-0.3117088107033704	1.090037465557596	0.1802575107296137	-0.4017857142857142	0.6825396825396826
8634.796142578125	0.2669823893608379	-9.366306187529974	-2.208443017716445	-0.01421423350152478	-0.01784875902976276	-0.3598180272955602	0.1759656652360515	-0.4397321428571428	0.6938775510204082
8654.327392578125	0.3580499734905233	-9.599540095694504	-2.131527961297226	-0.02175343583130069	0.7064946032694759	-0.3672122449651481	0.1738197424892704	-0.4151785714285714	0.6848072562358277
8673.858642578125	0.2569721870609105	-9.689438408739298	-2.227830950989004	0.9488415744581713	2.092384830849547	-1.440795937682642	0.1738197424892704	-0.4084821428571428	0.6893424036281179
8693.389892578125	0.00544237443944557	-9.919246342936315	-2.585053770475169	0.6959887093057022	0.3738536268933035	0.3698934681330084	0.1738197424892704	-0.4263392857142857	0.6961451247165533
8712.921142578125	0.3390517972462607	-9.76096627554822	-2.27252666340158	-1.031221545460459	-1.095113582549503	-0.3693855252995415	0.1716738197424893	-0.4174107142857142	0.7052154195011338
8732.452392578125	0.1434255977211806	-9.708504963047922	-2.09766181293439	-0.02088926467327366	-0.7600408803587642	-0.7122418369215325	0.1802575107296137	-0.4084821428571428	0.7074829931972789
8751.983642578125	-0.04815411287850123	-9.666185125537883	-2.327445855007021	0.3314632349898689	1.083431636805819	-0.004205051668260811	0.184549356223176	-0.4017857142857142	0.6916099773242631
8771.514892578125	-0.01010725503643889	-9.595858523409234	-2.050498986152029	0.3862789101471341	-1.416072613181991	0.7413107647664173	0.1781115879828326	-0.421875	0.6916099773242631
8791.046142578125	0.3803633211409658	-9.912894542302322	-2.322046399810866	1.448521436084724	-4.684867963457682	0.795243568787926	0.1716738197424893	-0.4107142857142857	0.6825396825396826
8810.577392578125	0.627927412173832	-9.642642910485376	-2.588659584730133	1.373129412786965	2.558565659534703	0.721301392092047	0.1759656652360515	-0.40625	0.7029478458049887
8830.108642578125	0.04109527852384596	-9.394350346724634	-2.068711525853983	0.2047122211669527	4.960227575273055	-2.203781412624356	0.167381974248927	-0.4040178571428571	0.6757369614512472
8849.639892578125	-0.2955868899921708	-9.481892615948565	-2.073964062007419	0.6449426353133251	2.511186195731494	-0.3719252394668758	0.1566523605150215	-0.4084821428571428	0.7006802721088435
8869.171142578125	0.0297295125349808	-9.646761941589997	-1.952543090232774	0.7432651821331916	-1.401307260795268	1.108015066898099	0.1824034334763948	-0.4129464285714285	0.6802721088435374
8888.702392578125	0.4951725855479849	-8.964547685451441	-1.558074881329107	0.008403373487802925	-2.190878845927479	-0.3376353742867965	0.1888412017167382	-0.4174107142857142	0.6780045351473923
8908.233642578125	0.3792138192944598	-9.680559814960624	-2.207096215160264	-0.7763274214591562	3.194316907513601	-1.486318638367629	0.1609442060085837	-0.3995535714285714	0.6870748299319728
8927.764892578125	0.4476892662221774	-9.64084052902586	-1.911783765074885	-1.106926485290998	0.6443497870795426	-1.827143178655752	0.1716738197424893	-0.3973214285714285	0.7074829931972789
8947.296142578125	0.09214023538109484	-9.435264836697247	-2.07116639525234	-0.3645254743158334	0.7095780099125152	-0.3740985198012692	0.1609442060085837	-0.4151785714285714	0.7006802721088435
8966.827392578125	0.4022746461772524	-9.892911635350663	-2.472362576908919	-0.7177421451370031	0.3326409763761723	-0.7371057130981565	0.1738197424892704	-0.421875	0.6780045351473923
8986.358642578125	-0.3786099401815953	-9.016415920800206	-1.934924349187406	1.317136649938893	1.020635139787412	-1.063000309046578	0.1716738197424893	-0.4241071428571428	0.6938775510204082
9005.889892578125	0.3097727100071115	-9.962693686696031	-2.40584242928257	2.007314499230874	-0.8142388382765254	-1.390560242495927	0.1759656652360515	-0.4129464285714285	0.6893424036281179
9025.421142578125	0.3362134376063317	-9.740735871749802	-0.968282536143372	2.35212779656424	1.753577041187296	-0.6899176749122429	0.1759656652360515	-0.4308035714285714	0.671201814058957
9044.952392578125	-0.2891241837246942	-9.6435734046274	-1.699826525489765	5.445792432945617	5.038917788835804	0.4182389009863817	0.1652360515021459	-0.4241071428571428	0.7006802721088435
9064.483642578125	0.5353002639557788	-10.00535300263956	-1.489210069047262	8.478517617623229	3.111064928151541	-1.30038921779236	0.1738197424892704	-0.4174107142857142	0.6780045351473923
9084.014892578125	0.3522014535509188	-9.953016964030461	-1.546675967336777	10.60276433140594	9.04795021795508	1.920136935527705	0.1759656652360515	-0.4308035714285714	0.6507936507936508
9103.546142578125	0.7253385511655061	-9.835536213794486	-1.105283687979184	14.65280974457526	13.7013324341539	1.594891791413276	0.2017167381974249	-0.4308035714285714	0.653061224489796
9123.077392578125	0.01727085192443128	-9.757748466095002	-0.7066770291778214	16.96229484063493	15.40136319825191	-0.1744799653856478	0.1931330472103004	-0.4553571428571428	0.6575963718820862
9142.608642578125	-0.01741230814319538	-9.706896583989277	-0.2995855122110737	22.81611961955899	18.31771377063625	1.352281945332299	0.1738197424892704	-0.4308035714285714	0.6281179138321996
9162.139892578125	0.8679299241328328	-9.725851016413047	-0.05829853573225736	28.32772361462375	14.26664201267204	1.143312512597409	0.1909871244635193	-0.46875	0.6122448979591837
9181.671142578125	-0.02901039875833153	-9.908800805103329	-0.1601846139627651	30.59692018556045	23.98799603915096	0.3720584433196995	0.1759656652360515	-0.4709821428571428	0.6281179138321996
9201.202392578125	-0.3156152929908715	-10.61300546323171	-0.0711237621373367	32.75007204253115	5.011626866304181	-1.91310043932321	0.1909871244635193	-0.4776785714285714	0.5918367346938775
9220.733642578125	0.2063737799866502	-10.38590212163825	-0.229214733358901	33.70268321815421	6.741840016004108	-3.350199268171058	0.2210300429184549	-0.5	0.5850340136054422
9240.264892578125	0.2562288307145633	-10.29549158123644	-0.1126789898236812	35.57258706256087	1.418789078752961	-0.7415850703996216	0.2145922746781116	-0.5223214285714285	0.562358276643991
9259.796142578125	0.08947161495791073	-10.03119774645261	0.2365119735966819	40.10432850269033	-0.3607585772355952	0.8056941558261627	0.2381974248927039	-0.5290178571428571	0.5328798185941043
9279.327392578125	0.232044764769104	-10.06292650825375	0.2649112781916437	40.32498329967486	1.684246789810742	-1.728328413415402	0.2424892703862661	-0.5558035714285714	0.5283446712018141
9298.858642578125	0.2819967857758085	-10.13413309917089	0.3717499938477266	45.85606113362963	6.830257132825124	0.8488186513443414	0.2510729613733906	-0.5982142857142857	0.5056689342403629
9318.389892578125	-0.3000353190740048	-9.805080454890069	0.4116951727065961	49.34731348365281	7.613010223842784	2.709377318513765	0.2660944206008584	-0.6071428571428571	0.5192743764172336
9337.921142578125	-0.3196799638435431	-10.06751027106864	0.3353433231298215	53.17002906866585	9.479194951666264	4.565730934014928	0.2639484978540773	-0.6272321428571428	0.5102040816326531
9357.452392578125	-0.6065919306255891	-10.42827751503718	0.4551114299058503	55.63469364555148	7.33812729535656	5.71557159276322	0.278969957081545	-0.6696428571428571	0.4852607709750567
9376.983642578125	-0.4844816123112364	-10.87394306266477	0.4889775576542557	58.11616496941272	0.8153019471918992	6.190141502937919	0.2639484978540773	-0.6852678571428571	0.4852607709750567
9396.514892578125	0.1484782769756194	-10.88027266155764	0.4582947514176532	59.17550206534345	-3.557857205562413	5.895347606168249	0.2618025751072962	-0.7053571428571428	0.4693877551020408
9416.046142578125	0.08589987635576193	-10.47560647351104	0.5936858338115605	60.55412942161135	-4.29453419443381	5.930286923182321	0.2875536480686695	-0.7366071428571428	0.4829931972789116
9435.577392578125	0.2786816143696285	-10.16440297775986	0.7032671344657219	63.01416022617407	-4.606894685965652	7.421460065052203	0.3025751072961373	-0.7566964285714285	0.4739229024943311
9455.108642578125	-0.1240395815906126	-10.14017374559824	1.179468363142894	63.70637933431488	-3.870869377922729	7.787656424350418	0.3047210300429185	-0.7946428571428571	0.4965986394557823
9474.639892578125	-0.1580156667087189	-10.089328934242	1.515852385157601	65.46492348609095	-1.261840847941777	9.595298173165267	0.3068669527896996	-0.7924107142857142	0.4829931972789116
9494.171142578125	-0.9004736361957648	-9.778874051516832	1.271853415494849	65.8596057697259	-4.868792307051247	9.998973563644887	0.3068669527896996	-0.8080357142857142	0.5124716553287982
9513.702392578125	-0.4519034741501791	-10.10659207636961	1.312796394609743	65.68968413020096	-14.55510049629912	11.890999363826	0.3004291845493562	-0.8303571428571428	0.5079365079365079
9533.233642578125	-0.6766148203568257	-10.57909243765502	1.334951423437669	66.0374028575412	-10.88292081435667	12.94036863220087	0.3133047210300429	-0.8482142857142857	0.5328798185941043
9552.764892578125	-0.4962028947601432	-10.02534100135543	1.661105802544937	68.89823972228533	-7.089534906677404	16.91648604279306	0.3133047210300429	-0.8549107142857142	0.5374149659863946
9572.296142578125	-0.2924776155129823	-10.44151966828931	1.696741143134965	69.22883878611719	-4.539567786243345	17.25731058308118	0.3090128755364807	-0.8705357142857142	0.5487528344671202
9591.827392578125	-0.1462882411596675	-10.09954721859851	2.38392615678308	70.28385502625777	-1.580049520856457	18.68766464609343	0.2896995708154507	-0.8883928571428571	0.5782312925170068
9611.358642578125	-0.6988291362854753	-9.922304637930077	2.535974853037327	71.33101914753581	-3.400158146533671	18.72680901477577	0.3068669527896996	-0.9084821428571428	0.6054421768707483
9630.889892578125	-0.7629711826508436	-9.941865237668443	2.827730509982318	71.45282347250304	-10.95221717358639	19.88390238219312	0.2982832618025751	-0.8928571428571428	0.6009070294784581
9650.421142578125	-0.07212382998066284	-10.11038987281131	3.13075034500506	72.79430607174731	-15.03768308795317	18.15302554224254	0.2832618025751073	-0.90625	0.6258503401360545
9669.952392578125	-0.6338769428205108	-9.902752139662708	3.183612649398016	73.72689215385512	-15.53404630224025	15.65865528451677	0.2982832618025751	-0.9084821428571428	0.6598639455782314
9689.483642578125	-0.6376789858347891	-9.963320179838625	3.563816950825845	73.38412011537059	-15.53096289559721	15.65176900968065	0.3004291845493562	-0.8950892857142857	0.6825396825396826
9709.014892578125	-0.8828895273928229	-9.779049892604862	3.595075188261891	72.34708770989641	-18.83480408310395	14.58493008279875	0.2918454935622318	-0.9017857142857142	0.6984126984126985
9728.546142578125	-0.1800562029923406	-9.887088326858965	3.719906013519776	73.34697535834697	-18.8797518210926	13.885952852716	0.296137339055794	-0.8883928571428571	0.7210884353741497
9748.077392578125	0.1433793801690866	-9.77921157157947	4.029408921866849	73.11726802538126	-9.261755261320742	10.54776866851652	0.2939914163090129	-0.9174107142857142	0.764172335600907
9767.608642578125	-0.5388092934618214	-10.06531897777245	3.880929346182139	78.30125296506137	3.220015906477881	14.84317741822206	0.2875536480686695	-0.8950892857142857	0.7664399092970522
9787.139892578125	-0.8558205131956003	-9.425785229211481	4.969806421600848	80.45911317279528	0.3933858125715043	16.71316207439494	0.2746781115879828	-0.9040178571428571	0.7687074829931972
9806.671142578125	-1.149053771255219	-9.523862997640984	4.701295492868815	80.27701855861766	-6.739871849599267	18.93912614002806	0.2832618025751073	-0.8839285714285714	0.8117913832199547
9826.202392578125	-1.169554986820748	-9.200425662253005	4.710600722891083	78.99640083263682	-15.41965857061797	19.00031165271863	0.2725321888412017	-0.8616071428571428	0.8480725623582767
9845.733642578125	-0.6102907778032114	-8.96359406191894	4.906628800729309	80.39795871242686	-12.82539539302374	20.4412490994018	0.2682403433476395	-0.8392857142857142	0.9070294784580499
9865.264892578125	-0.3286657114294366	-8.713885060057423	5.315550734780394	78.84357552719247	-3.503690610740061	18.15867100657931	0.2639484978540773	-0.8348214285714285	0.8956916099773243
9884.796142578125	-0.7964441519899996	-8.365772932217476	5.154619280632609	79.41399031036607	4.78439372435558	17.36777399846017	0.2618025751072962	-0.8236607142857142	0.9274376417233561
9904.327392578125	-1.668887234514914	-8.458058602402327	5.664233655573033	79.3762942987172	8.406110535851774	17.33080291011223	0.2575107296137339	-0.796875	0.9501133786848073
9923.858642578125	-1.019654437860661	-8.474651940469881	6.047076439127364	80.14013582899088	2.260873902051929	17.76724433727153	0.2575107296137339	-0.7700892857142857	0.9455782312925171
9943.389892578125	-1.11355234200257	-8.069672557388056	6.253193383930455	81.92679553123723	-0.5983703032709342	18.91070666401717	0.240343347639485	-0.7611607142857142	0.9977324263038549
9962.921142578125	-1.126893877421809	-8.059438131932854	6.56693876258908	82.69848918037347	-1.963980046006676	20.73835778550639	0.2424892703862661	-0.7410714285714285	1
9982.452392578125	-0.8688508944081906	-7.910503410247838	6.272844542859878	84.02230086148411	-0.2011527848902623	20.02778128608578	0.2360515021459227	-0.7165178571428571	1.049886621315193
10001.98364257812	-1.207803783619239	-7.412164386406233	6.494664076209567	84.70902202614398	3.830115171558761	21.08033972046197	0.2424892703862661	-0.6897321428571428	1.077097505668934
10021.51489257812	-1.192924824009468	-7.624434388123543	7.047584441763094	83.61458143203846	7.425384684924547	20.30307375301455	0.2296137339055794	-0.6830357142857143	1.111111111111111
10041.04614257812	-1.574241768682935	-6.903449501505092	7.424176868293534	82.98644554370073	0.5324407973380942	19.99972824390783	0.2253218884120172	-0.6450892857142857	1.115646258503401
10060.57739257812	-0.9105482379750597	-7.112106638832372	7.381354409750867	82.4646993297101	2.512217941551459	16.01266101581178	0.2210300429184549	-0.6138392857142857	1.113378684807256
10080.10864257812	-1.024347354082475	-6.878645415348065	7.536776224574067	87.06609651156391	9.258955301331538	21.43290503908847	0.2060085836909871	-0.5982142857142857	1.149659863945578
10099.63989257812	-1.554898135820479	-6.30768334187412	7.530629908578463	84.83716513632237	11.9963416000891	17.76383024643779	0.1866952789699571	-0.5691964285714285	1.174603174603175
10119.17114257812	-1.517279563376412	-6.196948416487449	7.850405317232977	86.75638671240536	7.469029061256244	21.80432233572188	0.184549356223176	-0.515625	1.195011337868481
10138.70239257812	-1.661182014092703	-5.801569998040892	7.954936103147851	84.36248038649455	4.195370259351419	21.06975633679106	0.1695278969957082	-0.4955357142857142	1.215419501133787
10158.23364257812	-1.679176143908647	-5.44785470320738	7.713532758211599	84.08960242782685	0.2502626914081709	21.82317431372879	0.1695278969957082	-0.4441964285714285	1.222222222222222
10177.76489257812	-1.538734320016722	-5.126026798213975	7.955064654733426	83.00065977720226	0.550289556367857	20.35954627120339	0.1716738197424893	-0.4151785714285714	1.244897959183674
10197.29614257812	-1.442476805757557	-5.086585332952525	7.512986698204668	80.92109702277295	-2.762150170239532	18.91223049251757	0.167381974248927	-0.4107142857142857	1.253968253968254
10216.82739257812	-1.577981185058827	-4.71149291542214	7.798118505882754	79.60600163168289	-1.211886023920084	20.66898709431171	0.1523605150214592	-0.3415178571428572	1.27891156462585
10236.35864257812	-1.315950258101054	-3.96663847721697	8.125638055003346	76.84756983145628	-3.775966815912394	19.56032257557962	0.1523605150214592	-0.3392857142857142	1.287981859410431
10255.88989257812	-1.341540434317848	-4.087594696666923	7.623431186886855	74.76627873471092	-4.155335575263303	18.80306598080656	0.148068669527897	-0.296875	1.292517006802721
10275.42114257812	-1.5955530901192	-3.883034368088707	7.514492685389427	72.24185179381232	-3.190026757551272	15.86522651208485	0.1545064377682404	-0.2678571428571428	1.294784580498866
10294.95239257812	-1.417013903031676	-3.743405618545442	8.027920915412528	69.49009502475745	-5.011915428214579	15.10898580297873	0.1545064377682404	-0.2299107142857143	1.324263038548753
10314.48364257812	-1.646648552329987	-3.589594120537307	7.5219980901415	65.83967858407875	-9.596986014937386	16.88038933111153	0.1437768240343348	-0.21875	1.312925170068027
10334.01489257812	-1.2503334554124	-3.543052221001432	7.686406765729815	62.69292661485617	-13.31589347985456	14.33665775486545	0.167381974248927	-0.1808035714285714	1.342403628117914
10353.54614257812	-1.214391660705767	-2.826239921776781	8.173859948127738	59.59753363615875	-13.66816326024659	13.9185603628796	0.1695278969957082	-0.140625	1.340136054421769
10373.07739257812	-1.498822804522067	-2.94460773155074	8.04554575832918	54.98137096617815	-13.46224364206485	9.867343380924069	0.1437768240343348	-0.1495535714285714	1.340136054421769
10392.60864257812	-1.201654169314832	-2.503134973458367	7.92051897229957	54.06299911757186	-12.94803166874802	12.72153166594539	0.1974248927038627	-0.08482142857142856	1.349206349206349
10412.13989257812	-0.969453848056834	-2.050911522125493	8.169874601601764	51.2906660003765	-10.02599096640675	12.63686459657807	0.1759656652360515	-0.08035714285714285	1.369614512471655
10431.67114257812	-1.334908030062487	-2.006852939901396	7.980598924616019	48.13001271418517	-8.258776936990346	11.11713046969677	0.167381974248927	-0.04910714285714286	1.383219954648526
10451.20239257812	-1.530114025046138	-1.812981688032367	8.113443320940283	44.67299969117876	-6.797104904991239	10.67366125870083	0.1781115879828326	-0.03571428571428571	1.353741496598639
10470.73364257812	-1.184906511624186	-1.452797399530223	8.286569529765561	42.00448706428421	-11.08280030758283	11.38257242062051	0.1716738197424893	-0.02678571428571428	1.353741496598639
10490.26489257812	-0.9995652635222758	-1.707176064536495	8.119791658350033	41.57210876900039	-3.854132036977168	10.94192594179295	0.1909871244635193	0.008928571428571428	1.360544217687075
10509.79614257812	-1.449456645616394	-1.197626645665048	8.210970684088382	39.37741672077561	1.127679384797161	8.689940605315742	0.1802575107296137	0.046875	1.349206349206349
10529.32739257812	-1.555617290825988	-1.065251907899821	8.6229535723947	37.36923805038671	3.408453706701927	10.42553043976805	0.1866952789699571	0.05357142857142857	1.351473922902494
10548.85864257812	-1.741821170366313	-0.2149050206195692	8.875994587651716	33.97167447486049	0.541914323935365	10.3862445620852	0.1802575107296137	0.04464285714285714	1.349206349206349
10568.38989257812	-1.752245516565246	-0.6895482519050546	8.898021044279638	31.59198238245122	-2.713895718939697	10.01149659044993	0.1866952789699571	0.07589285714285714	1.365079365079365
10587.92114257812	-1.465848704389279	-0.4802910079056022	8.829768398111524	29.94801626984538	-6.646669660310788	10.73736946804318	0.1866952789699571	0.109375	1.36734693877551
10607.45239257812	-0.8615901210971068	-0.8095659169708472	8.607991701547407	28.19818840808989	-5.942606782855878	9.975907821601869	0.1824034334763948	0.08928571428571427	1.349206349206349
10626.98364257812	-1.361861809595925	-0.6934520889747479	8.635160551429193	27.87457729196258	-2.246411528597595	11.37132256760005	0.1909871244635193	0.1272321428571428	1.353741496598639
10646.51489257812	-1.33828174644991	-0.4209606168789353	9.338378726623629	26.1076297666987	-2.664561212651068	9.901316193071995	0.1866952789699571	0.1294642857142857	1.356009070294785
10666.04614257812	-0.9778720803844099	-0.6467869357618126	9.011697834359344	26.76183994665786	-3.810789346475294	8.846725987361939	0.1995708154506438	0.1473214285714286	1.346938775510204
10685.57739257812	-1.2229149441687	-0.06857893136639383	9.026188294421049	25.00824248373748	-2.744554787870765	8.081567232085831	0.1974248927038627	0.1517857142857143	1.369614512471655
10705.10864257812	-1.185092330096343	-0.129563218113178	9.325559540246545	26.09255136203915	-1.215874488052591	9.88652775773282	0.2017167381974249	0.1674107142857143	1.344671201814059
10724.63989257812	-1.158621381742721	-0.301545099313886	8.719281031414905	24.06725302814187	-0.05731272765620922	10.91357286409839	0.1931330472103004	0.1808035714285714	1.349206349206349
10744.17114257812	-1.105632978881361	0.1221674408999247	8.522481561605511	22.98207997868217	-0.1194575438461424	9.453641930407789	0.1738197424892704	0.1941964285714285	1.349206349206349
10763.70239257812	-0.8867095461900746	0.1401802267750321	9.079117884313574	20.55134181228053	-1.237935017883014	8.337075251172642	0.1974248927038627	0.1941964285714285	1.351473922902494
10783.23364257812	-1.07931350535949	0.3744294986899586	8.951758699214329	18.58635709702145	-5.874120155880542	9.423274098894918	0.1888412017167382	0.2008928571428571	1.356009070294785
10802.76489257812	-1.611442074341995	0.2080336126626119	9.10339110766885	17.13752274440395	-6.6932224457862	7.244215053446661	0.1888412017167382	0.2165178571428571	1.335600907029479
10822.29614257812	-0.6245230627434063	0.2890735134557169	9.391081784544719	16.11847417359618	-10.3413865554128	6.540891262695117	0.2081545064377682	0.203125	1.356009070294785
10841.82739257812	-0.7366534819699538	0.09827562572879046	9.379633911281102	16.36959869643259	-5.689784384200077	5.420261040792235	0.2103004291845494	0.2276785714285714	1.353741496598639
10861.35864257812	-0.8352504454338208	0.2507767468785807	9.035248625014736	17.33964245209682	2.666611580371576	6.075522416691459	0.2060085836909871	0.2321428571428571	1.331065759637188
10880.88989257812	-0.8456990342024509	0.3215883034733377	9.059699338612443	16.90522289796417	7.324380564870378	4.941119645116335	0.2060085836909871	0.2433035714285714	1.337868480725624
10900.42114257812	-1.162314333193359	0.4661685978773882	9.088576176478705	15.49903124585124	6.558824552054008	3.841514681554759	0.1974248927038627	0.2522321428571428	1.351473922902494
10919.95239257812	-1.191722714137563	0.648280863505012	8.968189781103231	12.43929301995385	0.01393867405892545	2.766632085169279	0.2081545064377682	0.2522321428571428	1.344671201814059
10939.48364257812	-1.22091695238277	0.8101889675036259	8.826389115827997	11.10503670650657	-2.128909027236871	3.121087666129119	0.2060085836909871	0.2745535714285714	1.36281179138322
10959.01489257812	-1.040884827044687	0.8184896563512551	9.190523520795217	9.087828829564311	-8.665196366131308	2.426681921547563	0.2167381974248927	0.2455357142857143	1.333333333333333
10978.54614257812	-0.7186230295283236	0.5223377454467986	8.596996830383375	7.661925000468914	-6.153358489571342	1.653621005768401	0.2060085836909871	0.2678571428571428	1.349206349206349
10998.07739257812	-1.035113075242459	0.6265127469140409	8.61334834057242	5.279640394585571	-5.009562081561683	2.313961810002292	0.2167381974248927	0.2589285714285714	1.335600907029479
11017.60864257812	-1.070541694328294	0.9096953159331821	9.094985759360032	2.463487489194824	-6.178502426044804	0.1110547740443446	0.2188841201716738	0.2633928571428572	1.346938775510204
11037.13989257812	-0.7396474805564974	0.8760833434924338	8.658625606670153	1.428496342569477	-6.911444327444687	-0.2620278600899909	0.2253218884120172	0.2723214285714285	1.328798185941043
11056.67114257812	-1.050363713025403	0.7882814149080318	9.118003955601555	-1.336610488828892	-10.217717240766	-1.723116188448055	0.2274678111587983	0.2790178571428572	1.321995464852608
11076.20239257812	-0.6825236581186546	0.9765222062781564	9.068692342477702	-1.023131088505436	-8.789962681840322	-2.09083637624667	0.2231759656652361	0.2745535714285714	1.337868480725624
11095.73364257812	-0.8605274472298245	0.9581002239672479	9.522132478084501	-1.75304620829513	-5.904271178387052	-2.494003823892823	0.2296137339055794	0.2745535714285714	1.337868480725624
11115.26489257812	-0.6193411722416325	0.9152843208133257	9.89330089763264	-1.451739782624365	-1.923466092384279	-2.527785746239436	0.2317596566523605	0.2745535714285714	1.349206349206349
11134.79614257812	-1.173373026632718	0.880420598953196	9.174037357149315	-1.8597721286028	0.1991011240671881	-3.636308755971001	0.2253218884120172	0.2879464285714285	1.340136054421769
11154.32739257812	-0.6851580173591535	0.148265721587733	9.332128266527588	-0.9147001553095161	2.653657636066354	-5.080801802488437	0.2296137339055794	0.2678571428571428	1.346938775510204
11173.85864257812	-1.149302051450321	0.8397758487973317	9.82816432870562	-1.957230504264639	2.64505909696571	-5.46127865429236	0.2424892703862661	0.2834821428571428	1.340136054421769
11193.38989257812	-1.424561381835411	0.59000318957593	9.803076959051324	-2.272751163436929	-1.353594748066827	-5.787314759241308	0.2145922746781116	0.2723214285714285	1.356009070294785
11212.92114257812	-0.9521808934605411	0.4842692836820802	9.503803631768401	-0.8024762915209045	-6.744957314793985	-4.624858945488234	0.2253218884120172	0.2901785714285714	1.333333333333333
11232.45239257812	-1.331293784505647	0.7304846550167737	9.659990695462625	-2.239688924110965	-3.146604394785161	-5.409011187771778	0.2424892703862661	0.2745535714285714	1.317460317460317
11251.98364257812	-1.118534066388896	0.7485590780376264	9.812590312359028	-0.1430065061732748	1.288047893330613	-3.253150680999218	0.2188841201716738	0.2834821428571428	1.337868480725624
11271.51489257812	-1.324293701276535	0.3465762703460987	9.980390535816728	0.586044442458392	-0.1311081264944179	-2.504953641396679	0.2317596566523605	0.265625	1.35827664399093
11291.04614257812	-1.087850930321414	0.7987572971820021	9.805501195406679	0.9865375861070509	-1.529331980646646	-1.403824849334702	0.2231759656652361	0.2834821428571428	1.342403628117914
11310.57739257812	-1.200775293705566	0.4160481569774598	9.873447737903497	0.6985812227797834	-4.025752823991417	-0.6651953077361449	0.2339055793991416	0.296875	1.349206349206349
11330.10864257812	-0.9758740473696192	0.9087486394635953	9.832302696145595	1.391664502078625	-4.756262999576734	-0.6440285403943149	0.2489270386266094	0.2633928571428572	1.308390022675737
11349.63989257812	-0.8097350171402615	0.6646630067370594	9.544930285454731	1.397475362092347	-2.547535394619493	0.05342486118804186	0.2253218884120172	0.2834821428571428	1.328798185941043
11369.17114257812	-1.094372222798993	0.8897316010158689	9.437222279899338	1.008291021938352	-2.235826583916122	-1.036612604369554	0.2446351931330472	0.2678571428571428	1.346938775510204
11388.70239257812	-1.046652538418632	0.667032181949843	9.767294658189719	-0.0484535605182962	-2.26227388204653	-1.776907483469037	0.2467811158798283	0.2767857142857142	1.360544217687075
11408.23364257812	-0.8009894688929049	0.401949288628323	9.690783623984368	1.365277293924409	-2.221061231529398	-0.6699083022378726	0.2446351931330472	0.2700892857142857	1.346938775510204
11427.76489257812	-1.020460338387674	1.131416724595998	10.2092991448899	2.04618759857056	-0.3985208800376177	-0.31480326944404	0.2339055793991416	0.28125	1.349206349206349
11447.29614257812	-1.036664558474261	0.8588514940695913	9.788904827017914	2.056632230907196	-0.01850043985823565	0.04131764901672629	0.2424892703862661	0.2723214285714285	1.346938775510204
11466.82739257812	-1.5430797594062	0.7730065551698198	9.410016756946554	2.049957199735448	-0.7606925611872372	-0.311106160609246	0.2575107296137339	0.2767857142857142	1.328798185941043
11486.35864257812	-0.9999935076914112	0.5251514502284295	9.183024238528859	1.694699270065444	-3.708528880830441	-1.367869646653696	0.240343347639485	0.296875	1.353741496598639
11505.88989257812	-0.9809872505905826	1.009809872505906	9.323214854976619	0.6805973881133707	-3.68142990187156	-1.028710443866499	0.2381974248927039	0.2700892857142857	1.35827664399093
11525.42114257812	-1.233177673236314	0.8709176353182219	9.032053037917075	0.3236111161273131	-3.696195254258284	-1.39541474599818	0.2381974248927039	0.2700892857142857	1.342403628117914
11544.95239257812	-0.897400560655683	0.615034611667163	9.127811167609122	-0.06266779401982099	-2.280122641076292	-2.136725510764597	0.2532188841201717	0.2924107142857142	1.337868480725624
11564.48364257812	-0.9430212013141795	0.8781170807000106	9.608242580397558	-0.4602555076616189	0.2224650155545565	-2.889127602035397	0.2553648068669528	0.2745535714285714	1.349206349206349
11584.01489257812	-1.001835942988447	0.5655739149854402	9.367267768232461	0.3068043691517073	0.6855624375966739	-0.7201439974245873	0.2467811158798283	0.3013392857142857	1.340136054421769
11603.54614257812	-0.7631567537498403	0.9975305574364884	9.989144762739121	-0.7026637404774512	-1.116045748222305	-0.7223172777589807	0.2489270386266094	0.2857142857142857	1.335600907029479
11623.07739257812	-1.043230295662953	0.6871999797243064	9.425070382621843	-1.376034842793826	-3.662929462013325	-1.070028092883225	0.2317596566523605	0.2700892857142857	1.337868480725624
11642.60864257812	-0.6636487149370227	0.5015859820988652	9.222014350845125	-2.075793153264416	-3.674611407757009	-1.443618669851028	0.2424892703862661	0.2834821428571428	1.340136054421769
11662.13989257812	-1.013001707777305	0.9899279968757531	9.463436083852951	-2.054903888591142	-2.914570527398245	-0.7313768329294951	0.240343347639485	0.2991071428571428	1.324263038548753
11681.67114257812	-0.7284453106842327	0.562840008662398	9.579224945974291	-2.396811755917648	-4.378022604383445	-1.083292699722	0.2467811158798283	0.2901785714285714	1.344671201814059
11701.20239257812	-0.8209674489957887	0.6950783613586449	9.647765307742127	-2.788588609545724	0.3332926572046453	-1.138241389410443	0.2575107296137339	0.2857142857142857	1.337868480725624
11720.73364257812	-0.8104218899483671	0.4626496734449383	9.613617566265283	-1.071822987116199	1.42223942646807	-0.7550833144386594	0.2510729613733906	0.28125	1.342403628117914
11740.26489257812	-1.19447626601241	0.8604296111449726	9.243544968587893	-1.388207817446517	-1.109878934936226	-0.7360898274312228	0.259656652360515	0.2678571428571428	1.321995464852608
11759.79614257812	-0.3259523576931196	0.9224514427688505	10.14625617747522	-0.7244171763087518	-0.4095511449528291	-1.089529522724129	0.2274678111587983	0.2834821428571428	1.333333333333333
11779.32739257812	-1.065497178388142	1.091463052591962	9.610942328610065	-0.7499402133049405	0.6591151394662662	-1.460438876524071	0.2489270386266094	0.2790178571428572	1.335600907029479
11798.85864257812	-0.7475343965648622	0.5529298894201942	9.447317207506627	-1.731844027089076	0.359739955335053	-0.3979465103109594	0.2553648068669528	0.2790178571428572	1.333333333333333
11818.38989257812	-0.9253907100437037	0.6254155232620534	9.886009779880574	-1.385302387439656	-0.005515132457605664	-0.3873631266400444	0.259656652360515	0.2834821428571428	1.321995464852608
11837.92114257812	-0.9617809922897468	0.656082456387544	9.443405351423658	0.3323274061478959	-0.3831038468224214	-0.3492346436246452	0.2489270386266094	0.2723214285714285	1.328798185941043
11857.45239257812	-0.7587850103476627	0.6136484561640828	9.551970422521363	-1.369359811622077	-2.920737340684323	-0.717604283257253	0.2489270386266094	0.2700892857142857	1.335600907029479
11876.98364257812	-0.8423474577128641	0.4629689291225833	9.744949852919074	-0.3201544314952051	-2.169946680254677	0.01529637817264267	0.2553648068669528	0.2678571428571428	1.315192743764172
11896.51489257812	-0.8600850203328391	0.7257725673750456	9.477889788385939	-0.3314632349898689	-1.083431636805819	0.004205051668260811	0.2489270386266094	0.2700892857142857	1.353741496598639
11916.04614257812	-0.7413908841317405	0.7548886563160649	9.853374127459773	0.325652374976147	-1.125295968151423	-0.7016584532506176	0.2467811158798283	0.2723214285714285	1.321995464852608
11935.57739257812	-0.8626628135773763	0.6449902644994102	9.735669112839663	1.328445453433557	-0.06587990366144539	-1.051908982542197	0.2618025751072962	0.2566964285714285	1.344671201814059
11955.10864257812	-0.8118259387767004	0.6141788654483732	9.75402244909862	0.6466709776293792	-0.4218847715249862	-1.061984423379645	0.2703862660944206	0.265625	1.331065759637188
11974.63989257812	-0.900321790304273	0.9382961471959722	9.419934132468123	0.01884800582443976	-1.810858405748097	0.01848554417396977	0.240343347639485	0.2834821428571428	1.328798185941043
11994.17114257812	-0.7934843321284211	1.028136863523304	9.960678110801299	0.723240088617945	-3.627883624782272	0.05074363802018163	0.2510729613733906	0.2700892857142857	1.326530612244898
12013.70239257812	-0.6863337819894988	0.592721923678481	9.449704729562125	0.3691592466387484	-2.538285174690375	0.03276603667967872	0.2532188841201717	0.2678571428571428	1.319727891156463
12033.23364257812	-0.9746336358867463	0.5248978515103827	9.708261547858301	1.417500455607593	-0.3209590306324882	1.110696290065959	0.2575107296137339	0.2522321428571428	1.319727891156463
12052.76489257812	-0.6999844101723856	0.61306045016233	9.794359384585499	2.093464071398049	-2.173681767726189	0.4233183293210502	0.2618025751072962	0.2879464285714285	1.328798185941043
12072.29614257812	-0.9030652411084122	0.7969094402898721	9.694279212882041	3.138035679202006	0.4058160574813169	1.497551473872536	0.2746781115879828	0.2901785714285714	1.344671201814059
12091.82739257812	-0.8197694620098869	0.8869855734079779	9.527966609151955	2.789452780703751	-1.799828140832885	0.7932117974540586	0.259656652360515	0.2566964285714285	1.35827664399093
12111.35864257812	-1.125917990304891	0.4254005940444631	9.530574540693175	2.749715510206038	-0.7490106154435529	0.0624844163585563	0.2639484978540773	0.2857142857142857	1.324263038548753
12130.88989257812	-0.5360110495027018	0.6114207165556332	9.723553929862026	2.068805205559888	-2.571550966935334	-0.2926206164352763	0.2660944206008584	0.2857142857142857	1.328798185941043
12150.42114257812	-0.7802983531980764	0.6037625794915767	9.662488381032123	3.474996857672817	-1.805994954118964	0.8069843471263007	0.259656652360515	0.2745535714285714	1.312925170068027
12169.95239257812	-1.186435772500432	0.9310562769169236	9.459903780655422	1.764906266415041	-2.152749602053387	0.7762500817804894	0.2575107296137339	0.28125	1.331065759637188
12189.48364257812	-0.8916267474104536	0.4230576816155188	9.570838006351478	1.741111571734906	-4.017154284890772	-0.2847184559322215	0.2854077253218884	0.2834821428571428	1.344671201814059
12209.01489257812	-0.5762457992599945	0.6522271044572465	9.665396252530062	2.450450343384106	-2.158916415339466	0.7900226314527315	0.259656652360515	0.2790178571428572	1.344671201814059
12228.54614257812	-0.725699839665952	0.5325095236491849	9.304677844146225	2.404038041714644	-1.850291011279134	-0.2931285592687431	0.2618025751072962	0.296875	1.333333333333333
12248.07739257812	-0.688313591848156	0.6937518227871685	9.647685715427837	2.391865067061953	0.7027595157979638	0.04080970618325944	0.2746781115879828	0.2946428571428572	1.333333333333333
12267.60864257812	-0.7471990410173753	0.8357548186930022	9.413781652757946	2.013125359244595	1.394488766680716	-0.69310684091357	0.2618025751072962	0.2700892857142857	1.326530612244898
12287.13989257812	-0.8795761288276244	0.5441492966418117	9.386184311333864	2.368383288914598	4.342325086323919	0.3636566451308801	0.2553648068669528	0.2879464285714285	1.333333333333333
12306.67114257812	-0.949902091908944	0.7266707380908067	9.275923476608682	2.723328302051822	1.786191152603783	0.03660465451499863	0.2682403433476395	0.2700892857142857	1.315192743764172
12326.20239257812	-0.503517801564447	0.8434190163994831	9.535453625832455	0.9404382009703686	4.283263676777025	-1.103160563395845	0.278969957081545	0.2834821428571428	1.331065759637188
12345.73364257812	-0.9305140143353745	0.5749617057999195	9.377932045782341	0.2406798904997782	4.271581731033342	-1.476751140363647	0.2553648068669528	0.2790178571428572	1.308390022675737
12365.26489257812	-0.7055137775064951	0.7343278650477923	9.326887954731152	-0.4088965171364619	3.589102700079708	-0.7634934177751811	0.2553648068669528	0.3013392857142857	1.324263038548753
12384.79614257812	-0.8517515957703455	1.149931657371845	9.664955495401909	-1.05297498129176	-0.388618979280027	-0.7365977702646896	0.2467811158798283	0.2901785714285714	1.342403628117914
12404.32739257812	-0.8622345281793811	1.109632446291895	9.692840573040142	-1.416636284449566	-1.145576452995752	-1.455725882022343	0.2532188841201717	0.2857142857142857	1.317460317460317
12423.85864257812	-0.8698123926529583	0.6046577198861256	9.430218857132562	-1.758544151776072	-2.609028529980953	-1.807641748814849	0.2703862660944206	0.2946428571428572	1.346938775510204
12443.38989257812	-0.6254988261737445	0.9052448872516365	9.488658127578534	-0.7206475751438639	-0.7717228261024484	-1.085832413889335	0.2467811158798283	0.2857142857142857	1.331065759637188
12462.92114257812	-0.7314170456863599	1.138627301769995	9.876398446187009	-1.42794508794423	-0.05906140954689396	-1.466817208526725	0.2575107296137339	0.2879464285714285	1.326530612244898
12482.45239257812	-0.954607170644467	0.6560107181710912	9.746431350160973	-1.449698523775531	0.6474331937225819	-1.834029453491873	0.2660944206008584	0.28125	1.333333333333333
12501.98364257812	-0.6956328689116229	0.4311987529315405	9.359205258509228	-0.4118019471433227	2.484738897601086	-1.112220118566359	0.2575107296137339	0.296875	1.335600907029479
12521.51489257812	-1.123988685799771	0.5768964525145635	9.337644090181179	-1.166375932771178	4.972561201845212	-2.23132651196884	0.2553648068669528	0.2745535714285714	1.326530612244898
12541.04614257812	-0.8716891715903996	0.5339694169684294	9.617896750876694	-0.3825093089822462	1.053900932032372	-0.7376136559316233	0.2575107296137339	0.2901785714285714	1.331065759637188
12560.57739257812	-0.8506020939238396	0.4125464249796426	9.550005310751306	-2.401445528240563	-2.549315439605586	-0.7419602166004101	0.2725321888412017	0.28125	1.340136054421769
12580.10864257812	-0.8579112699165991	0.8065589106789641	9.260514746761952	-1.391977418611404	-0.7477072537866071	-0.7397869362660168	0.2575107296137339	0.2834821428571428	1.333333333333333
12599.63989257812	-0.7511384585932748	0.8357942128687611	9.807723410347885	-2.748851339048011	-0.7175248681846873	-0.4075140083149407	0.2532188841201717	0.265625	1.335600907029479
12619.17114257812	-0.8210159341351844	0.7758869270181197	9.652613821681696	-1.682526295412753	1.155478353753343	1.033931381201693	0.2618025751072962	0.2901785714285714	1.333333333333333
12638.70239257812	-0.3282594834715576	-0.1179295263774057	9.356560592053722	-1.435484290274006	0.6652819527523447	-1.474211426196313	0.2489270386266094	0.2946428571428572	1.331065759637188
12658.23364257812	-0.653446592293654	0.1681506275390982	9.222210249773561	-1.075592588281088	1.784411107617689	-0.7587804232734534	0.259656652360515	0.265625	1.326530612244898
12677.76489257812	-0.696143983089419	0.4413048741743286	9.410316676288845	-2.075480236731636	1.829358845606332	-0.05980319319069606	0.2489270386266094	0.28125	1.317460317460317
12697.29614257812	-1.066802236723542	0.9096579213571346	9.741448162150117	-0.725281347466779	1.056984338675411	-0.7444999307677445	0.2510729613733906	0.2790178571428572	1.315192743764172
12716.82739257812	-0.7581446024648114	0.7247531631963654	9.487929634236227	-1.063419613628397	-0.7686394194594092	-1.092718688725456	0.2553648068669528	0.2834821428571428	1.344671201814059
12736.35864257812	-0.90942087602639	0.9484881481542035	9.309434541414506	-1.073864245965034	-1.148659859638791	-1.448839607186222	0.2639484978540773	0.2589285714285714	1.337868480725624
12755.88989257812	-0.6575456067867308	0.6025350520274633	9.632111699081246	-0.7290509486316669	1.41915601982503	-0.7481970396025384	0.259656652360515	0.2901785714285714	1.328798185941043
12775.42114257812	-0.6210381933493414	0.5415639172870289	9.042594845138233	-1.417500455607593	0.3209590306324882	-1.110696290065959	0.2489270386266094	0.2790178571428572	1.349206349206349
12794.95239257812	-0.7796882485273473	0.7653726400610311	9.601477913959219	-1.41836462676562	1.787494514260728	-0.7656666981095744	0.2489270386266094	0.2857142857142857	1.321995464852608
12814.48364257812	-0.4210381889790824	0.610270987950397	9.45075767341844	-2.127703398414821	-0.07074335529057817	-1.840407785494527	0.2703862660944206	0.2723214285714285	1.335600907029479
12834.01489257812	-0.5446273040450035	0.490294757888935	9.564771220826874	-0.78763622495382	4.28083195096246	-1.497409964872011	0.2660944206008584	0.2745535714285714	1.337868480725624
12853.54614257812	-0.7966500489169911	0.7453402378629074	9.256841626392989	-0.8093896607851206	4.987326554231935	-1.864622209837159	0.2446351931330472	0.2790178571428572	1.351473922902494
12873.07739257812	-1.148277802880588	1.152896919442948	9.725739471732235	-2.154954777727063	3.930993896384998	-1.521257955381701	0.2446351931330472	0.2745535714285714	1.344671201814059
12892.60864257812	-0.7472051016597998	0.3408053843499314	9.414387717000391	-2.816152905390747	-1.16894034448312	-2.202907035957948	0.2489270386266094	0.2678571428571428	1.321995464852608
12912.13989257812	-0.8082461193179857	0.8767693298800487	9.396040503227148	-3.872033316689367	-2.661923126241768	-3.288231507013816	0.2446351931330472	0.265625	1.344671201814059
12931.67114257812	-0.8293614799825265	0.8769804834866941	9.466760243150617	-3.187353410878329	-1.201554455899607	-2.929429365385189	0.2424892703862661	0.2589285714285714	1.333333333333333
12951.20239257812	-1.007013751833078	0.7777469051950987	9.885048652695547	-2.541546604406977	-0.1569037437963527	-3.64638419680845	0.240343347639485	0.2678571428571428	1.346938775510204
12970.73364257812	-0.7311200742075613	0.643674837105712	9.846701298307153	-2.811519133067832	-2.99764750926098	-2.544239519079538	0.2575107296137339	0.2700892857142857	1.319727891156463
12990.26489257812	-1.352641469796458	0.7812031823747324	9.753942898013193	-1.161742160448263	3.143854037067352	-2.57265899509043	0.2489270386266094	0.2723214285714285	1.356009070294785
13009.79614257812	-0.9871186005099952	0.4543156304495445	9.936349846917883	-0.7394955809683037	1.039135579645648	-1.104317958063305	0.2553648068669528	0.2678571428571428	1.315192743764172
13029.32739257812	-1.035820108963119	0.293186483917914	9.704459875903764	-0.7641544468064653	0.6412663804365034	-1.820256903819631	0.2618025751072962	0.2723214285714285	1.340136054421769
13048.85864257812	-0.9334776684809356	0.463880231230264	9.674297460338463	-0.03800892818165938	-1.882253441867148	-1.420786565008271	0.2317596566523605	0.2544642857142857	1.346938775510204
13068.38989257812	-0.8091208720412495	0.4828386834678873	9.48351577555353	1.353104319271718	0.3319892955476995	-0.33597003678587	0.2575107296137339	0.2700892857142857	1.328798185941043
13087.92114257812	-0.6100622874609233	0.7737773905513771	9.985820582827024	0.5985303336438628	2.819811599791825	-1.455076430188351	0.2467811158798283	0.2589285714285714	1.328798185941043
13107.45239257812	-0.84344241377755	0.6043940200973715	9.854445459387662	0.9563807767879473	1.368041468550309	-1.433401720013054	0.240343347639485	0.2723214285714285	1.342403628117914
13126.98364257812	-1.279719531543328	0.6491608316790697	9.604606215557311	2.038648396240784	0.325822482261621	-0.3221974871136279	0.2510729613733906	0.2723214285714285	1.328798185941043
13146.51489257812	-1.231266509429607	0.7193833721650033	9.86134482051172	1.717629793587552	-0.3775887143648157	0.03812848301539919	0.2467811158798283	0.2723214285714285	1.35827664399093
13166.04614257812	-0.6625719407996101	0.39046410324638	9.114336937103875	2.450450343384106	-2.158916415339466	0.7900226314527315	0.240343347639485	0.2723214285714285	1.324263038548753
13185.57739257812	-0.7059036788358022	0.5424125721418934	9.365878087661848	1.392841589769432	-0.718828229841633	0.3947573443096323	0.2360515021459227	0.2544642857142857	1.337868480725624
13205.10864257812	-0.7198795614954683	0.9364917249078841	9.743058190363161	0.6901778492919806	-1.834873978063938	-0.3275599334493484	0.2553648068669528	0.3013392857142857	1.353741496598639
13224.63989257812	-1.114950206501899	0.6677151586306758	9.454204323659257	0.2537170363104961	0.2519957203280034	-2.155718997772034	0.2489270386266094	0.2678571428571428	1.333333333333333
13244.17114257812	-0.4762629688950675	0.3785000034263244	9.871194848690429	1.014966053110101	-1.493634462587121	-0.6841887947435815	0.2553648068669528	0.2723214285714285	1.324263038548753
13263.70239257812	-1.129885690878771	0.8092786548885859	9.927344598081195	-2.131785916112488	-5.2125419275043	-3.227920370989653	0.2639484978540773	0.2790178571428572	1.321995464852608
13283.23364257812	-0.9516717994968865	0.6458803543586054	9.452894235402931	1.691242585433336	2.15761305368252	0.01224872117184152	0.2618025751072962	0.28125	1.324263038548753
13302.76489257812	-0.521903852923839	0.1668352001454	9.333242435241049	1.713860192422664	-0.01541703321519637	0.03443137418060524	0.2424892703862661	0.2879464285714285	1.324263038548753
13322.29614257812	-1.249527307512227	0.5074447680246172	9.646608302243095	1.378627356267907	-0.7366769888713958	0.0349393170140721	0.2467811158798283	0.2767857142857142	1.344671201814059
13341.82739257812	-0.7402009780024048	1.128614130992146	9.734383514526197	0.9476644867673646	-1.945049938885554	-2.479581822386589	0.2489270386266094	0.2879464285714285	1.331065759637188
13361.35864257812	-0.7396575403983449	0.8962854642928725	9.6800397541202	-0.05222316168318416	-1.900102200896911	-1.780604592303831	0.2381974248927039	0.2901785714285714	1.337868480725624
13380.88989257812	-0.7213381561056218	0.673880048227723	9.888917651378513	2.041553826247644	1.430186284740242	0.02652921367755048	0.2660944206008584	0.28125	1.346938775510204
13400.42114257812	-0.8989844085426087	0.39282822792381	9.286195956301693	1.007426850780325	-0.7692911002878819	-0.6915830124131694	0.2510729613733906	0.2834821428571428	1.335600907029479
13419.95239257812	-1.083968078741476	0.5562942262419602	9.417216037412903	1.401244963257235	-2.909707075769112	0.05712197002283582	0.2639484978540773	0.2678571428571428	1.333333333333333
13439.48364257812	-0.4623739554434853	0.802603537534233	9.50270166679751	1.407919994428984	-2.16751495444011	0.4095457796488081	0.2639484978540773	0.2633928571428572	1.337868480725624
13459.01489257812	-0.8397716846824685	0.7154684239175318	9.487372549879497	1.725168995917328	-1.101932076664054	0.0455227006849871	0.2467811158798283	0.2723214285714285	1.319727891156463
13478.54614257812	-0.9419727101747479	0.6457833634653839	9.503393466454389	0.03306223932596454	-1.793009646718334	0.37830357146953	0.2553648068669528	0.2879464285714285	1.331065759637188
13498.07739257812	-0.5961449910113602	0.8140422579909219	9.614499101136023	-0.7435780986659715	-4.102662992568074	-2.49183054355843	0.2510729613733906	0.2879464285714285	1.310657596371882
13517.60864257812	-0.7388736973114479	0.4316311612155388	9.601655445430509	-0.7017995693194241	-2.582581231850545	-1.067346869715365	0.2639484978540773	0.2678571428571428	1.331065759637188
13537.13989257812	-0.433161535271005	0.6103922214133162	9.642684139345407	-0.3712005054875823	-0.03261411141648625	-0.7265223294272415	0.2553648068669528	0.2723214285714285	1.340136054421769
13556.67114257812	-0.5148169004866431	0.4798956437523413	9.644955354786758	-0.0539515039992382	1.03296876635957	-1.090545408391063	0.2639484978540773	0.2633928571428572	1.337868480725624
13576.20239257812	-0.8731356449157042	0.7562061039239046	9.762544083407153	-0.3532166708211696	-0.3769370335363428	-0.3630071932968873	0.2424892703862661	0.2767857142857142	1.324263038548753
13595.73364257812	-0.6960672149520425	0.4817081468969953	9.402639862551196	-0.2984009956639044	-2.876441283524152	0.3825086231377908	0.2467811158798283	0.2879464285714285	1.333333333333333
13615.26489257812	-1.124855357666469	0.5061980485261597	9.424311276850965	0.03306223932596454	-1.793009646718334	0.37830357146953	0.2618025751072962	0.2611607142857142	1.326530612244898
13634.79614257812	-0.9822377631441629	0.7370951049041691	9.448266110334655	-1.389071988604544	0.3566565486920137	-0.3910602354748384	0.2703862660944206	0.2857142857142857	1.328798185941043
13654.32739257812	-0.8814387662660753	0.7865921654404386	9.572448055178953	-0.6742352734744016	-1.080348230162779	-0.002681223167860238	0.259656652360515	0.2901785714285714	1.340136054421769
13673.85864257812	-0.6560971132472847	0.2085811731526749	9.487262345136637	-1.041666177797096	-1.475134022728885	-0.7255064437603078	0.2660944206008584	0.2790178571428572	1.326530612244898
13693.38989257812	-1.044630304063004	0.495294787889115	9.565071222626884	0.3891843401539951	-0.3117088107033704	1.090037465557596	0.259656652360515	0.28125	1.337868480725624
