Time Stamp	Accelerometer X	Accelerometer Y	Accelerometer Z	Gyroscope X	Gyroscope Y	Gyroscope Z	Magnetometer X	Magnetometer Y	Magnetometer Z
1751.983642578125	-1.067153795213021	2.333903861184454	8.756195847832684	-42.94696652410341	4.228637344698944	-10.97316814997222	0.2060085836909871	-0.4040178571428571	0.7324263038548753
1771.514892578125	-0.2732937444831431	-9.593226658514766	-2.262462286379573	3.09916257986232	-0.009901900757590711	0.4217945008206497	0.1802575107296137	-0.3928571428571428	0.7052154195011338
1791.046142578125	-0.01079614805868591	-9.626154664782041	-1.981609683927327	-1.398652449783154	-1.489899375115608	-1.092210745891989	0.1952789699570815	-0.3883928571428571	0.7006802721088435
1810.577392578125	0.3344032845066994	-9.589202618703654	-1.807675389445452	0.04814064398551635	-3.241696371316811	0.3930920068087058	0.1738197424892704	-0.3995535714285714	0.7142857142857143
1830.108642578125	0.3791592735126396	-9.589650178593715	-2.201641636978249	0.3825093089822462	-1.053900932032372	0.7376136559316233	0.1824034334763948	-0.4017857142857142	0.7029478458049887
1849.639892578125	-0.1126294945772148	-9.130186836367361	-2.002356664727496	0.3218827738112591	-0.7631242870018035	-0.7053555620854115	0.1974248927038627	-0.40625	0.7210884353741497
1869.171142578125	-0.00797794933131173	-9.777697998284467	-2.263429556664745	0.7006224816286173	-1.454853537884556	0.02856098501141791	0.1802575107296137	-0.4017857142857142	0.7165532879818595
1888.702392578125	-0.2108224152127844	-9.48274026069636	-2.3871462338236	1.080226360604003	-3.613118272395548	0.4174479401518629	0.2124463519313305	-0.3928571428571428	0.7074829931972789
1908.233642578125	-0.1121183803994187	-9.645343462660653	-2.053468082507114	0.05654401747331927	-5.43257521724429	0.0554566325219093	0.1866952789699571	-0.3839285714285714	0.7097505668934241
1927.764892578125	-0.1189851294951926	-9.988709138604039	-2.387201336195031	1.717316877054772	-5.881558967728156	-1.345686993644932	0.2167381974248927	-0.4107142857142857	0.7142857142857143
1947.296142578125	0.4696611976827087	-9.721868329148547	-2.068160584597398	1.489987048898491	-8.668756456103496	0.8359117659706595	0.1995708154506438	-0.40625	0.7165532879818595
1966.827392578125	0.5008695894269779	-9.368645059530635	-2.127775269228404	0.1096313503145304	-4.99900849997562	1.491031632869356	0.1995708154506438	-0.3973214285714285	0.7074829931972789
1986.358642578125	0.7431629417647049	-9.573088195074213	-1.867314584633746	-1.034991146625347	-0.7329419013998837	-0.3730826341343355	0.2253218884120172	-0.4129464285714285	0.7006802721088435
2005.889892578125	-0.02571955237956948	-9.676510481243882	-2.530085578369583	-0.04264270050457435	-0.05354627708928829	-1.079454081886681	0.1909871244635193	-0.4017857142857142	0.7210884353741497
2025.421142578125	0.3479811849804927	-9.993378801748797	-2.145057273559473	0.7547889942925193	5.51776529301835	-5.435765326281744	0.1909871244635193	-0.4107142857142857	0.6757369614512472
2044.952392578125	-0.2918737364001178	-9.441525707080446	-2.445279421212706	1.656139087258538	1.379723414293993	-1.059811143045251	0.2081545064377682	-0.4174107142857142	0.7256235827664399
2064.483642578125	0.4708369623130541	-10.16632453123929	-2.185737047631934	-0.04177852934654733	-1.520081760717528	-1.424483673843065	0.203862660944206	-0.3950892857142857	0.7165532879818595
2084.014892578125	-0.1792786679210283	-9.856793071906651	-2.480296473203288	3.028091412354696	-0.09914569590640453	-1.377295635657152	0.203862660944206	-0.4285714285714285	0.7142857142857143
2103.546142578125	0.8104282391928118	-9.876791151078798	-2.471395347852607	1.3774502685771	-4.774111758606496	-1.003846567689875	0.203862660944206	-0.3950892857142857	0.7006802721088435
2123.077392578125	0.08949169341274552	-9.738268654307864	-2.826720361682715	-0.7290509486316669	1.41915601982503	-0.7481970396025384	0.2081545064377682	-0.4308035714285714	0.7278911564625851
2142.608642578125	-0.3050395131890478	-9.724222332140839	-2.149109905585016	-4.280065662667803	-0.5393559097903012	-4.396754516745381	0.1974248927038627	-0.4107142857142857	0.6961451247165533
2162.139892578125	-0.4167295257327512	-9.470580179490149	-2.204598447133046	-0.3372740950035907	-3.29215924176306	-0.6932483499140959	0.1824034334763948	-0.390625	0.7256235827664399
2181.671142578125	0.3595247298138087	-9.700564944267835	-2.279003593625767	-0.3732417643364163	-2.603513397523347	-1.420278622174804	0.184549356223176	-0.3995535714285714	0.7120181405895691
2201.202392578125	0.4710430241554857	-9.499659925191052	-2.2063432318751	0.6060695359736387	2.095468237492586	-1.447682212518763	0.1888412017167382	-0.4241071428571428	0.7142857142857143
2220.733642578125	0.0653763147480967	-9.788532551026272	-2.455998821748445	0.9676895802826111	0.2815264251014504	-1.422310393508672	0.1909871244635193	-0.4285714285714285	0.7074829931972789
2240.264892578125	-0.1598299839232142	-9.604462306221375	-2.384348546454091	1.710954762415803	-1.119780835693817	-0.3142953266105731	0.1909871244635193	-0.4084821428571428	0.7074829931972789
2259.796142578125	0.3478640125602864	-9.629741266388232	-2.13334003153885	-0.003769601164887951	0.3621716811496193	-0.003697108834793953	0.1952789699570815	-0.4107142857142857	0.7142857142857143
2279.327392578125	0.195547328715842	-9.355490826822514	-2.207794096073997	-1.034991146625347	-0.7329419013998837	-0.3730826341343355	0.1909871244635193	-0.4196428571428571	0.6984126984126985
2298.858642578125	0.04468317883912664	-9.818628649970211	-2.427501557382051	0.0008641711580270224	-1.46653548362824	-0.3450295919563844	0.2081545064377682	-0.4174107142857142	0.7188208616780045
2318.389892578125	0.2378871416085639	-10.04278291182013	-2.360142732284965	0	0	0	0.2060085836909871	-0.4084821428571428	0.7210884353741497
2337.921142578125	-0.1730785894919451	-9.412410628246496	-2.079896152846305	0.6591568688148498	2.529034954761257	-0.01210721217131558	0.1952789699570815	-0.40625	0.7097505668934241
2357.452392578125	0.01022830296948799	-9.474849757777172	-2.043238460214105	0.3427720384845327	-0.003083406643039275	0.006886274836121049	0.203862660944206	-0.4263392857142857	0.7346938775510204
2376.983642578125	0.1897230513459354	-9.244321472937704	-1.625366359083333	-0.3523524996631426	-1.843472517164583	-0.7080367852532717	0.1909871244635193	-0.3973214285714285	0.6938775510204082
2396.514892578125	-0.2922373749455855	-9.34051196968489	-2.408915566665942	-0.3456774684913937	-1.101280395835581	-0.3556129756272994	0.2017167381974249	-0.4129464285714285	0.7142857142857143
2416.046142578125	0.3692137180652397	-9.852176985665503	-2.227494255503567	0.001728342316054045	-2.93307096725648	-0.6900591839127689	0.1974248927038627	-0.40625	0.6961451247165533
2435.577392578125	-0.454774363360672	-9.712623973538111	-2.481747337402186	-1.052110810133733	-1.855154462908267	-1.081627362221074	0.1931330472103004	-0.4196428571428571	0.7052154195011338
2455.108642578125	0.6045433510284014	-9.733318160783014	-2.291069796717688	-1.016143140800907	-2.54380030714798	-0.3545970899603657	0.1995708154506438	-0.40625	0.7278911564625851
2474.639892578125	0.1251344964264385	-9.36488770860063	-2.309368009990786	1.461871498428222	-3.20048372079968	1.500091188039871	0.2060085836909871	-0.4107142857142857	0.7052154195011338
2494.171142578125	0.2592408875418002	-9.598552004835016	-2.45470099907798	1.998046954585043	2.843175491279194	-0.7078952762527458	0.184549356223176	-0.4174107142857142	0.7006802721088435
2513.702392578125	-0.007311278664621063	-9.373664260950729	-2.330096623333811	1.68370338310356	2.881956415981759	0.004854503502253613	0.1995708154506438	-0.4084821428571428	0.7210884353741497
2533.233642578125	0.3568257237207823	-9.579325832994785	-2.009102984323122	-0.3883201689959681	-1.15482667292487	-1.43506705751398	0.2060085836909871	-0.4174107142857142	0.6984126984126985
2552.764892578125	0.4839643550332958	-9.651304290014981	-2.478068156390798	0.08701374332520274	-2.825978413077904	1.468848979860593	0.1952789699570815	-0.4084821428571428	0.6984126984126985
2572.296142578125	0.6268183146101556	-9.814348991226911	-2.477749828362504	-2.123933797249933	-0.4329150364401975	-1.836710676659733	0.1931330472103004	-0.4151785714285714	0.7142857142857143
2591.827392578125	-0.2998960479848222	-9.542455584974698	-2.663456426007573	-1.464776928435083	2.096119918321059	-1.848817888831049	0.1952789699570815	-0.4107142857142857	0.7029478458049887
2611.358642578125	-0.04961270748865474	-9.423746297167538	-2.181586393991669	-0.71860631629503	1.799176460004413	-0.3920761211417721	0.1974248927038627	-0.3995535714285714	0.7256235827664399
2630.889892578125	0.4751865245885353	-8.994650855144878	-1.600285111914753	0.6449426353133251	2.511186195731494	-0.3719252394668758	0.1824034334763948	-0.4017857142857142	0.7210884353741497
2650.421142578125	0.04175992897639513	-9.323649922522089	-2.135176571108901	0.9793113003100549	4.698981635015933	-0.02740359034395825	0.1995708154506438	-0.4084821428571428	0.7165532879818595
2669.952392578125	-0.1307104936012424	-9.978490874861969	-2.235073088855354	1.017007311958934	1.07726482351974	0.009567498003981286	0.1952789699570815	-0.4174107142857142	0.7142857142857143
2689.483642578125	0.1847229801168953	-9.668513896467836	-2.145767399444636	0.2963597368150704	0.3055419974172918	-1.076264915885354	0.1824034334763948	-0.4196428571428571	0.6961451247165533
2709.014892578125	0.1651167194160452	-9.658216823759819	-2.225957655890236	-1.462184414961001	-2.303486532563661	-2.883906664700203	0.1995708154506438	-0.3995535714285714	0.7392290249433107
2728.546142578125	-0.3864484122794244	-9.592095111836803	-2.171485302669804	-0.3674309043226944	-0.3947857925661056	-0.7228252205924476	0.1952789699570815	-0.40625	0.7188208616780045
2748.077392578125	0.1746016660391861	-9.63810965302403	-2.154044154939018	-2.230972634090381	0.1664870126507018	-4.362831085398243	0.2017167381974249	-0.4151785714285714	0.7188208616780045
2767.608642578125	0.2136545905237089	-9.729409273177968	-1.977703950330072	-1.866447159774548	-0.5430909972618133	-3.988732565596974	0.1759656652360515	-0.4084821428571428	0.7097505668934241
2787.139892578125	0.6917018207943096	-10.01701802830895	-1.82324330392076	1.042530348955123	0.008598539100644939	0.3804768518039234	0.1888412017167382	-0.40625	0.7074829931972789
2806.671142578125	0.4698268552423105	-9.661263925118082	-2.08472634055759	0.3419078673265057	1.463452076985201	0.3519158667925055	0.2060085836909871	-0.4129464285714285	0.7165532879818595
2826.202392578125	-0.173102832061643	-9.372006345416759	-2.077471895876521	-0.3749701066524703	0.3295575697331331	-0.7302194382620355	0.2060085836909871	-0.3950892857142857	0.7029478458049887
2845.733642578125	-0.2122365651118252	-9.48272611919737	-2.245731243919519	-0.3778755366593312	-0.7748062327454877	-1.078946139053214	0.2103004291845494	-0.4196428571428571	0.7165532879818595
2865.264892578125	-0.02518015520379249	-9.56540476410453	-2.584025295947282	0.02175343583130069	-0.7064946032694759	0.3672122449651481	0.2060085836909871	-0.4129464285714285	0.7165532879818595
2884.796142578125	0.3993715984559358	-9.599953311944159	-2.182057804777256	-0.7612490167996044	1.745630182915124	-1.471530203028453	0.2017167381974249	-0.4017857142857142	0.7029478458049887
2904.327392578125	0.0573439433215449	-9.364209803069581	-1.652761679093266	-1.175092222791761	1.65946979440935	-3.277506614342375	0.2017167381974249	-0.4129464285714285	0.7074829931972789
2923.858642578125	-0.07099271620573033	-9.6558557294036	-2.084401848814721	-0.3419078673265057	-1.463452076985201	-0.3519158667925055	0.2103004291845494	-0.4107142857142857	0.7052154195011338
2943.389892578125	0.753902441369709	-10.12875114562582	-1.920856381868862	-0.2925901356501825	-0.6677136785669111	1.079962024720148	0.2060085836909871	-0.4129464285714285	0.7188208616780045
2962.921142578125	0.2368325898267078	-9.800348123878067	-2.254687554099351	-0.004633772322914974	1.828707164777859	0.3413324831215905	0.1909871244635193	-0.4084821428571428	0.7188208616780045
2982.452392578125	0.1554681354474439	-9.910645590445386	-2.28150742229541	0.32478820381812	0.3412395154768173	-0.3566288612942332	0.203862660944206	-0.4017857142857142	0.7120181405895691
3001.983642578125	-0.1075183527992531	-9.231248048795242	-2.513470842523674	0.329421976141035	-1.487467649301042	-0.6979613444158236	0.1995708154506438	-0.3883928571428571	0.7029478458049887
3021.514892578125	0.3592317987632931	-9.549046863442181	-2.249710488574208	1.634385651427237	2.086218017563469	-1.427023388010399	0.2167381974248927	-0.4129464285714285	0.7074829931972789
3041.046142578125	-0.02175383079097073	-9.211903673813303	-1.906249573964152	1.279440638290013	4.642351951283606	-1.099971397394518	0.2103004291845494	-0.390625	0.7120181405895691
3060.577392578125	-0.169862408578698	-9.553856931469769	-2.401514244171015	0.2441365751318863	-1.594560203479619	-2.856869508189185	0.1995708154506438	-0.4196428571428571	0.6961451247165533
3080.108642578125	0.4397194802051517	-9.66096285136771	-2.135213326637618	-1.111873174146693	-3.030913301505939	-2.869626172194494	0.2017167381974249	-0.4040178571428571	0.7006802721088435
3099.639892578125	0.6929381918488996	-9.552383927373036	-1.946880409379756	-1.705456818934861	-2.175461812712283	-0.3720667484674017	0.1866952789699571	-0.4196428571428571	0.6984126984126985
3119.171142578125	0.1554216705221897	-10.00155421670522	-2.27686092976999	-0.392953941318883	0.6738804918529897	-1.09373457439239	0.1995708154506438	-0.3883928571428571	0.7324263038548753
3138.702392578125	0.07315822084996415	-9.96032754180446	-2.213781268669884	-0.3126152291654292	-2.894290042553915	0.02269059584223058	0.2188841201716738	-0.4196428571428571	0.7165532879818595
3158.233642578125	0.4305234242042434	-9.994204224141034	-2.236015889812099	-1.366454381615216	-1.816373538205702	-0.3688775824660747	0.184549356223176	-0.4040178571428571	0.7029478458049887
3177.764892578125	0.23695784310348	-9.840753416814875	-2.267212881776569	-1.728074425924188	-0.002431725814566389	-0.3942494014761655	0.1995708154506438	-0.4129464285714285	0.7210884353741497
3197.296142578125	-0.3515773722966394	-9.45102968082249	-2.59736481115238	-1.816265256940198	-1.213888082471764	-2.901884266040705	0.2060085836909871	-0.4084821428571428	0.6961451247165533
3216.827392578125	0.306758550508013	-9.316198898636394	-2.104426479372729	-0.6658318999865986	-3.271227076090259	-0.3403165974546568	0.1974248927038627	-0.421875	0.7052154195011338
3236.358642578125	0.2367356195479164	-9.638730992559116	-2.244990526220214	-0.6136087383034146	-1.371124875193348	1.440287994849175	0.2081545064377682	-0.4107142857142857	0.7029478458049887
3255.889892578125	0.4407841330577153	-9.751882588805326	-2.241678611893976	-0.6980299681545362	-2.944752913000165	-1.063649760880571	0.1974248927038627	-0.40625	0.7097505668934241
3275.421142578125	-0.02538217661794117	-9.565402743890388	-2.563823154532413	-2.398540098233702	-1.444951637126965	-0.3932335158092318	0.2060085836909871	-0.4196428571428571	0.7120181405895691
3294.952392578125	0.07619056227633594	-9.627024531885391	-2.517015411307063	-1.716765622429525	-1.088946769263424	-0.3831580749717836	0.2188841201716738	-0.4084821428571428	0.7052154195011338
3314.483642578125	-0.1593814963838041	-9.341840528470508	-2.429197300395099	-0.397587713641798	2.502587656630849	-0.7524020912707992	0.2017167381974249	-0.3928571428571428	0.7120181405895691
3334.014892578125	0.02830324135109107	-9.626545658676138	-1.809915971843801	-0.07193533866565094	1.377291688479426	-1.454060544521417	0.1995708154506438	-0.4040178571428571	0.7165532879818595
3353.546142578125	0.02950728897941724	-9.44473951733424	-1.930320734676418	0.9639199791177231	0.6436981062510698	-1.426007502343466	0.2167381974248927	-0.4017857142857142	0.7097505668934241
3373.077392578125	-0.06763512030257915	-9.696293345766671	-2.420161439129839	0.9856734149490239	-0.06279649701840612	-1.058795257378317	0.2081545064377682	-0.4017857142857142	0.7165532879818595
3392.608642578125	0.03307094672500008	-9.323563032699575	-2.286686509234702	-0.7235530051507248	-1.876086628581069	-1.434559114680513	0.2017167381974249	-0.3995535714285714	0.7210884353741497
3412.139892578125	0.2301193770056869	-10.06290725437612	-2.603774435262567	-0.713108372814088	-1.496066188401687	-1.078438196219747	0.2167381974248927	-0.4084821428571428	0.7188208616780045
3431.671142578125	0.1669409727858079	-9.668336076394526	-2.4083829928665	-1.031221545460459	-1.095113582549503	-0.3693855252995415	0.203862660944206	-0.40625	0.7233560090702948
3451.202392578125	0.07613601649451579	-9.536114895518482	-2.511560833125048	-0.3398666084776718	1.10744720912166	0.3418404259550573	0.1995708154506438	-0.4040178571428571	0.7210884353741497
3470.733642578125	-0.04845714499972426	-9.666182095216669	-2.297142642884717	-0.6922191081408143	-0.7360253080429229	-0.3661963592982144	0.2124463519313305	-0.3995535714285714	0.7188208616780045
3490.264892578125	0.03437398484625911	-9.475091214595938	-2.416990321360605	-1.453468124940419	1.009604874872201	-1.837726562326667	0.2017167381974249	-0.4040178571428571	0.6938775510204082
3509.796142578125	0.2649520741486436	-9.517801035893003	-2.005411496497015	-0.08991917333206367	1.721614610599283	-1.817575680651771	0.203862660944206	-0.3816964285714285	0.7142857142857143
3529.327392578125	0.2181919914854884	-10.05268697041991	-2.431444046508023	0.6240533706400514	1.75114531537273	-1.084167076388408	0.1952789699570815	-0.3973214285714285	0.7097505668934241
3548.858642578125	-0.1318862582315878	-10.03908517782173	-2.117496625820819	-1.077633847129921	-0.786488178489172	-1.452536716021016	0.1974248927038627	-0.40625	0.7165532879818595
3568.389892578125	0.156227735964643	-9.829845105642475	-2.357467474015317	-0.6420372053064641	-1.406822393252873	0.7206519402580541	0.2017167381974249	-0.4084821428571428	0.7210884353741497
3587.921142578125	0.07115820884989214	-9.657277238654157	-2.013780068662684	-2.133514258428542	-2.27947096024782	-2.537861187076884	0.2145922746781116	-0.4084821428571428	0.7029478458049887
3607.452392578125	-0.01822653689993465	-9.535171269984536	-2.258978963067759	-0.7139725439721151	-0.02953070477344698	-0.7334086042633625	0.1952789699570815	-0.40625	0.7142857142857143
3626.983642578125	-0.112829495777222	-9.301902008072533	-1.982356544726776	0.6893136781339535	-0.3683384944356979	0.01746965850703605	0.1866952789699571	-0.3794642857142857	0.7346938775510204
3646.514892578125	-0.4434106175859484	-9.288495186753435	-2.597713751609247	0.6420372053064641	1.406822393252873	-0.7206519402580541	0.1888412017167382	-0.3928571428571428	0.7120181405895691
3666.046142578125	0.3049504588513823	-9.669716171255182	-1.923617313709654	0.3068043691517073	0.6855624375966739	-0.7201439974245873	0.2081545064377682	-0.3973214285714285	0.6984126984126985
3685.577392578125	-0.00742441065654433	-9.858511614479296	-2.318783424141485	-0.01798383466641273	0.3443229221198566	-0.3635151361303542	0.203862660944206	-0.4129464285714285	0.7120181405895691
3705.108642578125	0.003381756015128963	-9.515185332711667	-2.378991928043508	-0.3598917019929185	-1.119129154865344	-0.7154310029228597	0.2017167381974249	-0.3928571428571428	0.7301587301587302
3724.639892578125	0.5740056703791058	-10.02594207690581	-2.298526221584046	-0.6988941393125633	-1.478217429371924	-0.7186201689241868	0.1952789699570815	-0.4040178571428571	0.7165532879818595
3744.171142578125	0.08317044336403311	-9.80891251251445	-2.194595356811473	-0.7064333416423392	-0.7538740670726856	-0.7260143865937746	0.1952789699570815	-0.4017857142857142	0.7278911564625851
3763.702392578125	-0.4857484102645288	-9.783021303776144	-2.445567136812428	1.326717111117503	2.867191063595035	-0.3618497986294277	0.2167381974248927	-0.3883928571428571	0.7233560090702948
3783.233642578125	-0.08778683882163074	-9.28195041444007	-2.445805913755293	-0.3305990638318419	-2.549967120434059	-0.3408245402881236	0.1974248927038627	-0.3973214285714285	0.7006802721088435
3802.764892578125	0.3382477520179489	-9.599342073479777	-2.192122140570403	-0.387455997837941	-2.62136215655311	-1.780096649470365	0.2188841201716738	-0.4107142857142857	0.6961451247165533
3822.296142578125	0.3186031072484106	-9.356721384607841	-2.268473990147178	0.2954955656570434	1.772077481045532	-0.7312353239289692	0.203862660944206	-0.3861607142857142	0.6916099773242631
3841.827392578125	0.2984998738687547	-9.528237523991216	-2.2989669787122	1.337161743454139	3.247211503774417	-0.005728880168661382	0.2060085836909871	-0.4040178571428571	0.7097505668934241
3861.358642578125	0.1772117827099871	-10.28460040065539	-2.415055822019121	0.7290509486316669	-1.41915601982503	0.7481970396025384	0.203862660944206	-0.3973214285714285	0.7165532879818595
3880.889892578125	0.848790250440946	-9.82666972068623	-2.22596381960481	-1.715901451271498	-2.555482252891665	-0.7281876669281681	0.184549356223176	-0.3883928571428571	0.7142857142857143
3900.421142578125	0.1507044705018178	-9.546961590159565	-1.805140927732806	-0.3787397078173582	0.6917292508827525	-0.7339165470968294	0.1995708154506438	-0.4017857142857142	0.7210884353741497
3919.952392578125	0.1632116574806231	-9.345066460009152	-2.035451462348024	-0.3494470696562816	-0.7391087146859622	-0.3593100844620934	0.1866952789699571	-0.4084821428571428	0.7120181405895691
3939.483642578125	0.3303325117827434	-9.710374032188536	-2.421006280315151	-0.6742352734744016	-1.080348230162779	-0.002681223167860238	0.1974248927038627	-0.3973214285714285	0.6961451247165533
3959.014892578125	0.3788319988217188	-10.05429337049327	-2.168914167886162	-1.438389720280867	-0.4390818497262761	-1.822938126987491	0.1974248927038627	-0.40625	0.7120181405895691
3978.546142578125	0.2463599609468199	-9.345897943043814	-2.187016502845255	0.02348177814735473	-3.639565570525956	-0.3228469389476207	0.2124463519313305	-0.3973214285714285	0.7165532879818595
3998.077392578125	0.1588822973465567	-9.708659530044175	-2.622923612206691	-0.007539202329775903	0.7243433622992387	-0.007394217669587907	0.203862660944206	-0.4040178571428571	0.7165532879818595
4017.608642578125	0.003373675158563015	-9.838417575135425	-2.378183842386913	-0.3674309043226944	-0.3947857925661056	-0.7228252205924476	0.203862660944206	-0.3883928571428571	0.7097505668934241
4037.139892578125	0.5998402925070199	-9.975695372622042	-1.820763944579545	-1.052110810133733	-1.855154462908267	-1.081627362221074	0.184549356223176	-0.3973214285714285	0.7142857142857143
4056.671142578125	0.5599489791537801	-9.833882318074368	-1.913265262316786	0.3097097991585682	1.789926240075295	-0.3714172966334089	0.2124463519313305	-0.3973214285714285	0.7233560090702948
4076.202392578125	0.4574085576857308	-9.842957923960698	-1.863304748164915	1.315408307622839	3.953706107043893	-0.3729411251338095	0.1995708154506438	-0.4174107142857142	0.7233560090702948
4095.733642578125	-0.0868858233145276	-9.605191747827464	-2.535907464465608	0.9395740298123415	5.749799160405265	-0.7581309714394606	0.1974248927038627	-0.3973214285714285	0.7120181405895691
4115.264892578125	-0.4354307304982152	-9.621908318957646	-2.375294297117257	0.976405870303194	3.594617832537313	-0.3761302911351366	0.2145922746781116	-0.3928571428571428	0.7210884353741497
4134.796142578125	-0.493869712342166	-9.550616858432136	-2.653845092314009	0.01130880349466385	-1.086515043448858	0.01109132650438186	0.2253218884120172	-0.3772321428571428	0.7097505668934241
4154.327392578125	0.106116118040761	-9.829343989463236	-2.448346497953653	-0.2728779586677157	-3.945107567943248	0.7534179769377329	0.2145922746781116	-0.3973214285714285	0.7029478458049887
4173.858642578125	0.6826997053509842	-9.663392653619168	-1.943439922853514	-0.6913549369827874	-2.202560791671163	-0.7112259512545989	0.1974248927038627	-0.3861607142857142	0.7120181405895691
4193.389892578125	0.2043797461712826	-9.426286221704137	-2.070627678352754	-0.0539515039992382	1.03296876635957	-1.090545408391063	0.2060085836909871	-0.4017857142857142	0.7188208616780045
4212.921142578125	0.2036544892944888	-9.901026443882845	-1.998101990673375	0	0	0	0.1931330472103004	-0.4017857142857142	0.7142857142857143
4232.452392578125	0.2771340066506695	-9.952266289561459	-2.203196583434294	0.323924032660093	1.807774999105058	-0.01159926933784872	0.2081545064377682	-0.3928571428571428	0.7142857142857143
4251.983642578125	0.1220940329146407	-9.688089627197837	-3.025729822076315	-0.7139725439721151	-0.02953070477344698	-0.7334086042633625	0.203862660944206	-0.4107142857142857	0.7233560090702948
4271.514892578125	0.106041370117526	-9.536413949054712	-2.440871705630152	-0.6922191081408143	-0.7360253080429229	-0.3661963592982144	0.2124463519313305	-0.4129464285714285	0.7120181405895691
4291.046142578125	0.3426841422726541	-9.922618760614647	-2.63576116604092	-1.391977418611404	-0.7477072537866071	-0.7397869362660168	0.1931330472103004	-0.390625	0.7074829931972789
4310.577392578125	0.2668328935143679	-9.790547116813935	-2.193493433069442	0.971772097980279	5.423324997315172	-0.03479780801354615	0.2145922746781116	-0.4017857142857142	0.7142857142857143
4330.108642578125	0.1684763355333379	-9.870371632042204	-2.561919267619502	-0.7290509486316669	1.41915601982503	-0.7481970396025384	0.1995708154506438	-0.40625	0.7210884353741497
4349.639892578125	0.2850472266717335	-9.16446663388288	-1.974110422275397	-0.7357259798034157	0.676963898496029	-1.100620849228511	0.203862660944206	-0.40625	0.7301587301587302
4369.171142578125	-0.2332387937844428	-8.997667612062157	-2.186324703188376	0.6600210399728769	1.062499471133017	-0.3571368041277	0.2253218884120172	-0.4040178571428571	0.7120181405895691
4388.702392578125	0.2957281400666347	-9.790836069279456	-2.021793598500202	0.6750994446324288	-0.3861872534654606	-0.3423483687885241	0.2060085836909871	-0.3861607142857142	0.7006802721088435
4408.233642578125	-0.03318222341822197	-9.191587369685012	-1.783818474504333	-0.002905430006860929	-1.104363802478621	-0.3487267007911783	0.1974248927038627	-0.3928571428571428	0.7256235827664399
4427.764892578125	0.07951183555380038	-9.940189057749478	-1.828734575788201	-2.129744657263654	-2.641642641397439	-2.53416407824209	0.1888412017167382	-0.3973214285714285	0.7142857142857143
4447.296142578125	0.03685682802614648	-9.909459477371172	-2.665274639349341	-0.6846799058110384	-1.460368670342161	-0.3588021416286265	0.2081545064377682	-0.3995535714285714	0.7233560090702948
4466.827392578125	0.04379832504515539	-9.353973336785808	-2.339016177984926	-0.02842846700304957	-0.03569751805952553	-0.7196360545911205	0.2017167381974249	-0.4017857142857142	0.7188208616780045
4486.358642578125	-0.007804210915143861	-9.393861351830244	-2.280803398281532	-0.01884800582443976	1.810858405748097	-0.01848554417396977	0.2060085836909871	-0.3995535714285714	0.7301587301587302
4505.889892578125	-0.06889775414100845	-9.443755466903037	-2.29389805528691	-1.044571607803957	-2.579497825207506	-1.074233144551486	0.184549356223176	-0.3928571428571428	0.7278911564625851
4525.421142578125	0.4171051206476276	-9.519322566357994	-1.914593697415823	1.367318552773243	0.3498380545774623	0.02384799050969024	0.2253218884120172	-0.3973214285714285	0.7006802721088435
4544.952392578125	0.388720988273157	-9.529139735135258	-2.137404949764681	1.00279307845741	1.059416064489977	-0.350250529291579	0.2060085836909871	-0.4107142857142857	0.7052154195011338
4564.483642578125	0.3392053335210137	-9.680159730102888	-2.287880290876881	0.5872215301491989	3.906326643240683	-1.466167756692732	0.1952789699570815	-0.3883928571428571	0.7006802721088435
4584.014892578125	-0.07639278983478477	-9.918427991293573	-2.564802649174584	0.9149151639741798	5.351929961196121	-1.474069917195787	0.1974248927038627	-0.3973214285714285	0.7256235827664399
4603.546142578125	0.4022039386823004	-9.943415978780765	-2.465291827413715	0.3369611784708109	-2.211811011600281	-0.6905671267462357	0.1888412017167382	-0.3839285714285714	0.7210884353741497
4623.077392578125	0.3944058708673011	-9.913034967799584	-2.705893209179087	1.02164108428185	-0.7514423412581193	-0.3317649851176092	0.1824034334763948	-0.3928571428571428	0.7074829931972789
4642.608642578125	0.1327931694656752	-9.667994598361323	-2.054827150649154	-1.324988768801449	-5.800262030851515	-0.3282093852833411	0.1974248927038627	-0.3883928571428571	0.7324263038548753
4662.139892578125	0.3935715224268669	-9.700905412193967	-2.622458365135679	-0.03973727049771342	1.050817525389332	-0.7307273810955023	0.1888412017167382	-0.390625	0.7120181405895691
4681.671142578125	0.1325669054818287	-9.627588295317445	-2.032200752264501	-1.432578860267145	1.769645755230966	-1.125484725405135	0.2231759656652361	-0.40625	0.7142857142857143
4701.202392578125	-0.2939141526830196	-9.74453560594792	-2.241237792922532	0.6449426353133251	2.511186195731494	-0.3719252394668758	0.2017167381974249	-0.4040178571428571	0.7278911564625851
4720.733642578125	-0.2309256485924403	-9.654256400079733	-2.417639222388622	-0.7244171763087518	-0.4095511449528291	-1.089529522724129	0.2188841201716738	-0.390625	0.7233560090702948
4740.264892578125	-0.1179730022103076	-9.655385926543554	-2.488414064683523	-2.470788353432133	-5.57163020201088	-3.23110953699098	0.2124463519313305	-0.40625	0.7188208616780045
4759.796142578125	0.2243031804923462	-9.123455153017046	-2.022154783928498	-1.730115684773023	-2.573331011921427	-1.088005694223728	0.2124463519313305	-0.4017857142857142	0.7210884353741497
4779.327392578125	0.07505924235710329	-9.424993016665995	-2.403883419383798	-0.3163848303303171	-2.532118361404296	0.01899348700743662	0.2124463519313305	-0.4129464285714285	0.7006802721088435
4798.858642578125	-0.3039708199082012	-9.653525948366577	-2.255979233669672	-1.668624978444008	-4.330643140580236	0.009933931836922198	0.1974248927038627	-0.3950892857142857	0.7188208616780045
4818.389892578125	0.6080949287179953	-9.9252728684791	-1.625819402411776	-1.077633847129921	-0.786488178489172	-1.452536716021016	0.184549356223176	-0.3973214285714285	0.7074829931972789
4837.921142578125	0.08516843514996361	-9.94024562374544	-2.394394535404524	-0.3569862719860575	-0.01476535238672349	-0.3667043021316813	0.2060085836909871	-0.3973214285714285	0.7074829931972789
4857.452392578125	0.2873906750758583	-9.871560775437628	-2.208455262687874	-0.3390024373196448	-0.35908827450658	-0.003189166001327095	0.2017167381974249	-0.3928571428571428	0.7210884353741497
4876.983642578125	0.6543701187583336	-9.764119458763343	-2.171705753384387	-1.10315688412611	0.2821781059299234	-1.823446069820958	0.2017167381974249	-0.3883928571428571	0.7097505668934241
4896.514892578125	0.3092777575424472	-9.811173585656233	-2.356347182816142	0.32478820381812	0.3412395154768173	-0.3566288612942332	0.2145922746781116	-0.4017857142857142	0.7006802721088435
4916.046142578125	0.3395831135654717	-9.973092800832626	-2.325658295322685	-1.088942650624585	0.3000268649596861	-1.463628042525398	0.2060085836909871	-0.3995535714285714	0.7165532879818595
4935.577392578125	0.1481528988122599	-9.50653203403863	-2.570391922042318	-0.328557804983008	0.02093216567280204	0.3529317524594392	0.2060085836909871	-0.3995535714285714	0.7142857142857143
4955.108642578125	0.156443898877782	-9.516715954140293	-2.379083765329226	0.6713298434675408	-0.02401557231584131	-0.3460454776233181	0.2060085836909871	-0.3839285714285714	0.7188208616780045
4974.639892578125	-0.1457167267019269	-10.05914889333904	-2.775266105317514	0.2859151044784336	-0.07447844276209033	-1.43238583434612	0.2124463519313305	-0.3861607142857142	0.7210884353741497
4994.171142578125	0.1556580355767437	-9.385394964194152	-2.300497435225387	-3.877844176703089	-4.87065073119901	-3.985684908596173	0.203862660944206	-0.3995535714285714	0.7188208616780045
5013.702392578125	0.1470761246748474	-9.90046066023665	-2.462714508301068	0.05772110516412615	-1.395140447509189	1.094242517225857	0.1995708154506438	-0.3950892857142857	0.7052154195011338
5033.233642578125	0.08634419978030897	-9.374600815735178	-2.511970998439061	-1.431714689109118	0.3031102716027254	-1.470514317361519	0.203862660944206	-0.3839285714285714	0.7006802721088435
5052.764892578125	-0.1204235219639312	-9.948290714275311	-2.243362089321165	-1.441295150287728	-1.543445652204897	-2.17166482777867	0.1995708154506438	-0.3928571428571428	0.7233560090702948
5072.296142578125	-0.2021495946745212	-9.624241130315882	-2.23402012438461	-2.738719623244154	-5.841474681368646	-1.435208566514506	0.2124463519313305	-0.4040178571428571	0.7074829931972789
5091.827392578125	0.2855401589222563	-9.144269543003364	-2.023403647327677	0.01798383466641273	-0.3443229221198566	0.3635151361303542	0.1974248927038627	-0.4107142857142857	0.7142857142857143
5111.358642578125	0.2244567167670992	-9.547699112622219	-2.037508411403798	0.007539202329775903	-0.7243433622992387	0.007394217669587907	0.203862660944206	-0.4084821428571428	0.7097505668934241
5130.889892578125	0.4670692629391811	-9.105680793639495	-1.808967110244632	0.2859151044784336	-0.07447844276209033	-1.43238583434612	0.203862660944206	-0.390625	0.7006802721088435
5150.421142578125	-0.2098062474996165	-9.492851432474501	-2.48876300514039	-4.328519223186099	-2.801629791836831	-6.173662000214419	0.1931330472103004	-0.4129464285714285	0.7052154195011338
5169.952392578125	0.3784602794196851	-9.771461370470966	-2.131742227682804	-0.6069337071316657	-0.6289327538643462	1.792711804475147	0.2060085836909871	-0.4040178571428571	0.7006802721088435
5189.483642578125	0.3268072381058488	-10.06387413298712	-2.068478912625692	0.6144729094614416	-0.09541060843489237	-1.785317586805559	0.2188841201716738	-0.390625	0.7074829931972789
5209.014892578125	0.173613781323999	-10.01183714791425	-2.05525568342031	-0.3448132973333667	-2.567815879463821	-0.7006425675836838	0.2167381974248927	-0.3973214285714285	0.6984126984126985
5228.546142578125	0.2486367422842756	-9.941880306816785	-2.414694636590825	0.32478820381812	0.3412395154768173	-0.3566288612942332	0.1909871244635193	-0.3928571428571428	0.7029478458049887
5248.077392578125	-0.08781108139132858	-9.746596636660836	-2.443381656785509	-0.01884800582443976	1.810858405748097	-0.01848554417396977	0.2081545064377682	-0.390625	0.7256235827664399
5267.608642578125	-0.04701067167441966	-9.38336827712164	-2.441789975415178	-0.3494470696562816	-0.7391087146859622	-0.3593100844620934	0.2081545064377682	-0.3794642857142857	0.7052154195011338
5287.139892578125	-0.1110395860478647	-9.423132028381946	-2.161347517662513	-1.405327480954902	-2.23209149644461	-1.444634555517961	0.2081545064377682	-0.3794642857142857	0.7120181405895691
5306.671142578125	0.2674288566861065	-9.437017722910298	-2.253089750243305	0.3532166708211696	0.3769370335363428	0.3630071932968873	0.1974248927038627	-0.3705357142857142	0.7142857142857143
5326.202392578125	0.1537489332130386	-9.738911226705868	-2.109587198854878	0.3134794003234562	1.427754558925675	-0.367720187798615	0.2103004291845494	-0.3928571428571428	0.6961451247165533
5345.733642578125	-0.01892351077874762	-9.888699653781101	-2.189281575186462	0.3030347679868193	1.047734118746293	-0.7238411062593813	0.2060085836909871	-0.3928571428571428	0.7097505668934241
5365.264892578125	0.2464852142235921	-9.891353741031127	-2.199541830522474	0.3105739703165952	0.3233907564470545	-0.7164468885897933	0.2081545064377682	-0.3816964285714285	0.7006802721088435
5384.796142578125	0.3401649352382199	-9.932694578645313	-2.383840462597507	0.2925901356501825	0.6677136785669111	-1.079962024720148	0.2017167381974249	-0.4040178571428571	0.7097505668934241
5404.327392578125	-0.03736410791995982	-9.464272823567269	-2.386038187595855	0.323924032660093	1.807774999105058	-0.01159926933784872	0.2145922746781116	-0.4017857142857142	0.7097505668934241
5423.858642578125	-0.06646743652879974	-9.453880780180167	-2.53692981650778	-1.376899013951853	-2.196393978385084	-0.7249985009268409	0.2103004291845494	-0.3973214285714285	0.7006802721088435
5443.389892578125	0.1780663332918361	-9.688649350201608	-2.500510880204016	-0.009580461178609809	-1.846555923807622	-0.7011505104171507	0.203862660944206	-0.4151785714285714	0.7052154195011338
5462.921142578125	0.6353355786595244	-9.864939214372455	-2.309068070034065	-0.007539202329775903	0.7243433622992387	-0.007394217669587907	0.2188841201716738	-0.4017857142857142	0.7097505668934241
5482.452392578125	0.6293820075845625	-9.369930183712212	-1.713710962537884	-0.02175343583130069	0.7064946032694759	-0.3672122449651481	0.2317596566523605	-0.4084821428571428	0.7097505668934241
5501.983642578125	0.2450488419689949	-9.517602003571207	-2.055904605062758	1.348470546948803	2.160696460325559	0.005362446335720476	0.1952789699570815	-0.40625	0.7052154195011338
5521.514892578125	0.3188475531595305	-9.932481404824527	-2.292918581259169	-1.766083354105848	-1.884685167681714	-1.815035966484437	0.1995708154506438	-0.4107142857142857	0.7142857142857143
5541.046142578125	0.358098458629919	-9.680348661353978	-2.136376475236794	-0.3331915773059229	1.849639330450662	0.6942642355810297	0.2167381974248927	-0.390625	0.7052154195011338
5560.577392578125	-0.0350893467966456	-9.383487490370419	-2.613514299927276	0.6930832792988414	-0.7305101755853173	0.02116676734183	0.2060085836909871	-0.3772321428571428	0.7233560090702948
5580.108642578125	-0.08602723230439567	-9.352675081212313	-2.621766565478799	-1.799145593431812	-0.09167552096338021	-2.193339537953967	0.2060085836909871	-0.3839285714285714	0.7301587301587302
5599.639892578125	0.003909031906057035	-9.888927979207949	-2.431719517136316	-1.394018677460239	-3.318606539893468	-1.433543229013579	0.203862660944206	-0.3973214285714285	0.7142857142857143
5619.171142578125	0.3800360464500449	-9.872487229151369	-2.28931893071878	-1.088078479466558	-1.166508618668554	-1.808657634481782	0.2103004291845494	-0.40625	0.7210884353741497
5638.702392578125	0.2089232077754866	-9.759664989653514	-2.524973838773151	-0.3494470696562816	-0.7391087146859622	-0.3593100844620934	0.2017167381974249	-0.4040178571428571	0.7142857142857143
5658.233642578125	-0.03504086165724991	-9.464296056029895	-2.618362813866844	-0.327693633824981	-1.445603317955438	0.007902160503054765	0.2081545064377682	-0.4129464285714285	0.7052154195011338
5677.764892578125	0.2346386372690531	-9.679114063140368	-2.035292298333877	-0.6893136781339535	0.3683384944356979	-0.01746965850703605	0.1909871244635193	-0.3973214285714285	0.6984126984126985
5697.296142578125	0.1293931490655528	-9.051798981995706	-1.714825110636914	0.2841867621623796	2.85859252449439	-0.742326650433351	0.2017167381974249	-0.4040178571428571	0.7097505668934241
5716.827392578125	0.4276931041920203	-9.317408244173235	-1.952983888589788	0.007539202329775903	-0.7243433622992387	0.007394217669587907	0.2060085836909871	-0.390625	0.7052154195011338
5736.358642578125	0.2648167198011639	-9.628910793460641	-1.991876061749053	0	0	0	0.2188841201716738	-0.4040178571428571	0.7120181405895691
5755.889892578125	0.9516498657433503	-10.18123367037461	-2.307843717192174	-0.03219806816793752	0.3264741630900938	-0.7233331634259144	0.2188841201716738	-0.40625	0.7233560090702948
5775.421142578125	0.2395922023439789	-10.02259794222546	-2.530648805826457	1.329622541124364	3.971554866073656	-0.01312309783824929	0.2103004291845494	-0.4107142857142857	0.7210884353741497
5794.952392578125	0.209393917670453	-9.870780807863573	-2.572044828269795	0.3645254743158334	-0.7095780099125152	0.3740985198012692	0.2188841201716738	-0.3928571428571428	0.7097505668934241
5814.483642578125	-0.08521712643365943	-9.524400353988192	-2.702777152552423	0.007539202329775903	-0.7243433622992387	0.007394217669587907	0.2167381974248927	-0.4174107142857142	0.7142857142857143
5834.014892578125	-0.1524521206496441	-9.776253256571282	-2.101726710545792	-3.196933872056939	-3.048110379707229	-3.63057987580234	0.1974248927038627	-0.3973214285714285	0.6984126984126985
5853.546142578125	-0.3039607188374938	-9.502010897862132	-2.256989340740415	0.003769601164887951	-0.3621716811496193	0.003697108834793953	0.1909871244635193	-0.3861607142857142	0.7142857142857143
5873.077392578125	0.1041181262548305	-9.698010878232246	-2.248547319360602	-1.975214338931052	2.989382019085566	-5.824793790422715	0.2167381974248927	-0.3995535714285714	0.7052154195011338
5892.608642578125	0.2952634908140927	-9.689821321776831	-1.975328673246004	-0.01130880349466385	1.086515043448858	-0.01109132650438186	0.1995708154506438	-0.4084821428571428	0.7165532879818595
5912.139892578125	0.3879331047579771	-9.731152058320308	-2.058616598246693	-0.7017995693194241	-2.582581231850545	-1.067346869715365	0.1866952789699571	-0.40625	0.7006802721088435
5931.671142578125	0.3891048289600395	-9.83217387657243	-2.175789018452932	0.2197906258265045	3.511540850674578	-2.18899297728518	0.1995708154506438	-0.3995535714285714	0.7120181405895691
5951.202392578125	0.4624893962515703	-9.893513782851405	-2.371388604748862	-0.002905430006860929	-1.104363802478621	-0.3487267007911783	0.2060085836909871	-0.3973214285714285	0.7188208616780045
5970.733642578125	0.2168263267258433	-9.628430889529886	-2.294877570543511	-1.340931344619027	-2.885039822624798	0.002031771333867432	0.1931330472103004	-0.3861607142857142	0.6984126984126985
5990.264892578125	0.03533156634932388	-9.555908871219049	-2.512748471667082	0.6809103046461504	1.822540351491781	0.3551050327938325	0.2103004291845494	-0.40625	0.6916099773242631
6009.796142578125	0.1594782605182953	-9.860180641191043	-2.682519929380554	1.017007311958934	1.07726482351974	0.009567498003981286	0.2145922746781116	-0.4017857142857142	0.7029478458049887
6029.327392578125	0.3162596588442858	-9.659728253154102	-2.034129149734701	1.359779350443467	1.074181416876701	0.01645377284010233	0.2188841201716738	-0.3995535714285714	0.7097505668934241
6048.858642578125	0.1866886484765621	-9.577624462242342	-2.342334235411308	-0.08905500217403665	0.2550791269710427	-2.162605272608155	0.2017167381974249	-0.3816964285714285	0.7120181405895691
6068.389892578125	0.4306729200507134	-10.07501379990758	-2.250965474459101	-0.3569862719860575	-0.01476535238672349	-0.3667043021316813	0.2081545064377682	-0.4107142857142857	0.6938775510204082
6087.921142578125	0.2472831988094794	-9.537826367341632	-2.279340289111205	0.3532166708211696	0.3769370335363428	0.3630071932968873	0.2081545064377682	-0.4017857142857142	0.7346938775510204
6107.452392578125	-0.09710814809931118	-9.574786494276585	-2.534083149252555	0.328557804983008	-0.02093216567280204	-0.3529317524594392	0.2017167381974249	-0.40625	0.7142857142857143
6126.983642578125	-0.2908353463313936	-9.320323969769012	-2.549118428085131	-0.3314632349898689	-1.083431636805819	0.004205051668260811	0.2060085836909871	-0.4040178571428571	0.7120181405895691
6146.514892578125	0.2187010854491431	-9.386025394692878	-2.482353442873492	0.003769601164887951	-0.3621716811496193	0.003697108834793953	0.203862660944206	-0.4017857142857142	0.7165532879818595
6166.046142578125	0.1826017552683341	-9.163442179168845	-1.933644914588515	1.352240148113691	1.79852477917594	0.009059555170514429	0.1909871244635193	-0.4040178571428571	0.6984126984126985
6185.577392578125	-0.1330175781508204	-9.332003157551828	-2.004364633897554	-1.089806821782612	1.766562348587926	-1.118598450569014	0.1974248927038627	-0.40625	0.7097505668934241
6205.108642578125	0.2387558336894033	-9.638751194700532	-2.447011940368901	-0.3210186026532321	-0.7034111966264366	0.3603259701290271	0.2081545064377682	-0.40625	0.6893424036281179
6224.639892578125	0.8059777074391162	-9.866645635660252	-2.02634217248305	-0.7424010109751646	-0.0652282228329725	-1.453044658854483	0.2103004291845494	-0.390625	0.7074829931972789
6244.171142578125	0.02182033294219968	-9.767894971006191	-2.182033294219968	1.657003258416565	-0.08681206933424743	-1.404840735001636	0.2103004291845494	-0.3883928571428571	0.7052154195011338
6263.702392578125	0.1694379574646857	-9.789573167453437	-2.658081460754277	-1.004834337306244	-3.630315350596839	-0.3435057634559838	0.2124463519313305	-0.3705357142857142	0.6961451247165533
6283.233642578125	-0.08735855342363552	-9.322358737698089	-2.488634453554815	-0.9952538761276337	-1.783759426789216	0.3576447469611668	0.2060085836909871	-0.3995535714285714	0.7120181405895691
6302.764892578125	0.2810431210144465	-9.901800330200045	-2.594108019812003	-1.125774491115438	2.455208192827639	-1.845628722829722	0.2081545064377682	-0.4017857142857142	0.7097505668934241
6322.296142578125	-0.4602006585447057	-9.086307084323645	-1.939117818998813	-0.7603848456415774	0.2790946992868841	-1.816559794984837	0.2060085836909871	-0.40625	0.7074829931972789
6341.827392578125	0.1234698399738533	-9.789113486278529	-2.142902364732267	0.3825093089822462	-1.053900932032372	0.7376136559316233	0.1995708154506438	-0.40625	0.7142857142857143
6361.358642578125	0.4326951544063418	-9.741700688917803	-2.453188910021937	-0.3163848303303171	-2.532118361404296	0.01899348700743662	0.2124463519313305	-0.3883928571428571	0.6938775510204082
6380.889892578125	0.6415902028704277	-9.511466407079212	-1.914122327859096	-0.7102029428072271	-0.3917023859230663	-0.7297114954285686	0.2124463519313305	-0.40625	0.7120181405895691
6400.421142578125	0.1140111561345517	-10.02134213176337	-2.217442144067419	0.7139725439721151	0.02953070477344698	0.7334086042633625	0.2145922746781116	-0.3950892857142857	0.7346938775510204
6419.952392578125	0.6942190076146022	-9.835225018358976	-2.074961985950023	0.3569862719860575	0.01476535238672349	0.3667043021316813	0.2103004291845494	-0.4196428571428571	0.7006802721088435
6439.483642578125	0.2362931926509308	-9.406403335966914	-2.200747836521651	-1.7811617587654	-0.4359984430832368	-1.829824401823613	0.2167381974248927	-0.40625	0.7006802721088435
6459.014892578125	-0.0479904755330408	-9.433863529588105	-2.343809589553064	-4.664616230498883	-2.05635426386479	-5.828124465424567	0.203862660944206	-0.3839285714285714	0.7188208616780045
6478.546142578125	-0.3014091883767959	-9.71415762528795	-2.512142386810206	0.03219806816793752	-0.3264741630900938	0.7233331634259144	0.2081545064377682	-0.4017857142857142	0.7006802721088435
6498.077392578125	0.03331539263612	-9.394272547865757	-2.311131100346693	0.3314632349898689	1.083431636805819	-0.004205051668260811	0.1952789699570815	-0.390625	0.6984126984126985
6517.608642578125	0.5526276818761716	-9.419667690960178	-2.201543697821247	0.2917259644921555	2.134249162195151	-0.7349324327637631	0.2081545064377682	-0.4084821428571428	0.7165532879818595
6537.139892578125	0.294148332607992	-9.851426331810931	-1.863812852635929	-1.12200488995055	2.09303651167802	-1.841931613994928	0.1995708154506438	-0.4017857142857142	0.7188208616780045
6556.671142578125	-0.1093304848841668	-9.746381442625909	-2.332257634032302	0.3682950754807214	-1.071749691062134	0.3777956286360631	0.2081545064377682	-0.3950892857142857	0.7006802721088435
6576.202392578125	0.1795713928272438	-9.840179552312113	-2.651016833744788	0.02638720815421566	-2.535201768047335	0.02587976184355767	0.2145922746781116	-0.3839285714285714	0.7120181405895691
6595.733642578125	0.6958998257803194	-9.774635765934573	-2.243043802521731	-1.817129428098225	0.2526474011564764	-2.556854674084321	0.2167381974248927	-0.4151785714285714	0.7210884353741497
6615.264892578125	-0.2091052331925206	-9.482757432516562	-2.558864435849984	-0.3871430813051611	2.882608096810231	-0.3962811728100329	0.1974248927038627	-0.3861607142857142	0.6961451247165533
6634.796142578125	-0.002070843181604125	-9.858565150154044	-2.854140171635505	0.07193533866565094	-1.377291688479426	1.454060544521417	0.2231759656652361	-0.3973214285714285	0.7142857142857143
6654.327392578125	0.4294971554203681	-9.630557597816832	-2.133389011424565	0.6922191081408143	0.7360253080429229	0.3661963592982144	0.1909871244635193	-0.3928571428571428	0.7097505668934241
6673.858642578125	0.888441158311349	-9.736157138855843	-2.109421953583876	-0.7658827891225193	3.574337347692984	-1.130197719906862	0.2145922746781116	-0.3973214285714285	0.7142857142857143
6693.389892578125	0.2832411552292443	-9.184650593370474	-1.793503278026471	-0.09455294565497865	3.550321775377142	-1.47624319753018	0.2103004291845494	-0.4129464285714285	0.7120181405895691
6712.921142578125	-0.09860310656401147	-9.776791746712139	-2.384587302782526	1.05297498129176	0.388618979280027	0.7365977702646896	0.1931330472103004	-0.4017857142857142	0.7074829931972789
6732.452392578125	0.7666682157586245	-9.684434358925264	-2.177025657495112	-0.3448132973333667	-2.567815879463821	-0.7006425675836838	0.2103004291845494	-0.3883928571428571	0.7029478458049887
6751.983642578125	0.2883260342233667	-9.578640836099812	-2.301991177438716	-1.474357389613693	0.2495639945134371	-2.5499683992482	0.2060085836909871	-0.390625	0.7074829931972789
6771.514892578125	0.01388287035143774	-9.505189333754021	-2.40869519840908	-3.64383931737506	-1.341261121494669	-5.814859858585792	0.2060085836909871	-0.4017857142857142	0.6961451247165533
6791.046142578125	-0.01324468882702803	-9.757443310687487	-2.757163770358421	0.3674309043226944	0.3947857925661056	0.7228252205924476	0.2017167381974249	-0.3861607142857142	0.6984126984126985
6810.577392578125	0.4293678617153129	-9.246717921041398	-2.12045964091905	-0.3514883285051155	-3.310008000792823	-1.053066377209656	0.1931330472103004	-0.390625	0.6984126984126985
6830.108642578125	0.132829533320222	-9.728601022605931	-2.058463536103831	-0.05104607399237727	2.137332568838191	-0.7418187075998842	0.203862660944206	-0.3794642857142857	0.7097505668934241
6849.639892578125	0.5920664672617185	-9.985718644470598	-2.063789583314701	-0.7168779739789759	-1.133894507252068	-1.082135305054541	0.1888412017167382	-0.3839285714285714	0.7188208616780045
6869.171142578125	0.3905553427136271	-9.892794442316026	-2.320840393811689	0.3569862719860575	0.01476535238672349	0.3667043021316813	0.1974248927038627	-0.3995535714285714	0.7210884353741497
6888.702392578125	0.06630763346732214	-9.657228732900332	-2.54913069367099	-0.03219806816793752	0.3264741630900938	-0.7233331634259144	0.1952789699570815	-0.3794642857142857	0.7074829931972789
6908.233642578125	-0.05902088597441912	-9.908500700231167	-2.261176708680537	-2.626832005416126	-0.2639962979749293	-5.805292360581811	0.2145922746781116	-0.40625	0.6984126984126985
6927.764892578125	0.1453973267232718	-9.62771659952986	-2.294834713143509	-2.533143230919174	-2.347782589723831	-3.984019571095246	0.2017167381974249	-0.4017857142857142	0.7120181405895691
6947.296142578125	0.1976180482108661	-9.608036786542716	-2.414866045576402	0.3314632349898689	1.083431636805819	-0.004205051668260811	0.2124463519313305	-0.40625	0.7120181405895691
6966.827392578125	0.213559640459059	-9.739509333778329	-1.968208943865084	-0.003769601164887951	0.3621716811496193	-0.003697108834793953	0.203862660944206	-0.4017857142857142	0.7006802721088435
6986.358642578125	0.4989948307036781	-9.611050554367644	-1.940299396898423	-0.04264270050457435	-0.05354627708928829	-1.079454081886681	0.2017167381974249	-0.4107142857142857	0.7097505668934241
7005.889892578125	0.1767127898170399	-9.78964591577696	-2.365156532724396	-0.02929263816107659	1.430837965568715	-0.374606462634736	0.1866952789699571	-0.4084821428571428	0.7052154195011338
7025.421142578125	0.1765451120432965	-9.678533127888111	-2.348388755350054	-1.073864245965034	-1.148659859638791	-1.448839607186222	0.2081545064377682	-0.4084821428571428	0.7074829931972789
7044.952392578125	0.5145101165391572	-10.04554914156943	-2.471419817181035	-1.080539277136782	-1.890851980967793	-1.801263416812195	0.1974248927038627	-0.421875	0.7256235827664399
7064.483642578125	-0.017402289530208	-9.898815876094599	-2.341403700040424	0.2934543068082095	-0.798821805061329	-1.424991616676532	0.1995708154506438	-0.390625	0.7120181405895691
7084.014892578125	0.03414368043412961	-9.59630103276394	-2.393959880147655	-1.858043786286746	-2.733969843189292	-4.32636793988377	0.1995708154506438	-0.40625	0.7029478458049887
7103.546142578125	0.184393685211833	-9.456389391397574	-2.1128379089384	0.3494470696562816	0.7391087146859622	0.3593100844620934	0.2017167381974249	-0.4040178571428571	0.7142857142857143
7123.077392578125	0.4990938211966109	-9.439334372555402	-1.950198446191708	-0.05481567515726522	2.49950424998781	-0.7455158164346781	0.1974248927038627	-0.3995535714285714	0.7074829931972789
7142.608642578125	-0.2460651745976029	-9.340973691688369	-1.924094785137666	0.251988693994442	3.185066687584484	-1.465659813859265	0.1909871244635193	-0.3861607142857142	0.7052154195011338
7162.139892578125	-0.05958654593403544	-9.807484942621469	-2.204610712718905	0.004633772322914974	-1.828707164777859	-0.3413324831215905	0.1974248927038627	-0.3995535714285714	0.7074829931972789
7181.671142578125	0.05013779825000121	-9.646966024447147	-1.952555335204203	-2.029380851594954	-3.98323681181734	-0.360467479129553	0.2124463519313305	-0.4084821428571428	0.7120181405895691
7201.202392578125	0.2089535109876089	-9.810170343190686	-2.528004159985381	-0.3561221008280305	-1.481300836014964	-0.7117338940880656	0.203862660944206	-0.40625	0.7097505668934241
7220.733642578125	0.2492973523085418	-9.527745498775612	-2.480755639017446	-0.7850437114797389	-0.1187744999222608	-2.532498740741164	0.2081545064377682	-0.3995535714285714	0.7074829931972789
7240.264892578125	0.3577226987996024	-9.559132782543552	-2.098800492205139	-1.142029983465797	-0.1335398523089843	-2.899203042872845	0.1931330472103004	-0.3883928571428571	0.7052154195011338
7259.796142578125	0.3558883443591324	-9.195478075362784	-1.915365048158131	-0.02638720815421566	2.535201768047335	-0.02587976184355767	0.2081545064377682	-0.40625	0.7188208616780045
7279.327392578125	-0.1303246327002184	-9.443141198117445	-2.273659178957754	0.652481837643101	1.786842833432255	-0.3645310217972879	0.2060085836909871	-0.40625	0.7142857142857143
7298.858642578125	0.2582833060387354	-10.02278485326241	-2.358942848771502	0.3218827738112591	-0.7631242870018035	-0.7053555620854115	0.1995708154506438	-0.4174107142857142	0.7301587301587302
7318.389892578125	0.7158050781741095	-9.946551990175681	-2.192752715370137	-0.7453064409820255	-1.169592025311593	-1.801771359645661	0.2017167381974249	-0.40625	0.7074829931972789
7337.921142578125	-0.1081870436800852	-9.463564594209666	-2.446601754440459	-0.2917259644921555	-2.134249162195151	0.7349324327637631	0.2081545064377682	-0.3861607142857142	0.7256235827664399
7357.452392578125	0.2934796004982997	-9.750409543479732	-2.817347804932016	-0.9868505026398308	-3.974638272716695	0.02000937267437034	0.2188841201716738	-0.3839285714285714	0.7029478458049887
7376.983642578125	0.4719420194484474	-9.651184066659132	-2.296242761171265	-0.4280574394936815	-0.1040091475355373	-2.165794438609483	0.2103004291845494	-0.4151785714285714	0.6984126984126985
7396.514892578125	0.1402457806624803	-9.627665084069253	-1.779680107064357	-0.7461706121400526	0.2969434583166468	-1.456741767689277	0.2081545064377682	-0.4084821428571428	0.7142857142857143
7416.046142578125	-0.1488318969080996	-9.91770360022284	-2.463749084700239	-0.3569862719860575	-0.01476535238672349	-0.3667043021316813	0.2167381974248927	-0.3928571428571428	0.7142857142857143
7435.577392578125	0.3994200835953315	-9.680761877603633	-2.186906318716824	0.4042627448135468	-1.760395535301848	1.104825900896772	0.2081545064377682	-0.3950892857142857	0.6961451247165533
7455.108642578125	0.5326517219874295	-9.803306315199675	-2.244764035477637	0.2775117309906307	2.116400403165388	-1.094750460059323	0.2167381974248927	-0.40625	0.7120181405895691
7474.639892578125	-0.2805867587627707	-10.06790120311944	-2.553569021682117	-0.4440000153112603	2.81121306069118	-1.835553281992274	0.2081545064377682	-0.3973214285714285	0.7052154195011338
7494.171142578125	-0.1912343364392076	-9.96778462633258	-2.305137784650662	-2.435684855257334	-4.793740562622353	-2.159049672773887	0.2167381974248927	-0.421875	0.7052154195011338
7513.702392578125	-0.0478955254683909	-9.42376346898774	-2.353304596018053	0.05018190283435026	-0.6707970852099504	1.086848299556268	0.2103004291845494	-0.3861607142857142	0.7006802721088435
7533.233642578125	0.4665945126159316	-9.156181096641314	-1.761492077919691	0.2783759021486577	0.6498649195371483	-1.439780052015708	0.1952789699570815	-0.3995535714285714	0.6984126984126985
7552.764892578125	0.1135465068820097	-9.920327384260741	-2.170977218813221	0.2432724039738593	-0.1280247198513786	-2.5118399162328	0.1974248927038627	-0.4129464285714285	0.7074829931972789
7572.296142578125	0.07268145031257325	-9.839110652886966	-2.166104214930794	0.6846799058110384	1.460368670342161	0.3588021416286265	0.1995708154506438	-0.3861607142857142	0.6938775510204082
7591.827392578125	0.4609338313626253	-9.489457823162113	-2.215832115854373	-1.114680696285438	-6.636894447883695	4.720334323358884	0.1995708154506438	-0.3928571428571428	0.7097505668934241
7611.358642578125	0.1889815915271497	-10.0321928462183	-2.571628540470068	-0.7537098144698285	1.021286820615886	-1.464135985358865	0.1909871244635193	-0.4017857142857142	0.6848072562358277
7630.889892578125	-0.03762269533007014	-9.70669448011741	-2.360179446584822	-0.7528456433118014	-0.4452486630123546	-1.809165577315249	0.1909871244635193	-0.3995535714285714	0.7120181405895691
7650.421142578125	-0.2728169739457522	-9.714443547432261	-2.310139340118663	-0.6988941393125633	-1.478217429371924	-0.7186201689241868	0.203862660944206	-0.3883928571428571	0.7074829931972789
7669.952392578125	0.7121303086507449	-9.714192010157216	-1.825275763033676	-2.724505389742629	-5.823625922338883	-1.075390539218946	0.2081545064377682	-0.4174107142857142	0.6893424036281179
7689.483642578125	0.2380871428085711	-9.871067740114954	-2.380142852285685	0.5909911313140869	3.544154962091064	-1.462470647857938	0.1974248927038627	-0.390625	0.7074829931972789
7709.014892578125	-0.3356822449737007	-9.673410854317941	-2.146061216915642	-0.7424010109751646	-0.0652282228329725	-1.453044658854483	0.2081545064377682	-0.4040178571428571	0.7097505668934241
7728.546142578125	0.1995715952856839	-10.00199571595286	-2.610220753058182	-0.3163848303303171	-2.532118361404296	0.01899348700743662	0.2124463519313305	-0.4017857142857142	0.7165532879818595
7748.077392578125	0.2291638157167636	-9.648756284621815	-2.508218306370238	0.3343686649967298	2.187795439284439	0.3445216491229176	0.1995708154506438	-0.40625	0.7052154195011338
7767.608642578125	0.165078335347357	-9.4258932075959	-2.222119249021411	-0.7745990791431022	0.2612459402571213	-2.176377822280398	0.2103004291845494	-0.3995535714285714	0.7052154195011338
7787.139892578125	-0.01036584244654921	-9.333229674908871	-2.024640245140997	-0.6591568688148498	-2.529034954761257	0.01210721217131558	0.2081545064377682	-0.3839285714285714	0.7074829931972789
7806.671142578125	-0.1959798194575603	-9.634403838169064	-1.830589482815396	-2.047364686261366	-3.638913889697483	-0.7239826152599073	0.1995708154506438	-0.3883928571428571	0.7029478458049887
7826.202392578125	0.5834239499355776	-9.894723128388247	-2.219946013965921	0.3352328361547569	0.7212599556561994	-0.000507942833466858	0.1909871244635193	-0.3794642857142857	0.7006802721088435
7845.733642578125	-0.001462717496156551	-9.858571231410899	-1.894544576914957	-0.07947454099542683	2.101635050778665	-1.461454762191005	0.203862660944206	-0.3883928571428571	0.7074829931972789
7865.264892578125	-0.1296700833183766	-9.523955824419343	-2.339114117141929	0.00667503117174888	0.7421921213290015	0.3524238096259723	0.2296137339055794	-0.4151785714285714	0.7006802721088435
7884.796142578125	0.7857168973564244	-9.775533936650334	-2.041077490744475	-0.3021705968287923	-2.514269602374533	0.3788115143029969	0.2081545064377682	-0.375	0.6984126984126985
7904.327392578125	0.1874947139190153	-9.910965856230101	-2.422940779656634	-0.6704656723095137	-1.442519911312399	0.001015885666933716	0.203862660944206	-0.3883928571428571	0.6984126984126985
7923.858642578125	0.08346337441454869	-9.960430593340106	-2.223888461863033	0.6826386469622047	-1.110530615764699	-0.3349541511189363	0.2124463519313305	-0.3772321428571428	0.7120181405895691
7943.389892578125	0.01253336730492451	-9.949620283168002	-2.273744893757757	-1.373129412786965	-2.558565659534703	-0.721301392092047	0.1824034334763948	-0.3928571428571428	0.7120181405895691
7962.921142578125	0.1359022790294235	-9.799338820770094	-2.365738107023984	-1.067189214793285	-0.4064677383097898	-1.09641579756025	0.2060085836909871	-0.40625	0.7188208616780045
7982.452392578125	-0.1979293673329552	-9.755596463902428	-2.656042858541217	-0.4326912118165964	1.724698017242322	-1.824461955487892	0.2167381974248927	-0.4040178571428571	0.6984126984126985
8001.983642578125	0.112281852829439	-9.496072313477791	-2.044511813556142	0.6600210399728769	1.062499471133017	-0.3571368041277	0.2081545064377682	-0.390625	0.7120181405895691
8021.514892578125	0.2060827866925561	-9.234384060190159	-2.240931730480097	0.3862789101471341	-1.416072613181991	0.7413107647664173	0.1909871244635193	-0.4040178571428571	0.6961451247165533
8041.046142578125	0.6246263822666424	-9.864832122408526	-2.258556594011178	0.04060144165574044	-2.517353009017572	0.3856977891391179	0.184549356223176	-0.3973214285714285	0.7120181405895691
8060.577392578125	0.3390336153189873	-9.730663063425919	-2.270708470674242	-0.05685693400609913	-0.07139503611905106	-1.439272109182241	0.1909871244635193	-0.4017857142857142	0.7188208616780045
8080.108642578125	-0.2821827279345453	-9.764854940397424	-2.393972104504654	-0.3833734801402732	2.520436415660612	-0.3925840639752389	0.1995708154506438	-0.4084821428571428	0.7142857142857143
8099.639892578125	-0.09974856798223451	-9.382840898158562	-2.270041160960221	-0.6666960711446257	-1.804691592462018	0.004712994501727668	0.1974248927038627	-0.40625	0.7120181405895691
8119.171142578125	0.3662157202792732	-9.569318722859361	-1.927694476906915	0.6675602423026528	0.3381561088337781	-0.3497425864581121	0.2060085836909871	-0.4129464285714285	0.7029478458049887
8138.702392578125	0.3765430961994141	-9.943159370355936	-1.9400239056557	0.2888205344852945	1.029885359716531	-1.083659133554941	0.2081545064377682	-0.4017857142857142	0.7256235827664399
8158.233642578125	0.318003103648389	-9.871866899723354	-2.208473630145018	0.4051269159715739	-3.226931018930088	0.7597963089403871	0.2103004291845494	-0.4174107142857142	0.6984126984126985
8177.764892578125	0.3295163452695827	-9.528547688705222	-2.339389628999081	0.01507840465955181	-1.448686724598477	0.01478843533917581	0.2167381974248927	-0.40625	0.6961451247165533
8197.296142578125	0.07760875260365972	-9.465422552172504	-2.658834444039441	-0.4042627448135468	1.760395535301848	-1.104825900896772	0.2145922746781116	-0.3950892857142857	0.7188208616780045
8216.827392578125	0.08260478340441678	-9.707896754904754	-2.138029360849841	-2.105085791425493	-2.243773442188294	-1.818225132485764	0.2124463519313305	-0.3950892857142857	0.6961451247165533
8236.358642578125	0.029390116559211	-9.586152487024179	-1.918603492655794	-0.3323274061478959	0.3831038468224214	0.3492346436246452	0.1952789699570815	-0.3883928571428571	0.7142857142857143
8255.889892578125	0.7229243540375694	-9.855714092025224	-1.884272138450807	-0.6704656723095137	-1.442519911312399	0.001015885666933716	0.2060085836909871	-0.3839285714285714	0.7188208616780045
8275.421142578125	0.2987564410647235	-9.619149180572267	-2.324623698309084	-0.7745990791431022	0.2612459402571213	-2.176377822280398	0.2060085836909871	-0.40625	0.7052154195011338
8294.952392578125	0.626218311010134	-9.824444001291921	-2.417749468360344	-0.02465886583816162	-0.3978691992091449	-0.7159389457563266	0.2081545064377682	-0.4040178571428571	0.7256235827664399
8314.483642578125	0.07359256689038382	-9.505786430719411	-2.257215872711852	0.01130880349466385	-1.086515043448858	0.01109132650438186	0.2124463519313305	-0.4151785714285714	0.7006802721088435
8334.014892578125	0.4541882951153407	-10.03484491325419	-2.561686654391211	-0.7432651821331916	1.401307260795268	-1.108015066898099	0.2167381974248927	-0.390625	0.7052154195011338
8353.546142578125	-0.3965333625025869	-9.622297292637603	-2.183398443618862	-0.4297857818097355	2.829061819720943	-1.475735254696714	0.2253218884120172	-0.3928571428571428	0.7052154195011338
8373.077392578125	0.07333397948027351	-9.748208087269552	-2.23135713170082	-0.01884800582443976	1.810858405748097	-0.01848554417396977	0.2124463519313305	-0.3973214285714285	0.6984126984126985
8392.608642578125	0.205941371702652	-9.840443252100867	-2.226790231489689	-0.3645254743158334	0.7095780099125152	-0.3740985198012692	0.203862660944206	-0.3861607142857142	0.6984126984126985
8412.139892578125	0.4732854618525361	-10.20675305663873	-2.430587001580142	-1.373129412786965	-2.558565659534703	-0.721301392092047	0.2124463519313305	-0.4107142857142857	0.7029478458049887
8431.671142578125	0.1353345988556657	-9.526605871241083	-2.308970089648203	-0.3134794003234562	-1.427754558925675	0.367720187798615	0.2145922746781116	-0.40625	0.7052154195011338
8451.202392578125	0.4352689072225961	-9.822534507254046	-2.710564191647364	-1.373993583944992	-1.092030175906463	-0.3762718001356626	0.2017167381974249	-0.3973214285714285	0.7006802721088435
8470.733642578125	0.4187313930315246	-9.872874182617187	-2.077220935805516	0.6771407034812625	2.1847120326414	0.3514079239590386	0.1909871244635193	-0.4040178571428571	0.7029478458049887
8490.264892578125	0.2755946034748565	-9.406796350075155	-2.049256265852994	-0.01421423350152478	-0.01784875902976276	-0.3598180272955602	0.2145922746781116	-0.4196428571428571	0.7074829931972789
8509.796142578125	0.5897816050676968	-9.712968523121386	-1.835303363912536	-0.6884495069759263	-1.098196989192542	-0.3624992504634205	0.2124463519313305	-0.3973214285714285	0.7097505668934241
8529.327392578125	0.1532216573221105	-9.870219085260091	-2.05685960976207	-0.00667503117174888	-0.7421921213290015	-0.3524238096259723	0.1952789699570815	-0.4084821428571428	0.7142857142857143
8548.858642578125	0.1154535890315734	-9.900144434880216	-2.361685433769581	0.2917259644921555	2.134249162195151	-0.7349324327637631	0.2081545064377682	-0.4040178571428571	0.6961451247165533
8568.389892578125	-0.3505329215854908	-9.339929014218489	-2.701809882267251	-0.6884495069759263	-1.098196989192542	-0.3624992504634205	0.2103004291845494	-0.3772321428571428	0.7029478458049887
8587.921142578125	0.1475589558546627	-9.526728114811075	-2.510997626282604	-0.3540808419791966	1.089598450091897	-0.01797760134050291	0.2124463519313305	-0.4017857142857142	0.7074829931972789
8607.452392578125	0.1499650721260337	-9.324731973953584	-1.731201090154387	0	0	0	0.2124463519313305	-0.4040178571428571	0.6870748299319728
8626.983642578125	0.4922290923149786	-9.449366735367596	-2.284133721293773	0.3503112408143086	-0.727426768942278	0.01428049250570896	0.2060085836909871	-0.3995535714285714	0.7142857142857143
8646.514892578125	0.4630247529990643	-9.944024186923931	-2.424924279498264	0.7035279116354782	-0.3504897354059351	0.3772876858025963	0.2167381974248927	-0.3883928571428571	0.7097505668934241
8666.046142578125	0.1106353370752671	-10.12231847458288	-2.900268401404266	-0.7244171763087518	-0.4095511449528291	-1.089529522724129	0.2124463519313305	-0.3995535714285714	0.7142857142857143
8685.577392578125	0.1234213548344576	-9.708304920619055	-2.138053850792699	-2.419429362906976	-2.204992517485729	-1.105475352730764	0.203862660944206	-0.3950892857142857	0.7052154195011338
8705.108642578125	-0.05940674687544312	-9.433749366874682	-2.222590618578137	1.707185161250915	-0.7576091545441979	-0.3179924354453671	0.2081545064377682	-0.4040178571428571	0.7142857142857143
8724.639892578125	0.1962342015239475	-9.153477493530394	-2.276481376884551	-0.7168779739789759	-1.133894507252068	-1.082135305054541	0.2060085836909871	-0.4017857142857142	0.7074829931972789
8744.171142578125	0.1449346976848713	-9.698419043946547	-2.248571809303459	-0.714836715130142	1.437004778854793	-0.3883790123069781	0.1952789699570815	-0.4107142857142857	0.7029478458049887
8763.702392578125	0.5386033140771098	-9.449830477585218	-1.819515081180366	-3.920486877207664	-4.924197008288298	-5.065138990482853	0.2145922746781116	-0.4040178571428571	0.7052154195011338
8783.233642578125	0.5736016275508085	-9.520887531427023	-2.258121938754309	0.3862789101471341	-1.416072613181991	0.7413107647664173	0.2103004291845494	-0.4084821428571428	0.6961451247165533
8802.764892578125	0.2177717869440591	-9.183995899687623	-2.389423592365096	-1.398652449783154	-1.489899375115608	-1.092210745891989	0.2124463519313305	-0.4084821428571428	0.7052154195011338
8822.296142578125	-0.4815807084906413	-9.49013368786459	-2.862337314201169	-0.09368877449695162	2.083786291748902	-1.821272789486565	0.2081545064377682	-0.4107142857142857	0.7052154195011338
8841.827392578125	-0.04925917001389454	-9.676275085067539	-2.216940141467689	1.035855317783374	-0.7335935822283565	0.02805304217795105	0.1974248927038627	-0.40625	0.6984126984126985
8861.358642578125	0.2162222826975387	-9.295091515756271	-2.234473167713053	0.397587713641798	-2.502587656630849	0.7524020912707992	0.2017167381974249	-0.3950892857142857	0.7142857142857143
8880.889892578125	0.4611742368454623	-9.721783459540173	-2.239872664138067	-1.074728417123061	0.3178756239894489	-1.103810015229838	0.2017167381974249	-0.3883928571428571	0.7120181405895691
8900.421142578125	0.2208607355952526	-9.951703556850905	-1.677910294219135	-2.154403523101816	-3.039511840606584	-3.250103023998417	0.2339055793991416	-0.4040178571428571	0.7029478458049887
8919.952392578125	0.2700995797811521	-10.18451917761599	-2.520162059747869	-1.031221545460459	-1.095113582549503	-0.3693855252995415	0.2188841201716738	-0.390625	0.7120181405895691
8939.483642578125	0.2153333884752845	-9.497102828834249	-2.145583745487631	0.3448132973333667	2.567815879463821	0.7006425675836838	0.1995708154506438	-0.40625	0.6938775510204082
8959.014892578125	0.5105444361794185	-9.833388272644624	-2.074851781207162	-1.034991146625347	-0.7329419013998837	-0.3730826341343355	0.2188841201716738	-0.3995535714285714	0.7142857142857143
8978.546142578125	0.09012406166789094	-9.273628513343953	-1.869549023931951	-0.01711966350838571	-1.122212561508384	-0.7085447280867386	0.2103004291845494	-0.4151785714285714	0.7052154195011338
8998.077392578125	0.3190253320039813	-9.387028637158426	-2.310696465704253	1.082267619452836	-1.042218986288687	1.111204232899426	0.2339055793991416	-0.3995535714285714	0.6916099773242631
9017.608642578125	0.4340689000225529	-9.842724527384066	-2.590563471643044	0.01044463233663683	0.3800204401793821	0.3561209184607663	0.2124463519313305	-0.3928571428571428	0.6984126984126985
9037.139892578125	0.5738117298215231	-9.702707814267912	-2.279132165825772	-1.114465687620774	1.368693149378781	-1.83453739632534	0.2167381974248927	-0.4241071428571428	0.7006802721088435
9056.671142578125	0.4833643514332741	-9.66139930007999	-2.418067796388638	0.3314632349898689	1.083431636805819	-0.004205051668260811	0.2145922746781116	-0.3995535714285714	0.6938775510204082
9076.202392578125	-0.01005876989704321	-9.171616584018203	-2.055347500091597	0.04264270050457435	0.05354627708928829	1.079454081886681	0.1974248927038627	-0.3928571428571428	0.6916099773242631
9095.733642578125	-0.1065042053002266	-9.574692533704576	-2.614885592426315	-0.3419078673265057	-1.463452076985201	-0.3519158667925055	0.2103004291845494	-0.40625	0.7052154195011338
9115.264892578125	0.2955079367252126	-9.255480331892507	-1.999773264357995	-0.02929263816107659	1.430837965568715	-0.374606462634736	0.2167381974248927	-0.4084821428571428	0.7120181405895691
9134.796142578125	0.7533832463353469	-9.936826761756286	-1.86893687843265	-0.3494470696562816	-0.7391087146859622	-0.3593100844620934	0.2103004291845494	-0.4040178571428571	0.6961451247165533
9154.327392578125	0.09622510837518128	-9.677729927851431	-2.479653694660985	1.034991146625347	0.7329419013998837	0.3730826341343355	0.2231759656652361	-0.3973214285714285	0.6961451247165533
9173.858642578125	0.5946301190072654	-9.713017008260781	-2.320154757869385	-0.3758342778104973	1.796093053361373	-0.3851898463056511	0.2017167381974249	-0.4151785714285714	0.7029478458049887
9193.389892578125	0.1648217681513881	-9.840032056065356	-2.196462529424528	-0.4251520094868205	1.000354654943083	-1.817067737818304	0.2060085836909871	-0.3995535714285714	0.7256235827664399
9212.921142578125	-0.001711203835559435	-9.949477837456596	-1.869695942974668	-3.181855467397387	-4.496797104305705	-3.615791440463164	0.1974248927038627	-0.4129464285714285	0.7052154195011338
9232.452392578125	-0.0433581245066114	-9.747041166229684	-2.807044692196003	0.03219806816793752	-0.3264741630900938	0.7233331634259144	0.2145922746781116	-0.4040178571428571	0.7074829931972789
9251.983642578125	0.4999039270673472	-9.611059645331281	-2.031209033265331	0.3427720384845327	-0.003083406643039275	0.006886274836121049	0.2017167381974249	-0.3973214285714285	0.6984126984126985
9271.514892578125	0.2948473267009464	-9.669615139933677	-1.933712261931374	-1.751869120604323	-1.866836408651951	-1.455217939188876	0.203862660944206	-0.3883928571428571	0.7074829931972789
9291.046142578125	0.03825485744091542	-9.374119922311785	-1.784669417560929	-0.3381382661616178	-1.82562375813482	-0.3482187579577115	0.1974248927038627	-0.40625	0.7006802721088435
9310.577392578125	0.452210505470825	-9.600481701014306	-2.363907689939647	0.7223759174599179	-2.161348141154031	0.3957732299765661	0.2103004291845494	-0.3928571428571428	0.7074829931972789
9330.108642578125	0.8615964291126914	-9.786393742068906	-2.486173523514034	0.3210186026532321	0.7034111966264366	-0.3603259701290271	0.2103004291845494	-0.4040178571428571	0.7256235827664399
9349.639892578125	0.6963644750328614	-9.875650513437197	-2.289508727775929	0.2783759021486577	0.6498649195371483	-1.439780052015708	0.2103004291845494	-0.3950892857142857	0.7142857142857143
9369.171142578125	-0.2300872597237232	-9.704769834473472	-2.501478109260328	-0.01884800582443976	1.810858405748097	-0.01848554417396977	0.2210300429184549	-0.3995535714285714	0.6984126984126985
9388.702392578125	-0.2071557265459857	-9.533281978088077	-2.753815100503467	-0.3883201689959681	-1.15482667292487	-1.43506705751398	0.2081545064377682	-0.4040178571428571	0.6870748299319728
9408.233642578125	0.2770208746587462	-9.427012632989014	-2.191883384241967	0.6997583104705902	0.01168194574368421	0.3735905769678023	0.2081545064377682	-0.4151785714285714	0.6961451247165533
9427.764892578125	0.170920835873397	-9.395648602298129	-1.78596113836011	0.6704656723095137	1.442519911312399	-0.001015885666933716	0.2231759656652361	-0.3995535714285714	0.7052154195011338
9447.296142578125	-0.00803653554141485	-9.34335397807893	-2.257570935654433	-0.3996289724906319	-0.06831162947601178	-1.446158384018362	0.2124463519313305	-0.3995535714285714	0.7097505668934241
9466.827392578125	0.2572388553275867	-9.628835014815904	-2.254497777656631	0.7139725439721151	0.02953070477344698	0.7334086042633625	0.2167381974248927	-0.4017857142857142	0.6938775510204082
9486.358642578125	0.2137151969479535	-9.325369475201805	-1.983764592754533	-0.3419078673265057	-1.463452076985201	-0.3519158667925055	0.2145922746781116	-0.3816964285714285	0.6938775510204082
9505.889892578125	0.2452023782437479	-9.436795458125873	-2.071258232538058	-0.7064333416423392	-0.7538740670726856	-0.7260143865937746	0.1995708154506438	-0.3861607142857142	0.6961451247165533
9525.421142578125	0.5517852525791715	-10.03582088282882	-2.117300768121245	-3.52462750588192	-4.493713697662667	-3.622677715299286	0.184549356223176	-0.4084821428571428	0.7097505668934241
9544.952392578125	0.3709975671521727	-9.963305935267483	-2.405879164196857	0.3172490014883441	1.065582877776056	-0.364023078963821	0.2253218884120172	-0.4017857142857142	0.7029478458049887
9564.483642578125	0.2589843203458314	-9.507640348253965	-2.429044279481097	0.3569862719860575	0.01476535238672349	0.3667043021316813	0.2017167381974249	-0.3995535714285714	0.7233560090702948
9584.014892578125	0.1528782209180577	-9.466175246855647	-2.022515969356793	-1.8029151945967	0.2704961601862391	-2.197036646788761	0.2124463519313305	-0.4129464285714285	0.7052154195011338
9603.546142578125	-0.3893616023003085	-9.622369010239625	-2.900574463846701	-0.7319563786385278	0.3147922173464096	-1.096923740393717	0.1952789699570815	-0.3928571428571428	0.7052154195011338
9623.077392578125	0.005286817950551081	-9.323285191411831	-2.56949812158572	0.007539202329775903	-0.7243433622992387	0.007394217669587907	0.2060085836909871	-0.3995535714285714	0.7188208616780045
9642.608642578125	0.1025868039355835	-9.334359201372692	-2.095415087435897	-0.323924032660093	-1.807774999105058	0.01159926933784872	0.2060085836909871	-0.4151785714285714	0.7233560090702948
9662.139892578125	0.1020292248325331	-9.415161706389741	-2.039657177130859	-0.02379469468013459	-1.864404682837385	-1.060968537712711	0.2103004291845494	-0.40625	0.7097505668934241
9681.671142578125	0.2457801594882132	-9.55801335715044	-2.129036356984582	0.3172490014883441	1.065582877776056	-0.364023078963821	0.2081545064377682	-0.3883928571428571	0.7052154195011338
9701.202392578125	0.6097272617443168	-9.783875050395222	-1.789052705043916	0.6846799058110384	1.460368670342161	0.3588021416286265	0.1952789699570815	-0.4151785714285714	0.6689342403628118
9720.733642578125	0.2376305744125951	-9.951871255239077	-2.334486012688082	0.3561221008280305	1.481300836014964	0.7117338940880656	0.1995708154506438	-0.390625	0.7120181405895691
9740.264892578125	0.3994584676640197	-9.913085493767552	-2.190744725585649	-1.452603953782392	-0.4569306087560389	-2.182756154283052	0.2081545064377682	-0.3772321428571428	0.7052154195011338
9759.796142578125	0.3402881683008507	-9.801382679662808	-2.396163768860577	-0.7679240479713533	1.003438061586123	-1.823954012654425	0.1931330472103004	-0.40625	0.7120181405895691
9779.327392578125	-0.3944727440782703	-9.521307797811746	-2.389460286050523	0.05308733284121119	0.4335667172686704	1.435575000347447	0.2253218884120172	-0.3995535714285714	0.7142857142857143
9798.858642578125	0.301687771784021	-9.790895665596631	-2.617756770238828	-0.3172490014883441	-1.065582877776056	0.364023078963821	0.203862660944206	-0.3995535714285714	0.6870748299319728
9818.389892578125	0.00456358128789878	-9.464692100459345	-2.49717445532049	-0.02175343583130069	0.7064946032694759	-0.3672122449651481	0.2081545064377682	-0.4017857142857142	0.7074829931972789
9837.921142578125	-0.3552885056745508	-9.663113781609921	-2.226251473361242	-0.6637906411377649	-0.7003277899833973	0.353439695292906	0.2124463519313305	-0.4017857142857142	0.6938775510204082
9857.452392578125	-0.03263878581416201	-9.423916036384284	-1.83816223491033	-3.50577950005748	-6.304572103410764	-3.604192171125316	0.184549356223176	-0.4107142857142857	0.6938775510204082
9876.983642578125	0.6734975887076514	-9.481482450634552	-2.043636421785548	0.6846799058110384	1.460368670342161	0.3588021416286265	0.2124463519313305	-0.4151785714285714	0.6870748299319728
9896.514892578125	0.2783865394183913	-9.851268713879033	-2.32844986020648	-0.003769601164887951	0.3621716811496193	-0.003697108834793953	0.1974248927038627	-0.3973214285714285	0.7052154195011338
9916.046142578125	0.4125393954590073	-9.994024383853581	-2.478429341819094	-0.3305990638318419	-2.549967120434059	-0.3408245402881236	0.2103004291845494	-0.4196428571428571	0.7006802721088435
9935.577392578125	0.2687803799467612	-9.669354470466136	-2.388242076308777	0.1742424953150693	2.353630771106668	-3.617173759963039	0.2060085836909871	-0.4174107142857142	0.7006802721088435
9955.108642578125	-0.4350792132375965	-9.702719914938333	-2.410446023179129	1.425903829095396	-2.511837876559967	0.7730609157791624	0.2017167381974249	-0.3973214285714285	0.6916099773242631
9974.639892578125	0.6856552786399795	-9.875543421473269	-2.238997251753043	0.1113596926305845	-7.9320794672321	0.8009724489565875	0.2103004291845494	-0.3883928571428571	0.6984126984126985
9994.171142578125	0.377716840615618	-9.710847875476865	-2.057398347276087	-3.521722075875059	-3.389349895184046	-3.273951014508107	0.203862660944206	-0.4241071428571428	0.6938775510204082
10013.70239257812	0.400335240601425	-9.690872039274703	-2.278422019326179	1.080539277136782	1.890851980967793	1.801263416812195	0.2210300429184549	-0.4040178571428571	0.6825396825396826
10033.23364257812	0.6661439680037792	-9.855146288164887	-2.328682514663631	1.064283784786424	-0.697896064168831	0.7476890967690715	0.2081545064377682	-0.3928571428571428	0.6848072562358277
10052.76489257812	0.2397033141217607	-9.366033396777581	-2.541759983604635	0.2395028028089713	0.2341469612982407	-2.515537025067594	0.2081545064377682	-0.4084821428571428	0.7029478458049887
10072.29614257812	0.1571994589666981	-9.597531590549265	-2.454639774220835	-1.096481852954361	1.024370227258925	-1.471022260194986	0.2103004291845494	-0.4107142857142857	0.6893424036281179
10091.82739257812	0.1230152917920188	-9.536583688271456	-2.097447546548813	0.2131155946547557	2.769348729345576	-2.541416786911152	0.1909871244635193	-0.4196428571428571	0.6893424036281179
10111.35864257812	0.1828603426784444	-9.426071027669209	-1.959503655599547	-0.3314632349898689	-1.083431636805819	0.004205051668260811	0.2124463519313305	-0.40625	0.6938775510204082
10130.88989257812	0.1960200588249499	-9.638323836951889	-2.25506710698479	0.04060144165574044	-2.517353009017572	0.3856977891391179	0.2274678111587983	-0.3883928571428571	0.6961451247165533
10150.42114257812	0.2667015795951712	-9.740040753169691	-2.180362041149777	-2.514295225094734	-4.158640995471928	-3.965534026921276	0.2081545064377682	-0.3950892857142857	0.7006802721088435
10169.95239257812	0.7026978875952827	-9.653491625340601	-1.90244182075276	2.410713072886393	-1.108098889950133	0.05929525035722921	0.2167381974248927	-0.4084821428571428	0.6802721088435374
10189.48364257812	0.2603197231222142	-9.709673904301932	-1.542176393854076	3.082042916353934	-1.132114462265974	-0.286750227266089	0.2103004291845494	-0.4040178571428571	0.7029478458049887
10209.01489257812	0.3571590590541275	-9.629834216853169	-2.042436517657655	4.315935424132513	2.352327409449723	-2.814902407338466	0.2124463519313305	-0.4017857142857142	0.6961451247165533
10228.54614257812	-0.6416045092848583	-9.67035163167483	-2.166079683759076	4.477789936130226	-0.7465788896289864	0.4567338178347218	0.1995708154506438	-0.3995535714285714	0.671201814058957
10248.07739257812	-0.2355074942653325	-9.593604521016944	-1.959454655099401	5.547884580930372	0.7642526511594241	1.90187631618615	0.2017167381974249	-0.421875	0.6825396825396826
10267.60864257812	0.2503782081030973	-9.305534085111336	-1.56843305520769	6.926511937198279	0.02757566228802832	1.936815633200222	0.2210300429184549	-0.40625	0.6666666666666666
10287.13989257812	0.4248749054646462	-9.670915415721314	-1.67116401585237	7.239127166363708	2.921865704841943	1.914125037357991	0.2188841201716738	-0.4196428571428571	0.671201814058957
10306.67114257812	0.2026443822237454	-9.901016342812138	-1.897091283599031	9.246754582127361	7.61159711992876	1.907380271522396	0.2060085836909871	-0.4107142857142857	0.6598639455782314
10326.20239257812	-0.3013525811519742	-9.300016777218787	-1.497394946027067	12.38015648900645	9.846120342187938	3.746264228516523	0.2060085836909871	-0.4241071428571428	0.63718820861678
10345.73364257812	-0.4181174128479526	-9.682687512740211	-2.065809735612897	11.70128744320914	10.59447927680302	4.084915488470253	0.2145922746781116	-0.4375	0.6575963718820862
10365.26489257812	-0.2226527892253315	-9.462419936754214	-1.204108832568889	13.71614114476978	9.055897076227252	2.701749463643915	0.2145922746781116	-0.4464285714285714	0.6235827664399093
10384.79614257812	-0.1657289679874958	-9.028645740623157	-0.7740419767606217	13.41452180256624	-0.4288782631388628	1.351715909330196	0.2124463519313305	-0.4397321428571428	0.6281179138321996
10404.32739257812	0.3633510566266449	-10.01373452066728	-1.641228111644077	17.1983642882396	1.021588506445708	2.132312551779472	0.2145922746781116	-0.4598214285714285	0.63718820861678
10423.85864257812	0.6054625896916379	-9.915145534987827	-1.362585499776037	16.58302720762013	2.58353459850884	4.262659730541415	0.2081545064377682	-0.4709821428571428	0.6167800453514739
10443.38989257812	0.7575267467683966	-9.936868196760615	-1.262878758472304	16.49687763545295	3.942977527958504	2.448781158724438	0.2167381974248927	-0.5	0.6031746031746031
10462.92114257812	-0.4453479617187742	-9.59150611634241	-1.383571175061353	18.88293184250119	2.437009438799226	1.792137463325341	0.2103004291845494	-0.4977678571428571	0.5918367346938775
10482.45239257812	-0.4674653485974925	-9.268052619241299	-1.212648813720135	19.24628022912621	-2.31000334084839	1.127450098422663	0.2274678111587983	-0.4910714285714285	0.5759637188208617
10501.98364257812	0.3872745561767124	-9.640236381925407	-0.9723535768549182	20.32650658973022	-5.923121613243938	1.544898038574526	0.2145922746781116	-0.5066964285714285	0.5850340136054422
10521.51489257812	-0.07394420783758263	-9.615422174083243	-0.7688445223641864	20.6057466630369	-6.739792177335031	-0.2399116053975664	0.2467811158798283	-0.5223214285714285	0.5532879818594104
10541.04614257812	1.076968366572104	-10.24309291598895	-0.5539795143532766	23.90121809057837	0.4014123431079128	-1.684263142914476	0.2424892703862661	-0.5491071428571428	0.5532879818594104
10560.57739257812	1.070683480377939	-9.869292693389641	0.07450910506328839	29.26203803904762	10.83720783112848	-2.041116929041124	0.2360515021459227	-0.5401785714285714	0.5238095238095238
10580.10864257812	0.2558167070297	-10.11366927818141	-0.07146662133734914	32.65873744341581	15.17028269752328	-1.656801459401881	0.259656652360515	-0.578125	0.526077097505669
10599.63989257812	-0.6949140437369938	-10.22537409188586	0.1036492716585656	34.18759759165399	6.917244199658697	0.2548672796206656	0.2575107296137339	-0.5870535714285714	0.5192743764172336
10619.17114257812	-0.3285184419414082	-9.986613805479577	0.1987829696510236	38.47371245242798	-2.809148275948683	2.236414652671356	0.259656652360515	-0.5915178571428571	0.4988662131519275
10638.70239257812	0.4266386348678842	-10.24669062877292	0.1932793703544329	43.63822355321808	0.4755407908713529	3.745706904882267	0.2489270386266094	-0.625	0.4852607709750567
10658.23364257812	0.3067485318950257	-10.63943112168259	-0.06260829154337932	45.90192218067384	13.49213746575637	3.660814910682532	0.2618025751072962	-0.625	0.4807256235827664
10677.76489257812	-0.2467034798085927	-10.29046225813121	0.1805520624919258	48.30077519544033	20.44105935624668	5.437863903152095	0.2768240343347639	-0.6830357142857143	0.4852607709750567
10697.29614257812	-0.9897978167502069	-9.929495961226438	0.0001898382860098698	49.41579213768635	12.10186046987632	5.54355623086072	0.2875536480686695	-0.6763392857142857	0.4852607709750567
10716.82739257812	-1.171640012730202	-9.94787955946866	0.8374706607753151	48.50637491719311	3.454687860274097	6.331264072978532	0.2746781115879828	-0.7053571428571428	0.4920634920634921
10736.35864257812	-1.107047458611282	-9.837414373898737	0.500664228475167	46.66516120730978	-24.14110326238755	4.771836558928345	0.2575107296137339	-0.7299107142857142	0.4875283446712018
10755.88989257812	0.6630753451805808	-10.28945903628009	0.01899609418683116	50.0238516834963	-21.6902818378599	3.735365463559317	0.2660944206008584	-0.734375	0.4739229024943311
10775.42114257812	0.4242285193970904	-9.933535214486904	0.4342909174338165	49.6613441386015	2.070259045776877	0.6128120620984342	0.278969957081545	-0.7633928571428571	0.4739229024943311
10794.95239257812	0.001420251770325297	-10.44445864696215	0.8783829862327764	50.63376539907514	-1.978539037798666	6.787856381812728	0.2875536480686695	-0.7924107142857142	0.4784580498866213
10814.48364257812	-0.06026117377071197	-10.01959940846432	0.9240765607446667	49.78173303778545	2.955241239343981	3.843780090088888	0.2854077253218884	-0.8080357142857142	0.4875283446712018
10834.01489257812	-0.2896412348583348	-9.613265203813034	1.413103077670208	52.46220363066804	-3.317701482404	9.35580238240143	0.296137339055794	-0.8080357142857142	0.4852607709750567
10853.54614257812	0.07841094253327011	-9.778561887203113	1.342579216060743	53.77180107827716	-1.572722980317349	8.285407855685264	0.3004291845493562	-0.828125	0.4897959183673469
10873.07739257812	0.2439580500191721	-10.21456079262141	1.114399079715443	57.5655369416619	7.228269966438186	11.15097048521202	0.3004291845493562	-0.8303571428571428	0.5124716553287982
10892.60864257812	-0.6232001110827526	-9.852353857475034	2.115929475622206	56.66826936639355	16.50811041737627	8.162528887470655	0.3068669527896996	-0.8549107142857142	0.5215419501133787
10912.13989257812	-0.8831845611152001	-10.30429946752016	1.583762233968993	56.11379715903754	5.304803874053906	8.623184738972586	0.2854077253218884	-0.859375	0.5192743764172336
10931.67114257812	-0.5795633207111962	-10.17602254861107	1.833883091527781	54.04931280926779	0.5436774228480395	7.190657395625941	0.2832618025751073	-0.8638392857142857	0.5419501133786848
10951.20239257812	-0.3725814562679584	-10.12758731675045	1.543859912510125	58.46021200345618	2.348035966384826	15.17450085882254	0.2896995708154507	-0.8861607142857142	0.5782312925170068
10970.73364257812	-0.06440459174604152	-9.676123630850217	2.358826521542927	59.44242873377309	8.15138140387938	15.49582396926976	0.2746781115879828	-0.8705357142857142	0.5804988662131519
10990.26489257812	-0.3961978008107999	-9.490987516941388	2.885086203528972	58.0901885856594	6.352856624703442	15.48676441409925	0.2660944206008584	-0.875	0.6077097505668935
11009.79614257812	-0.3784925616170889	-9.531568609737365	3.155378610688486	58.41812055757684	-4.676016047696042	12.36620170831915	0.2854077253218884	-0.90625	0.6213151927437642
11029.32739257812	-0.4797440864628696	-10.00530356923638	3.076449462613494	59.41306151717171	-8.39622687427017	10.62474148469765	0.2489270386266094	-0.8839285714285714	0.6462585034013606
11048.85864257812	-0.1424639345609729	-10.24099960307864	3.021903660178919	59.37041881666713	-8.449773151359457	9.545287402810967	0.2832618025751073	-0.8973214285714285	0.6394557823129252
11068.38989257812	-0.9308475970418799	-10.00079253413059	3.288841336841054	57.91113983171299	-9.648895881444496	7.010107438901943	0.2746781115879828	-0.9241071428571428	0.6666666666666666
11087.92114257812	-1.300073518849689	-9.562756840569081	3.476739640070906	58.20555621754734	-14.4158705140332	13.17877342661358	0.2660944206008584	-0.90625	0.6916099773242631
11107.45239257812	-0.9756722733286307	-9.212465499488937	3.689676312454907	58.71191111034564	-20.45093118701143	15.76723674271012	0.2682403433476395	-0.8973214285714285	0.6961451247165533
11126.98364257812	-0.5899370790988713	-9.549656184764569	3.891667093560591	62.93135023784245	-19.62079863219056	18.72102204143847	0.2939914163090129	-0.8928571428571428	0.7188208616780045
11146.51489257812	-0.07005710968506175	-9.342733772337494	3.944486478710256	64.22154842500188	-9.094455987364231	19.36098703916505	0.2489270386266094	-0.8973214285714285	0.7369614512471655
11166.04614257812	-0.810084720331039	-9.375737536635075	4.477859788205937	64.50950478832915	-6.598035144019461	18.62235749756649	0.2725321888412017	-0.890625	0.761904761904762
11185.57739257812	-1.166615575244884	-9.048939904853613	4.416659565304744	63.85498169183722	-10.95577726355858	18.29313222661622	0.2575107296137339	-0.8861607142857142	0.780045351473923
11205.10864257812	-1.133061714882349	-9.574527968709763	4.122498018847112	63.07339466498959	-16.9406936979938	14.38051511804951	0.259656652360515	-0.8816964285714285	0.7959183673469388
11224.63989257812	-0.9020230167557052	-8.869767648620323	4.488015961284802	64.75592096040234	-18.09617205174714	13.34658373684782	0.2510729613733906	-0.8727678571428571	0.8208616780045351
11244.17114257812	-1.320340348345945	-8.78477639449634	4.483014426431231	63.24967841915348	-12.01616364078027	11.45709765083404	0.2639484978540773	-0.8772321428571428	0.8412698412698413
11263.70239257812	-1.678131816884078	-8.377158075770554	4.547875565958818	64.47989923363529	-10.67116743181409	16.86393555827142	0.2639484978540773	-0.8348214285714285	0.8684807256235828
11283.23364257812	-1.662372043908619	-8.205598501783138	5.012714594943517	61.84067924490181	-16.38770079997439	17.94745318282584	0.2489270386266094	-0.8191964285714285	0.8752834467120182
11302.76489257812	-1.807830059513855	-7.911214628697793	5.272801869752881	59.83069765375655	-29.15230175453141	15.87662617925354	0.2703862660944206	-0.8236607142857142	0.909297052154195
11322.29614257812	-1.210310910597684	-8.119210022207156	5.724968610788784	59.87938955236731	-39.3645038628398	14.54087311744553	0.2682403433476395	-0.8147321428571428	0.9229024943310657
11341.82739257812	-0.6589962854557585	-8.104521148256557	5.69554691292279	59.77816157554059	-36.55637420879167	12.71220611028938	0.2660944206008584	-0.8080357142857142	0.9229024943310657
11361.35864257812	0.2792414198311205	-8.386630798036697	5.749327404643052	64.73299043688024	-21.42711221821277	11.94058560717873	0.2703862660944206	-0.8035714285714285	0.9546485260770975
11380.88989257812	-0.5290535556860012	-7.964406434140111	5.966580058396039	63.7762734141317	-7.819060352509017	8.547960676124271	0.2489270386266094	-0.7723214285714285	0.9614512471655329
11400.42114257812	-1.21052303308254	-7.765672547446954	5.746180859274396	63.07942053366797	-6.72637849577408	8.523096799947648	0.2725321888412017	-0.7566964285714285	0.9954648526077098
11419.95239257812	-1.252060820961092	-7.573337977648976	5.818326994068335	62.56617560103326	-9.439097541387328	12.13708139390936	0.2875536480686695	-0.7321428571428571	1.002267573696145
11439.48364257812	-0.7169342129637606	-7.518083183122889	6.387298847396466	61.60688939423844	-11.91150281241626	13.22175641313124	0.259656652360515	-0.7321428571428571	1.038548752834467
11459.01489257812	-0.5438920697840823	-6.974359059100141	6.430023304938842	61.22728551526306	-9.753238077905268	12.83286945799079	0.2768240343347639	-0.7075892857142857	1.045351473922903
11478.54614257812	-0.2457214083626699	-7.361179149552738	6.204793897491483	60.82302277044951	-7.992842542603418	11.72804355709402	0.2854077253218884	-0.6852678571428571	1.036281179138322
11498.07739257812	-0.8394021091811565	-6.98150496880718	6.389190509952378	59.46905428001977	-6.858296354522877	12.40904318583627	0.2854077253218884	-0.6651785714285714	1.086167800453515
11517.60864257812	-0.7955188526843384	-7.042549861978209	6.082497513331814	58.37924745823716	-5.09173400593495	11.29044473526726	0.2746781115879828	-0.6808035714285714	1.09297052154195
11537.13989257812	-0.6280464398927396	-6.811901353782893	6.682195009682118	58.05155382441218	-6.537337323890388	11.29834689577031	0.2746781115879828	-0.6294642857142857	1.115646258503401
11556.67114257812	-0.4490648259082298	-6.399549755781323	7.151380550006658	57.31119407228585	-4.0316662606165	10.53905852966339	0.2532188841201717	-0.6316964285714285	1.099773242630385
11576.20239257812	-0.7551729499204042	-6.25507453312706	7.149948053264903	59.39279808556399	1.85167275209775	12.68013060109678	0.2682403433476395	-0.5959821428571428	1.117913832199547
11595.73364257812	-0.6561012361332877	-6.357075351275032	7.446858307206328	58.32765012961953	4.016104299894821	12.27747109628409	0.2618025751072962	-0.5870535714285714	1.138321995464853
11615.26489257812	-0.8841903803845004	-5.577016682054742	7.806793140490859	56.96700660801804	4.40845836664636	12.60604691540037	0.2575107296137339	-0.5669642857142857	1.138321995464853
11634.79614257812	-0.6073532627549094	-6.105037578483564	7.674101785695028	55.9404188348805	1.484637619318998	11.89532890697924	0.2575107296137339	-0.5357142857142857	1.167800453514739
11654.32739257812	-0.8184422637766501	-5.708987294533951	7.354430459297661	55.26618356140609	0.4042893891562183	11.89264768381138	0.2618025751072962	-0.5200892857142857	1.195011337868481
11673.85864257812	-1.243361655181269	-5.058273454155259	8.009634905881999	54.8987526570834	0.009503596590112698	11.16982246321893	0.2446351931330472	-0.4955357142857142	1.188208616780045
11693.38989257812	-1.077333736729693	-4.948822622228663	7.733373672969312	54.53132175276071	-0.3852821959759929	10.44699724262649	0.2618025751072962	-0.4776785714285714	1.208616780045352
11712.92114257812	-1.070010419237943	-5.029703936211662	8.021450087059625	53.47457717030406	-0.4117294941064006	9.706702363527002	0.2424892703862661	-0.4665178571428571	1.219954648526077
11732.45239257812	-1.062430534550224	-4.696446401725206	8.283869781553054	53.88088117396644	0.3987742566986126	11.50528455717134	0.2446351931330472	-0.453125	1.219954648526077
11751.98364257812	-0.8685194968312667	-4.920607734324618	8.2805211116981	53.18575663581876	-1.441614853822931	10.79036149708194	0.2296137339055794	-0.4241071428571428	1.240362811791383
11771.51489257812	-1.000724866439489	-4.656659418002273	8.23575195007138	51.7569473767165	-0.03414077974158489	9.668573880511603	0.2424892703862661	-0.3973214285714285	1.242630385487528
11791.04614257812	-1.052127401199781	-4.524832261341538	8.273964609774055	49.36767482312864	-5.136506746424269	8.592675398459191	0.2424892703862661	-0.3683035714285714	1.256235827664399
11810.57739257812	-1.5225624233564	-4.126188517180578	8.378691315231793	49.1035131544815	-5.768522906931654	10.39227347777046	0.2489270386266094	-0.3325892857142857	1.235827664399093
11830.10864257812	-1.330606952926401	-3.784673728450535	8.570899374272768	47.95857774100885	-7.00642656171926	7.144343734106435	0.2317596566523605	-0.3392857142857142	1.256235827664399
11849.63989257812	-0.9835953882761022	-4.242689298642492	8.56362046026327	49.33634092611873	-6.276568066962415	7.524312643076891	0.2274678111587983	-0.3013392857142857	1.26984126984127
11869.17114257812	-0.9262675242099689	-3.80891914293972	8.953283033241801	49.58110333431618	3.136812236284648	7.43507408820837	0.2360515021459227	-0.2946428571428572	1.283446712018141
11888.70239257812	-0.8597638475132027	-4.0217053918279	8.425364343156994	49.96188430098236	5.015982271508756	8.862746928052761	0.2274678111587983	-0.2946428571428572	1.281179138321995
11908.23364257812	-1.157227433985095	-3.634892372124796	8.579886255652312	49.22442997886289	8.626017137261266	8.45218526273702	0.2510729613733906	-0.2589285714285714	1.292517006802721
11927.76489257812	-1.979728637802872	-3.111515844935103	8.17694541294026	45.47655516252236	6.486904523436982	8.398618892548452	0.2210300429184549	-0.2366071428571428	1.299319727891157
11947.29614257812	-1.527433159651525	-2.742301425979243	8.865764944744278	44.27454780637894	-2.82798176473215	10.26628875938641	0.2274678111587983	-0.2142857142857143	1.317460317460317
11966.82739257812	-1.533013032339171	-2.873558758565498	8.403344050243648	41.85684678578802	-7.96604524947436	8.47075422274288	0.2360515021459227	-0.2053571428571428	1.319727891156463
11986.35864257812	-0.7704639507573183	-2.992295360492427	8.679048136956315	41.5767425413233	-5.682839201755028	10.60059345867136	0.2339055793991416	-0.1629464285714286	1.317460317460317
12005.88989257812	-0.9541627647621997	-2.445003826897833	8.68158259866896	40.51245875653688	-4.984943137586197	9.852904361902283	0.2231759656652361	-0.1651785714285714	1.297052154195011
12025.42114257812	-1.209444115044406	-2.482855053799051	8.699513545256908	38.50310299845717	-6.741603585416533	10.54970831165065	0.2231759656652361	-0.1294642857142857	1.317460317460317
12044.95239257812	-1.440630288803378	-2.268421979940249	8.348743166052071	36.40759766821029	-7.138821103797205	9.432633689582035	0.2081545064377682	-0.140625	1.337868480725624
12064.48364257812	-0.9339120557502153	-2.18258007136169	8.697328024001129	36.44647076754998	-6.723103145558297	10.50839066263392	0.2210300429184549	-0.1227678571428571	1.331065759637188
12084.01489257812	-1.036781772123327	-1.979531172177757	8.780218028659235	35.72032524892518	-4.199583323254645	10.10892032382256	0.2253218884120172	-0.08705357142857142	1.333333333333333
12103.54614257812	-1.366977033031029	-1.935825179164639	8.126274731674366	33.26115861552049	-5.353758315351042	8.272717589996295	0.2446351931330472	-0.07366071428571429	1.328798185941043
12123.07739257812	-0.8522364883931626	-1.749053392691826	8.69303659441829	31.48957731793369	-3.943200834626658	7.144043698589833	0.2339055793991416	-0.05133928571428571	1.335600907029479
12142.60864257812	-0.5472617045143623	-2.024830413257887	8.807803104497458	31.2225102192797	-5.679580797612664	8.594915077109922	0.2274678111587983	-0.078125	1.340136054421769
12162.13989257812	-1.01851087297	-1.616077517532926	8.993944439857117	29.4764519586891	-5.337689601307373	7.837150539503403	0.2274678111587983	-0.02232142857142857	1.317460317460317
12181.67114257812	-1.125077622450892	-1.483698718724986	8.426129592028017	26.35726428531153	-7.554364064536787	6.358084609804837	0.2210300429184549	-0.015625	1.344671201814059
12201.20239257812	-0.8690689950777511	-1.647874966614879	8.335470936346542	25.3185035375213	-7.925134284787052	5.981304866835707	0.2253218884120172	-0.01116071428571428	1.337868480725624
12220.73364257812	-0.4253372459010264	-1.318978950773313	8.860255202347542	25.61894579203403	-2.477793715156037	6.292552536445479	0.2253218884120172	0.008928571428571428	1.349206349206349
12240.26489257812	-0.7096896013658086	-1.063610174693413	8.724062177397185	24.85683260407641	0.7343719513873268	5.16605192537341	0.2446351931330472	0.02232142857142857	1.351473922902494
12259.79614257812	-0.4920005195149703	-1.176898176623032	9.404133584150095	22.78221653850279	1.097195313365419	4.76121914022633	0.2339055793991416	0.02232142857142857	1.344671201814059
12279.32739257812	-0.9937833281916203	-0.8991530758089931	9.582414451815099	24.83680751056116	-1.492204412599677	4.108780496495494	0.2489270386266094	0.02901785714285714	1.344671201814059
12298.85864257812	-0.5708154636476778	-1.327625178696857	9.122362691298392	22.06039187566812	-3.711962282472131	2.636600841633048	0.2467811158798283	0.02678571428571428	1.349206349206349
12318.38989257812	-0.7029965906862026	-0.5990306401537441	9.075169272701888	21.37398362754103	-2.239259985557811	2.967857883917191	0.2532188841201717	0.03348214285714286	1.337868480725624
12337.92114257812	-0.9297443127474679	-0.7078742740442426	9.30096188699169	18.95455426463406	-4.444252503043542	1.862382531186426	0.2317596566523605	0.046875	1.326530612244898
12357.45239257812	-1.000745027352044	-0.7475683073022372	9.25817620459217	17.62987841236539	-4.740544280531715	2.917988622563417	0.2360515021459227	0.0625	1.326530612244898
12376.98364257812	-1.018084607786146	-0.9797181438211285	8.951317921471745	15.44704642226052	-7.815753639197824	-1.051750456026121	0.2575107296137339	0.08035714285714285	1.331065759637188
12396.51489257812	-0.2861802782030875	-0.8759260760058482	9.230272718267933	16.19352995093335	-2.60872684415113	1.788806788323488	0.2510729613733906	0.06473214285714285	1.342403628117914
12416.04614257812	-0.8144158945349467	-0.628219477418287	8.992609861657934	13.77787018919127	-5.175891042786479	0.6870285444275175	0.2446351931330472	0.08705357142857142	1.328798185941043
12435.57739257812	-0.964740647235885	-0.4752010783761261	8.718962682772181	14.15197612468571	-4.038913128891372	1.762277574645937	0.2575107296137339	0.1026785714285714	1.349206349206349
12455.10864257812	-1.190753011349649	0.0422105604165268	8.871219502311861	11.10472378997379	-7.632879280600212	1.737272189468787	0.2467811158798283	0.1004464285714286	1.326530612244898
12474.63989257812	-0.610579503510004	-0.387833598904294	9.017134024469785	10.02245617052096	-6.590660294311525	0.6260679565693618	0.2575107296137339	0.1049107142857143	1.342403628117914
12494.17114257812	-0.7704356677593375	-0.3458309968577602	8.676219837158232	8.611630746085114	-5.527509142350034	-0.1322045238706247	0.259656652360515	0.1160714285714286	1.333333333333333
12513.70239257812	-0.7436757875546223	-0.1541794037406154	9.061456306482635	5.513332337380821	-6.984142725220685	-0.8990286166476588	0.2639484978540773	0.109375	1.356009070294785
12533.23364257812	-0.7615042598109639	-0.749960714977648	8.80348720558619	5.173465728903149	-5.876695516099025	-0.5571881906926015	0.2811158798283262	0.1272321428571428	1.340136054421769
12552.76489257812	-0.5248271440154306	-0.5200042538123709	8.605163381134895	3.065787424003576	-3.720862507402598	-1.340324547309212	0.2703862660944206	0.1339285714285714	1.335600907029479
12572.29614257812	-0.2334666244649705	-0.3309986670886837	9.060948160782761	1.667134974220422	-5.210761882518206	-2.432535293201201	0.2725321888412017	0.1495535714285714	1.356009070294785
12591.82739257812	-0.4755579553885487	-0.1265575517592458	8.780285334773234	1.981791462234685	0.2544274461425699	-1.761469596295869	0.278969957081545	0.1183035714285714	1.360544217687075
12611.35864257812	-0.8367292421853892	0.1901854742400358	9.183128300171575	-0.4460412741600942	0.2403137745843193	-2.529309574739837	0.2768240343347639	0.1473214285714286	1.326530612244898
12630.88989257812	-0.8708083582247114	-0.09230201742785392	9.529815414307865	-0.1250226715068621	0.9437249712107558	-2.889635544868864	0.2832618025751073	0.1316964285714286	1.331065759637188
12650.42114257812	-0.5615527405801005	-0.6004450786548051	9.216498547805966	-1.180038911647456	-2.015793294176132	-4.319989607881116	0.2703862660944206	0.1383928571428571	1.351473922902494
12669.95239257812	-0.7174452034549766	-0.4271689823088846	9.499622386313995	-2.194140793599529	-1.988694315217252	-3.980830405093919	0.2811158798283262	0.1294642857142857	1.337868480725624
12689.48364257812	-0.9624739257402768	-0.04088031124764775	9.512698696476658	-1.866447159774548	-0.5430909972618133	-3.988732565596974	0.240343347639485	0.1584821428571428	1.335600907029479
12709.01489257812	-1.052210188750722	-0.3430132516478464	9.302651528133454	-2.216758400588857	0.1843357716804646	-4.003013058102683	0.278969957081545	0.1383928571428571	1.35827664399093
12728.54614257812	-0.6976773256228076	-0.5384777721983175	9.563650929627698	-3.28771721654703	0.1400397145202941	-5.103125964497726	0.2660944206008584	0.1361607142857143	1.349206349206349
12748.07739257812	-1.068250730262988	-0.2115397149195924	9.886297516094725	-2.923191742231197	-0.569538295392221	-4.729027444696458	0.2660944206008584	0.1205357142857143	1.326530612244898
12767.60864257812	-0.8867620305288931	-0.2739606625229939	10.10477448146074	-2.13728385959343	-1.917299279098201	-2.541558295911678	0.2618025751072962	0.1428571428571428	1.331065759637188
12787.13989257812	-0.482974161501947	-0.5608268240415463	9.521905946113064	-2.119300024927018	-2.261622201218057	-2.178043159781324	0.2854077253218884	0.1138392857142857	1.340136054421769
12806.67114257812	-0.6838893228782997	-0.6194237330338435	9.205258818442214	-1.118235288785662	1.730864830528401	-1.838234505160134	0.2467811158798283	0.1316964285714286	1.337868480725624
12826.20239257812	-1.04912330154253	-0.605670383146191	8.99396280731426	-1.479855333094634	3.544806642919537	-1.863606324170225	0.2618025751072962	0.1183035714285714	1.328798185941043
12845.73364257812	-0.8907257319033505	-0.4052341568223807	9.480736455641164	-5.616050318431135	0.2508673561703829	-3.352239751872773	0.2446351931330472	0.1294642857142857	1.337868480725624
12865.26489257812	-1.270899235372736	0.09351707316180818	9.742984761763447	-1.086037220617724	1.404390667438307	-1.11490134173422	0.2875536480686695	0.1361607142857143	1.333333333333333
12884.79614257812	-0.5438515418146724	-0.8026422926626615	9.487194997793777	-2.455397032239801	-1.516346673246016	-1.832505624991473	0.2746781115879828	0.1071428571428571	1.35827664399093
12904.32739257812	-0.8933984752125376	-0.4961165202983798	9.748010786559878	-2.098410760253743	-1.501581320859293	-1.465801322859791	0.2811158798283262	0.1160714285714286	1.321995464852608
12923.85864257812	-0.434181743412456	-0.5512137381214312	9.744704953490494	-1.356873920436606	0.03018238560191986	0.332272927951076	0.2811158798283262	0.1227678571428571	1.333333333333333
12943.38989257812	-0.9688861266542161	-0.6367757851981045	9.133510624605288	-1.004521420773464	1.873654902766503	1.040309713204348	0.2703862660944206	0.1316964285714286	1.344671201814059
12962.92114257812	-1.269230538491868	-0.3307420380494248	9.576115073676633	-0.326516546134174	2.591831451779663	1.046688045207002	0.259656652360515	0.1316964285714286	1.319727891156463
12982.45239257812	-1.174482124196394	-0.3013864918893493	9.284947113516944	-1.378627356267907	0.7366769888713958	-0.0349393170140721	0.2553648068669528	0.1294642857142857	1.349206349206349
13001.98364257812	-0.6172219676072128	-0.4281712146673623	9.681380434190666	-0.6759636157904557	1.852722737093701	0.6873779607449086	0.2639484978540773	0.1428571428571428	1.337868480725624
13021.51489257812	-0.9789589555925298	-0.1821296023632667	9.120385355171337	-1.397475362092347	2.547535394619493	-0.05342486118804186	0.2553648068669528	0.1138392857142857	1.333333333333333
13041.04614257812	-0.8488162246227652	-0.3753502215921563	9.371418380643867	-3.53358213399497	4.667670885256393	-1.556197272395773	0.2660944206008584	0.125	1.326530612244898
13060.57739257812	-1.321616917539065	-0.4110262550670336	9.712712162069717	-5.954188584592753	-1.574756401964437	-3.700458509830484	0.2510729613733906	0.1205357142857143	1.340136054421769
13080.10864257812	-0.485289326908091	-0.7426218542056666	9.753422486727461	-2.04909302857742	-0.705842922441003	-0.03392343134713838	0.2682403433476395	0.140625	1.340136054421769
13099.63989257812	-0.7839226173679038	-0.4265042081697554	10.02491479801487	-1.04339452011315	1.457936944527595	-0.03544725984753896	0.259656652360515	0.125	1.346938775510204
13119.17114257812	-1.022846252517631	-0.2827008304041166	9.427482394620199	0.002041258848833907	2.570899286106861	0.6937562927475628	0.2725321888412017	0.1116071428571428	1.333333333333333
13138.70239257812	-1.272109343643487	-0.07818799747265606	9.863995588838511	-0.3503112408143086	0.727426768942278	-0.01428049250570896	0.2510729613733906	0.1138392857142857	1.331065759637188
13158.23364257812	-0.864628481937043	-0.4560001798270943	9.932235948806335	-0.02725137931224269	4.001737251675576	0.3191498301128267	0.2682403433476395	0.1138392857142857	1.333333333333333
13177.76489257812	-0.741334318135779	-0.5178391820711675	9.84771752786361	-0.003769601164887951	0.3621716811496193	-0.003697108834793953	0.2446351931330472	0.1227678571428571	1.344671201814059
13197.29614257812	-0.4738447725677077	-0.6215241785369493	9.629375215954452	-1.124046148799384	-0.4778627744288408	-2.535687906742491	0.2446351931330472	0.1160714285714286	1.344671201814059
13216.82739257812	-0.8306746191744929	-0.6381579002729016	9.598074162347263	0.00667503117174888	0.7421921213290015	0.3524238096259723	0.2725321888412017	0.1160714285714286	1.353741496598639
13236.35864257812	-0.6990147073844719	-1.003110863027165	9.69738910579413	-0.721511746301891	0.6948126575257918	-0.7408028219329504	0.2660944206008584	0.09821428571428571	1.344671201814059
13255.88989257812	-0.8218361410766281	-0.7190543658619611	9.734634515826063	1.770717126428763	0.05597800290385468	1.473703483362846	0.2618025751072962	0.125	1.342403628117914
13275.42114257812	-0.4754589236667557	-0.7932252087431305	9.790790325859252	-0.3305990638318419	-2.549967120434059	-0.3408245402881236	0.2768240343347639	0.1294642857142857	1.331065759637188
13294.95239257812	-1.434092793383806	0.4789873925803028	9.735809950625526	0.714836715130142	-1.437004778854793	0.3883790123069781	0.2510729613733906	0.1361607142857143	1.328798185941043
13314.48364257812	-0.7181401571196482	-0.4473640529742581	9.569117752781143	-2.163983984280426	-4.886067764414206	-3.951253534415567	0.2510729613733906	0.109375	1.340136054421769
13334.01489257812	-1.032646352546843	-0.2826028294038246	9.387084234276177	1.069781728267366	-3.993138712574931	0.06132702169109663	0.259656652360515	0.1183035714285714	1.349206349206349
13353.54614257812	-0.9603143168230273	-0.7782756447105578	9.296737804751711	1.328445453433557	-0.06587990366144539	-1.051908982542197	0.2553648068669528	0.125	1.346938775510204
13373.07739257812	-0.5152088220300916	-0.5504034673352548	9.684147509131604	-0.7644673633392451	-4.862703872926837	-3.204072380479963	0.2575107296137339	0.1272321428571428	1.333333333333333
13392.60864257812	-0.451721325046565	-0.9550787463454941	9.457846790370787	1.314231219932032	-0.08372866269120816	-1.411727009837757	0.2682403433476395	0.1294642857142857	1.351473922902494
13412.13989257812	-0.9936237312744429	-0.323397096020589	9.566454760097352	2.070846464408721	-0.0006516808284728857	0.4011356763122865	0.2660944206008584	0.125	1.324263038548753
13431.67114257812	-0.8071794462512807	-0.3959686095778913	9.289373196556641	-0.03046972585188347	-2.606596804166387	-1.413392347338683	0.2639484978540773	0.09821428571428571	1.342403628117914
13451.20239257812	-1.296242945464269	-0.2698658533736402	9.216131281120816	1.353968490429745	-1.134546188080541	-0.6809996287422544	0.2489270386266094	0.09598214285714285	1.351473922902494
13470.73364257812	-0.9339241358062043	-0.4755092434904229	9.718944192865324	1.735613628253964	-0.7219116364846723	0.4016436191457534	0.2467811158798283	0.1183035714285714	1.321995464852608
13490.26489257812	-0.7522738189407904	-0.1338914032247335	9.921259445099446	1.117371117627635	-0.2643293469001606	2.183264097116518	0.2682403433476395	0.1428571428571428	1.342403628117914
13509.79614257812	-0.8197896641513017	-0.4261455377019214	9.529986823293441	1.014966053110101	-1.493634462587121	-0.6841887947435815	0.2725321888412017	0.1227678571428571	1.351473922902494
13529.32739257812	-0.8270503550046655	-0.6179921227125798	9.235647745364519	1.422134227930508	-2.149666195410348	0.7693638069443683	0.2682403433476395	0.1316964285714286	1.346938775510204
13548.85864257812	-1.036436315505133	-0.5350901822994942	8.745672366839809	0.6437655476225181	-1.526248574003607	-1.410711124170823	0.2553648068669528	0.1071428571428571	1.344671201814059
13568.38989257812	-1.178686231053688	-0.2003343498106753	8.684949635981058	0	0	0	0.2746781115879828	0.1517857142857143	1.365079365079365
13587.92114257812	-0.7670295454879305	-0.2953600075754238	9.35601577328285	-1.378627356267907	0.7366769888713958	-0.0349393170140721	0.2532188841201717	0.1316964285714286	1.333333333333333
13607.45239257812	-0.8588021843529948	0.2712142844697926	9.349606190401522	-3.157747856184473	2.87157783189502	-1.171007426090122	0.2682403433476395	0.1227678571428571	1.349206349206349
13626.98364257812	-0.6986672305521362	-0.2354375701187211	9.662641422560554	-2.810893300002272	8.010292997465703	0.2233914342411249	0.2682403433476395	0.1294642857142857	1.376417233560091
13646.51489257812	-0.8206199721634528	-0.5574503659349312	9.613017624508553	-3.82994187081004	4.362128887839101	-0.4799323565104192	0.2532188841201717	0.125	1.326530612244898
13666.04614257812	-1.194631822501304	-0.5638112575325629	9.25910061747734	-2.386054207048232	1.505968089159278	0.6566436953990973	0.2703862660944206	0.1160714285714286	1.340136054421769
13685.57739257812	-0.892184326513504	-0.6678458335025419	9.626595916656516	-4.832183694642202	-3.667792913642457	-1.858526895835556	0.2575107296137339	0.1316964285714286	1.340136054421769
13705.10864257812	-1.085349905214253	-0.1709646827660393	9.555398684690605	-0.9468003156093375	0.4785144552573138	2.134552230430204	0.2660944206008584	0.1383928571428571	1.344671201814059
13724.63989257812	-0.4543779066426202	-0.3994966249739779	9.723504949976311	-1.999775296901097	0.0898954759772867	1.397954460165515	0.2618025751072962	0.1316964285714286	1.337868480725624
13744.17114257812	-1.127239210353423	-0.40286902203788	9.662696545546416	-4.188105230486904	0.3099287657172768	-1.885422543346048	0.2489270386266094	0.1316964285714286	1.346938775510204
13763.70239257812	-0.1453889572646857	-0.968243080124323	9.436854910142037	-2.763065572549535	-0.73537362721445	-0.7673320356105009	0.2467811158798283	0.1205357142857143	1.340136054421769
13783.23364257812	-0.535920139866335	-0.5501963541568923	9.714462966225335	-2.060401832072084	0.380672121007855	-0.04501475785152025	0.2532188841201717	0.125	1.349206349206349
13802.76489257812	-1.074044745649632	-0.322592885876837	9.445290891493856	-1.716765622429525	-1.088946769263424	-0.3831580749717836	0.2467811158798283	0.1183035714285714	1.356009070294785
13822.29614257812	-0.8879095533901178	-0.3850602984054928	9.199118604317894	-1.719671052436385	-2.193310571742045	-0.731884775762962	0.2553648068669528	0.09821428571428571	1.342403628117914
13841.82739257812	-0.712687557922915	-0.6090347405823872	10.04426599637314	0.00667503117174888	0.7421921213290015	0.3524238096259723	0.2575107296137339	0.1116071428571428	1.335600907029479
13861.35864257812	-0.2105471713432218	-0.9776925080845478	9.830227338403818	-0.0008641711580270224	1.46653548362824	0.3450295919563844	0.2575107296137339	0.109375	1.342403628117914
13880.88989257812	-0.7275907601023838	-0.861410961085845	9.493769887789396	0.6846799058110384	1.460368670342161	0.3588021416286265	0.2618025751072962	0.1138392857142857	1.337868480725624
13900.42114257812	-1.094032826823224	-0.6860293687014649	9.403282682322358	0.04264270050457435	0.05354627708928829	1.079454081886681	0.259656652360515	0.1071428571428571	1.349206349206349
13919.95239257812	-0.981765033035055	-0.5558389153262152	9.400993099423863	-0.6591568688148498	-2.529034954761257	0.01210721217131558	0.2660944206008584	0.1160714285714286	1.356009070294785
13939.48364257812	-0.8914530089942857	-0.7082571870817744	9.553464164734692	-0.3297348926738148	-4.016502604062299	-0.685854132244508	0.2768240343347639	0.125	1.326530612244898
13959.01489257812	-1.016086574771355	-0.434283578696731	9.771922783257995	1.032949887776513	-1.837957384706977	-0.3206736586132273	0.2682403433476395	0.1183035714285714	1.356009070294785
13978.54614257812	-0.5036955804088978	-0.7121347613676283	9.55323151027754	2.085060697910246	0.01719707820128988	0.7609537036078468	0.2682403433476395	0.125	1.35827664399093
13998.07739257812	-1.065369904897228	-0.6358109474156742	9.598214979518698	-1.38734364628849	-2.576414418564466	-1.081119419387607	0.2532188841201717	0.1205357142857143	1.331065759637188
14017.60864257812	-0.9399807790312419	-0.4855496871591826	9.304200352103784	-2.503850592758097	-3.778620555292546	-3.60941310846051	0.2553648068669528	0.09821428571428571	1.346938775510204
14037.13989257812	-0.9194856241081375	-0.2938354467892217	9.295501186323962	0.7072975128003661	-0.7126614165555545	0.3809847946373902	0.2467811158798283	0.1205357142857143	1.346938775510204
14056.67114257812	-1.121416953197658	-0.342321184003377	9.080470829969901	2.375609574711595	-1.88598852933866	-1.012764613859864	0.2725321888412017	0.1026785714285714	1.360544217687075
14076.20239257812	-0.8843155512035525	-0.142671996003116	9.860126548926683	0.008403373487802925	-2.190878845927479	-0.3376353742867965	0.2703862660944206	0.1383928571428571	1.340136054421769
14095.73364257812	-0.8811882597125309	-0.3043194305341879	9.547397399824517	0.1989013611532309	2.751499970315813	-2.901234814206712	0.2575107296137339	0.1272321428571428	1.36281179138322
14115.26489257812	-0.6669497448442123	-0.7307042399252954	9.552117341564079	0.3578504431440845	-1.451770131241517	0.02167471017529686	0.2532188841201717	0.1316964285714286	1.349206349206349
14134.79614257812	-0.8548950902033593	-0.5167035743504917	8.958896775437962	1.003657249615437	-0.4071194191382627	-0.6952801212479633	0.2575107296137339	0.140625	1.340136054421769
14154.32739257812	-1.105554149300983	-0.3424798120423438	9.535006766833016	-2.478327555761909	-4.847286839711641	-3.238503754660568	0.2618025751072962	0.1004464285714286	1.337868480725624
14173.85864257812	-1.030539269197273	-0.5957552133686334	9.176375899319096	1.034991146625347	0.7329419013998837	0.3730826341343355	0.2639484978540773	0.1049107142857143	1.321995464852608
14193.38989257812	-1.05169099371636	-0.02988713046687681	9.250732024697241	-0.6637906411377649	-0.7003277899833973	0.353439695292906	0.2532188841201717	0.1339285714285714	1.349206349206349
14212.92114257812	-0.9447606056899999	-0.2632796666703728	9.782183017979577	0.01798383466641273	-0.3443229221198566	0.3635151361303542	0.2575107296137339	0.1473214285714286	1.344671201814059
