Time Stamp	Accelerometer X	Accelerometer Y	Accelerometer Z	Gyroscope X	Gyroscope Y	Gyroscope Z	Magnetometer X	Magnetometer Y	Magnetometer Z
1034.210205078125	1.008765937155508	7.131326482042588	6.266263427306394	5.153753551920682	-2.599301626722687	-0.2306441429101868	0.1995708154506438	-0.421875	0.6802721088435374
1053.741455078125	0.06235003396414937	-10.13193663165278	-2.153370743353712	3.013013007695144	1.349541028692073	-1.392084070996327	0.1952789699570815	-0.4308035714285714	0.6621315192743764
1073.272705078125	0.01526873725249773	-9.626415313635153	-2.547281888515079	-1.395747019776292	-0.3855355726369878	-0.7434840451008107	0.1974248927038627	-0.3995535714285714	0.671201814058957
1092.803955078125	-0.008796136058613914	-9.424154462881839	-2.181610883934527	0.261256238640272	-0.4723476419712352	-2.148324780102446	0.2017167381974249	-0.4263392857142857	0.6825396825396826
1112.335205078125	0.1937877221986069	-9.789816665100776	-2.031833444350491	0.3540808419791966	-1.089598450091897	0.01797760134050291	0.1952789699570815	-0.40625	0.6802721088435374
1131.866455078125	0.3192051310625736	-10.02339407151265	-2.328676371563486	0.6809103046461504	1.822540351491781	0.3551050327938325	0.1952789699570815	-0.4129464285714285	0.6825396825396826
1151.397705078125	-0.2010950428926651	-9.866675918257943	-2.339475302570224	0.2954955656570434	1.772077481045532	-0.7312353239289692	0.1952789699570815	-0.4129464285714285	0.6666666666666666
1170.928955078125	-0.09100503994901932	-9.473837424347987	-2.123985801016435	-2.511389795087873	-3.054277192993307	-3.616807326130098	0.1866952789699571	-0.4174107142857142	0.6802721088435374
1190.460205078125	0.1008453793456218	-9.798988251773256	-1.921272628439729	0.08991917333206367	-1.721614610599283	1.817575680651771	0.1781115879828326	-0.40625	0.673469387755102
1209.991455078125	0.02231326519272247	-9.747697880126676	-2.231326519272247	0.3068043691517073	0.6855624375966739	-0.7201439974245873	0.2017167381974249	-0.4241071428571428	0.6802721088435374
1229.522705078125	0.122821351234436	-9.718399930684063	-2.078053490790539	-0.03800892818165938	-1.882253441867148	-1.420786565008271	0.1802575107296137	-0.4129464285714285	0.6870748299319728
1249.053955078125	-0.2031496006745573	-9.47271597874073	-2.13401952438101	0.2954955656570434	1.772077481045532	-0.7312353239289692	0.1888412017167382	-0.40625	0.6757369614512472
1268.585205078125	-0.3042334477465946	-9.55251322107809	-2.229716449830342	-3.214917706723352	-2.703787457587372	-3.994095011932694	0.1974248927038627	-0.4263392857142857	0.6757369614512472
1288.116455078125	-0.05718047089152458	-9.27215546801836	-2.445218216969991	-1.037896576632208	-1.837305703878505	-0.7218093349255138	0.1931330472103004	-0.421875	0.671201814058957
1307.647705078125	-0.4164689181084993	-9.39987571485932	-2.230659209558226	-1.132449522287187	1.713016071498638	-2.198052532455694	0.1952789699570815	-0.4040178571428571	0.6961451247165533
1327.178955078125	-0.4757442686070258	-9.449788011859386	-2.425573139297422	0.6487122364782131	2.149014514581875	-0.3682281306320819	0.1824034334763948	-0.4151785714285714	0.6802721088435374
1346.710205078125	-0.0396126062594347	-9.757179631513164	-2.161188353648366	-0.6553872676499619	-2.891206635910876	0.01580432100610953	0.203862660944206	-0.40625	0.6893424036281179
1366.241455078125	-0.1704442302514463	-9.594255153657082	-2.343332076896193	-0.3427720384845327	0.003083406643039275	-0.006886274836121049	0.1952789699570815	-0.4285714285714285	0.6848072562358277
1385.772705078125	0.001119116176663669	-9.616172807323384	-2.152727944196979	0.6118803959873605	4.304195842449827	-0.7502288109364058	0.2145922746781116	-0.4241071428571428	0.6893424036281179
1405.303955078125	-0.1232578824044373	-9.938161360569895	-1.959926045270558	0.6315925729698273	1.026801953073491	-1.07677285871882	0.1952789699570815	-0.4285714285714285	0.6870748299319728
1424.835205078125	-0.2494894787962832	-9.361141468848402	-2.602072528534945	1.381532786274768	0.367686813607225	0.3836660178052504	0.1995708154506438	-0.4241071428571428	0.6848072562358277
1444.366455078125	-0.1095506882255888	-9.716076210289463	-2.310237299890095	-0.02552303699618864	1.068666284419095	-0.3709093537999421	0.1952789699570815	-0.4196428571428571	0.6870748299319728
1463.897705078125	0.04828930231054072	-9.596442488982703	-1.767705741258154	-0.4184769783150716	1.742546776272085	-1.464643928192332	0.1931330472103004	-0.4017857142857142	0.6938775510204082
1483.428955078125	0.02952547090669063	-9.475042729456542	-1.932138927403756	-1.496110825444993	0.956058597782913	-2.917180644213348	0.2145922746781116	-0.4241071428571428	0.6802721088435374
1502.960205078125	-0.0175275428069802	-9.353360078107285	-2.328878372363205	0.656251438807989	1.424671152282636	-0.360833912962494	0.2124463519313305	-0.421875	0.6689342403628118
1522.491455078125	-0.1961333557323133	-9.715210383614396	-1.815235855340096	0.6014357636507237	3.924175402270446	-1.106349729397172	0.1995708154506438	-0.4084821428571428	0.6802721088435374
1542.022705078125	-0.1510177686091884	-9.473237297061385	-2.24516191459136	0.3314632349898689	1.083431636805819	-0.004205051668260811	0.2081545064377682	-0.4040178571428571	0.671201814058957
1561.553955078125	-0.6148628522362765	-9.620113997740265	-2.799429062086638	-0.00667503117174888	-0.7421921213290015	-0.3524238096259723	0.1909871244635193	-0.3950892857142857	0.6870748299319728
1581.085205078125	-0.2300286735136201	-9.634063349628502	-2.50733673027064	0.3503112408143086	-0.727426768942278	0.01428049250570896	0.1866952789699571	-0.4040178571428571	0.7006802721088435
1600.616455078125	0.4497680665737674	-10.07520475137281	-2.119663800233884	0.01507840465955181	-1.448686724598477	0.01478843533917581	0.2017167381974249	-0.4196428571428571	0.6666666666666666
1620.147705078125	0.3048615694291569	-9.68991730256298	-1.914728371487112	-0.7386314098102766	-0.4273999039825919	-1.449347550019689	0.2017167381974249	-0.4174107142857142	0.6916099773242631
1639.678955078125	0.3744077298518625	-9.751218824773268	-1.726487270900538	1.02454651428871	0.3529214612205015	0.01696171567356919	0.1824034334763948	-0.40625	0.6802721088435374
1659.210205078125	-0.003299133379628143	-9.999967008666205	-2.731311151833104	-0.3598917019929185	-1.119129154865344	-0.7154310029228597	0.203862660944206	-0.4084821428571428	0.673469387755102
1678.741455078125	0.008212129256284097	-9.313213434423878	-1.841621088893716	-0.3749701066524703	0.3295575697331331	-0.7302194382620355	0.2060085836909871	-0.3995535714285714	0.6961451247165533
1698.272705078125	-0.254218800101504	-9.896447710988886	-2.129140398012869	-1.747235348281408	-3.695543573429811	-1.796550422310467	0.1888412017167382	-0.4285714285714285	0.6916099773242631
1717.803955078125	0.2971382495373925	-9.952466331990326	-2.162804545575985	0.7139725439721151	0.02953070477344698	0.7334086042633625	0.2060085836909871	-0.4174107142857142	0.671201814058957
1737.335205078125	0.1547873232817628	-9.617709489394436	-2.213426205727303	-0.003769601164887951	0.3621716811496193	-0.003697108834793953	0.2060085836909871	-0.4129464285714285	0.673469387755102
1756.866455078125	0.06345509109954268	-9.616796167072614	-2.263876456893044	0.6420372053064641	1.406822393252873	-0.7206519402580541	0.1995708154506438	-0.4196428571428571	0.6848072562358277
1776.397705078125	0.3186556328160892	-10.28601483915645	-2.273726546915043	-0.02465886583816162	-0.3978691992091449	-0.7159389457563266	0.1888412017167382	-0.4263392857142857	0.6757369614512472
1795.928955078125	0.1686541143777887	-9.829969369426609	-2.579697152064587	-1.088942650624585	0.3000268649596861	-1.463628042525398	0.1909871244635193	-0.4352678571428571	0.6825396825396826
1815.460205078125	-0.01719420747363486	-9.908918967016174	-2.362211905697738	0.3331915773059229	-1.849639330450662	-0.6942642355810297	0.203862660944206	-0.40625	0.6984126984126985
1834.991455078125	0.3146697503149357	-9.366783061139515	-1.875138296799684	1.039624918948262	-1.095765263377976	0.031750151012745	0.1995708154506438	-0.4241071428571428	0.6757369614512472
1854.522705078125	-0.0003354380052068761	-9.212117857741161	-2.007272526009924	0.6930832792988414	-0.7305101755853173	0.02116676734183	0.2081545064377682	-0.4151785714285714	0.6802721088435374
1874.053955078125	0.3280496698028632	-9.609341102758636	-2.192722082327134	0.645806806471352	1.044650712103254	-0.7169548314232602	0.203862660944206	-0.4107142857142857	0.7029478458049887
1893.585205078125	-0.2934394023597702	-9.694035302946101	-2.288712825247473	-0.4222465794799596	2.104718457421704	-1.468341037027126	0.1995708154506438	-0.421875	0.6870748299319728
1913.116455078125	-0.01057796493140533	-9.989793210249678	-2.003427996655385	-0.1032692356755614	0.23723036794128	-2.522423299903715	0.2103004291845494	-0.4196428571428571	0.6643990929705216
1932.647705078125	-0.02863472138573503	-9.868400521473012	-2.238568677753027	-0.647848065320186	-3.615549998210115	0.02319853867569743	0.1974248927038627	-0.4084821428571428	0.6870748299319728
1952.178955078125	0.4008140313529575	-9.478755615061006	-2.326301094479418	0.7006224816286173	-1.454853537884556	0.02856098501141791	0.1931330472103004	-0.4196428571428571	0.6780045351473923
1971.710205078125	0.1341164097283491	-9.516492679248799	-2.187151176916545	0.2737421298257428	2.478572084315008	-1.098447568894117	0.1781115879828326	-0.4174107142857142	0.6825396825396826
1991.241455078125	-0.3052940601708751	-9.299977362428596	-2.123655207402281	-0.2737421298257428	-2.478572084315008	1.098447568894117	0.2124463519313305	-0.4040178571428571	0.6893424036281179
2010.772705078125	0.1761370287867161	-9.840145208671707	-2.30758042969202	-2.472516695748187	-2.6385592347544	-2.541050353078211	0.1995708154506438	-0.4084821428571428	0.6643990929705216
2030.303955078125	-0.4043092079620299	-9.965653877617351	-2.42622206093987	-2.605942740742852	0.4960445823838349	-5.093050523660279	0.2167381974248927	-0.4375	0.6870748299319728
2049.835205078125	-0.002488986280031881	-9.494924605086695	-1.791917698527424	-0.3465416396494207	0.3652550877926586	-0.010583383670915	0.203862660944206	-0.4397321428571428	0.6848072562358277
2069.366455078125	0.1018554864163652	-9.798998352843963	-2.022283335514072	0.3540808419791966	-1.089598450091897	0.01797760134050291	0.2188841201716738	-0.4174107142857142	0.6757369614512472
2088.897705078125	0.3635207133856698	-9.963231166729818	-2.67860195081187	0.3360970073127839	-0.7452755279720408	-0.3455375347898513	0.1974248927038627	-0.4196428571428571	0.6802721088435374
2108.428955078125	-0.2019011083351183	-9.533334524270185	-2.258868758324898	0.9885788449558849	1.041567305460215	-0.7100685565871392	0.1909871244635193	-0.4017857142857142	0.6825396825396826
2127.960205078125	-0.2153113310351682	-9.240271129113893	-1.938254651585217	0.2992651668219314	1.409905799895913	-0.7275382150941753	0.2124463519313305	-0.4285714285714285	0.7052154195011338
2147.491455078125	-0.1494965473606488	-9.988404024425385	-2.397284039445321	-0.9508828333070053	-4.663284116956407	0.7470396449350787	0.2017167381974249	-0.421875	0.6802721088435374
2167.022705078125	-0.1723412113303024	-9.462923052533164	-2.153633969010576	-3.870304974373313	-5.594994093498249	-3.978290690926585	0.2145922746781116	-0.4107142857142857	0.671201814058957
2186.553955078125	0.05987729185496944	-9.546053318373097	-1.906096532435719	-0.05104607399237727	2.137332568838191	-0.7418187075998842	0.2081545064377682	-0.4375	0.671201814058957
2206.085205078125	-0.03052564182216674	-9.747169491056528	-2.049476634109856	0.6487122364782131	2.149014514581875	-0.3682281306320819	0.1974248927038627	-0.4352678571428571	0.6689342403628118
2225.616455078125	-0.1893009915058047	-9.654672646650601	-2.498472277990956	0.3503112408143086	-0.727426768942278	0.01428049250570896	0.1866952789699571	-0.4196428571428571	0.673469387755102
2245.147705078125	-0.04721471330270982	-9.71669957003869	-2.42138581258616	-0.396723542483771	1.036052173002609	-1.097431683227184	0.203862660944206	-0.40625	0.6938775510204082
2264.678955078125	-0.06101483733206666	-9.615551467788299	-2.061781572915783	0.6930832792988414	-0.7305101755853173	0.02116676734183	0.2017167381974249	-0.40625	0.7029478458049887
2284.210205078125	0.3693753351965587	-9.953188702846917	-2.243655968635462	0.03683184049085249	-2.155181327867953	0.3820006803043239	0.1931330472103004	-0.4129464285714285	0.6666666666666666
2303.741455078125	-0.1327266673144463	-9.311804046458169	-2.033455717534965	-0.3305990638318419	-2.549967120434059	-0.3408245402881236	0.2017167381974249	-0.40625	0.6825396825396826
2323.272705078125	0.1326557949040541	-9.607387164009648	-2.041089694487044	0.6411730341484372	2.873357876881113	-0.3756223483016697	0.1888412017167382	-0.4107142857142857	0.6848072562358277
2342.803955078125	0.6109232285160769	-9.925301151477081	-1.908649382219938	0.3427720384845327	-0.003083406643039275	0.006886274836121049	0.1824034334763948	-0.421875	0.6689342403628118
2362.335205078125	-0.1705028164615494	-9.664961638502051	-2.337473455885881	0.327693633824981	1.445603317955438	-0.007902160503054765	0.1909871244635193	-0.4196428571428571	0.6938775510204082
2381.866455078125	0.1436255989211878	-9.536789791342748	-2.117661932935111	-0.01044463233663683	-0.3800204401793821	-0.3561209184607663	0.1738197424892704	-0.4151785714285714	0.673469387755102
2401.397705078125	0.0932533733730541	-9.606993139794339	-2.182480194448266	-0.3778755366593312	-0.7748062327454877	-1.078946139053214	0.1888412017167382	-0.4107142857142857	0.6893424036281179
2420.928955078125	-0.1185810866668952	-9.988713179032322	-2.427605619024768	0.6750994446324288	-0.3861872534654606	-0.3423483687885241	0.1995708154506438	-0.4151785714285714	0.6666666666666666
2440.460205078125	-0.2892737208000242	-9.734481000165738	-2.705280981222066	-1.016143140800907	-2.54380030714798	-0.3545970899603657	0.1866952789699571	-0.4129464285714285	0.673469387755102
2459.991455078125	0.3960119823386431	-9.387798503661772	-1.846096193047989	-1.031221545460459	-1.095113582549503	-0.3693855252995415	0.1974248927038627	-0.4196428571428571	0.6825396825396826
2479.522705078125	-0.01068907670918711	-9.131206240546042	-1.992316818877207	0.2395028028089713	0.2341469612982407	-2.515537025067594	0.1888412017167382	-0.3995535714285714	0.6689342403628118
2499.053955078125	-0.02843472018572783	-9.696685349767842	-2.258568797753747	0.6696015011514866	2.909055394940639	0.3440137062894507	0.2060085836909871	-0.4285714285714285	0.6802721088435374
2518.585205078125	-0.337251951361636	-9.582486066344972	-1.989090578122113	0.6997583104705902	0.01168194574368421	0.3735905769678023	0.184549356223176	-0.4241071428571428	0.6621315192743764
2538.116455078125	0.1445670187111207	-9.759021427762871	-2.211803911928399	0.3645254743158334	-0.7095780099125152	0.3740985198012692	0.2103004291845494	-0.4129464285714285	0.671201814058957
2557.647705078125	0.1371123873001741	-10.13268425518613	-2.486748934099047	-0.4147073771501837	1.380375095122466	-1.460946819357538	0.2017167381974249	-0.4285714285714285	0.6984126984126985
2577.178955078125	-0.4261841691437697	-9.541192703763109	-2.279542269296494	-0.3712005054875823	-0.03261411141648625	-0.7265223294272415	0.1952789699570815	-0.4241071428571428	0.6825396825396826
2596.710205078125	-0.09226767378744861	-9.221299545484351	-1.997722417173506	0.03306223932596454	-1.793009646718334	0.37830357146953	0.1995708154506438	-0.4397321428571428	0.6802721088435374
2616.241455078125	0.6737097111925076	-9.835019925394754	-2.06484867027116	-1.106062314132971	-0.8221856965486974	-2.172172770612137	0.1995708154506438	-0.4308035714285714	0.6780045351473923
2635.772705078125	-0.2624249511730837	-9.522628275740797	-2.328933454120206	0.6014357636507237	3.924175402270446	-1.106349729397172	0.1824034334763948	-0.40625	0.6780045351473923
2655.303955078125	-0.2985525643518734	-9.421256898598907	-1.777396626037147	1.082267619452836	-1.042218986288687	1.111204232899426	0.2103004291845494	-0.4084821428571428	0.6802721088435374
2674.835205078125	-0.02929331119585975	-9.444151511332489	-2.172709696740556	1.395747019776292	0.3855355726369878	0.7434840451008107	0.1824034334763948	-0.4017857142857142	0.6780045351473923
2694.366455078125	-0.1001445299539659	-9.564655120357028	-2.230444963787078	0.3201544314952051	2.169946680254677	-0.01529637817264267	0.1931330472103004	-0.4129464285714285	0.6689342403628118
2713.897705078125	-0.2930596021011707	-9.653635060544648	-2.326692851107426	-0.7310922074805007	-1.15174326628183	-1.441953332350101	0.2103004291845494	-0.4151785714285714	0.6916099773242631
2733.428955078125	0.07098447043372427	-9.536063380057874	-1.996406227045897	0.1430065061732748	-1.288047893330613	3.253150680999218	0.1888412017167382	-0.4084821428571428	0.6757369614512472
2752.960205078125	0.3464316807339722	-9.599423912766939	-1.990106848907431	-1.082267619452836	1.042218986288687	-1.111204232899426	0.1952789699570815	-0.4285714285714285	0.6666666666666666
2772.491455078125	-0.07853219661061937	-9.383053061872278	-2.350861971591125	-1.1504333569536	2.057338993618494	-2.561567668586048	0.1995708154506438	-0.3928571428571428	0.671201814058957
2792.022705078125	-0.08226555234408711	-9.726450071749289	-1.977526398244351	-2.278249106917871	1.941647900339273	-5.100952684163333	0.203862660944206	-0.421875	0.6666666666666666
2811.553955078125	-0.3258073970212529	-9.461388390676253	-2.113137848895121	0.3343686649967298	2.187795439284439	0.3445216491229176	0.2017167381974249	-0.421875	0.6893424036281179
2831.085205078125	-0.2949666842507342	-9.673818009925172	-2.135984636151066	-0.6696015011514866	-2.909055394940639	-0.3440137062894507	0.203862660944206	-0.40625	0.6938775510204082
2850.616455078125	-0.09910411967110021	-9.615170574964907	-2.334485992073652	0.6571156099660159	-0.04186433134560408	-0.7058635049188784	0.1931330472103004	-0.4107142857142857	0.673469387755102
2870.147705078125	-0.008208253743441234	-9.393857311401963	-2.240399115451795	0.2925901356501825	0.6677136785669111	-1.079962024720148	0.2060085836909871	-0.40625	0.6757369614512472
2889.678955078125	-0.03873381310788792	-9.706683368939631	-2.249067668803045	0.01798383466641273	-0.3443229221198566	0.3635151361303542	0.1866952789699571	-0.4151785714285714	0.6757369614512472
2909.210205078125	-0.3019081812697432	-9.724253645460031	-2.462243097515481	-1.034991146625347	-0.7329419013998837	-0.3730826341343355	0.2017167381974249	-0.4241071428571428	0.6780045351473923
2928.741455078125	0.24418621053058	-9.931734791398238	-1.969641461221268	-1.492341224280105	0.5938869166332936	-2.913483535378554	0.1931330472103004	-0.4263392857142857	0.671201814058957
2948.272705078125	0.05421459038752171	-9.707612852974584	-2.360234548956253	0.3097097991585682	1.789926240075295	-0.3714172966334089	0.1995708154506438	-0.4017857142857142	0.6825396825396826
2967.803955078125	-0.5399610628956291	-9.681469076239733	-2.12634269002893	-0.2841867621623796	-2.85859252449439	0.742326650433351	0.2017167381974249	-0.4375	0.6802721088435374
2987.335205078125	-0.1095527084397303	-9.54435901837015	-2.310035278475947	0.7470347832980796	-1.763478941944887	1.111712175732892	0.184549356223176	-0.4129464285714285	0.6802721088435374
3006.866455078125	0.3509832231947422	-9.609570438292556	-2.445261094984422	0.6750994446324288	-0.3861872534654606	-0.3423483687885241	0.1952789699570815	-0.4174107142857142	0.6666666666666666
3026.397705078125	0.08231387256804266	-10.23314637104891	-2.10893827721243	-0.7432651821331916	1.401307260795268	-1.108015066898099	0.1888412017167382	-0.421875	0.6870748299319728
3045.928955078125	0.135912380100131	-9.647823770265648	-2.366748214094727	0.01421423350152478	0.01784875902976276	0.3598180272955602	0.1974248927038627	-0.4107142857142857	0.671201814058957
3065.460205078125	0.3155182402543601	-9.770831950079314	-1.959987290742133	-0.6817744758041775	-0.3560048678635408	-0.01007544083744814	0.1888412017167382	-0.4196428571428571	0.6757369614512472
3084.991455078125	0.07196831472062838	-9.829002511430035	-2.094790655736308	-0.7708294779782142	-0.100925740892498	-2.172680713445604	0.1909871244635193	-0.4040178571428571	0.6757369614512472
3104.522705078125	-0.108605228007373	-9.776691725497706	-2.404783321711681	-0.1496815373450237	0.5458557720016111	-3.60557449062519	0.1888412017167382	-0.4174107142857142	0.6643990929705216
3124.053955078125	0.1752097504957736	-9.809832905585768	-2.214852600597772	0.02088926467327366	0.7600408803587642	0.7122418369215325	0.203862660944206	-0.4330357142857142	0.6689342403628118
3143.585205078125	-0.1096032137932675	-9.796883765841867	-2.30498474312223	0.06439613633587504	-0.6529483261801876	1.446666326851829	0.1802575107296137	-0.4107142857142857	0.6870748299319728
3163.116455078125	0.0526630659268598	-9.141940772073411	-2.205082102890061	-0.02842846700304957	-0.03569751805952553	-0.7196360545911205	0.2060085836909871	-0.4196428571428571	0.6848072562358277
3182.647705078125	0.3171162296402762	-9.740544899670143	-2.119786229333744	-0.07279950982367796	2.843827172107666	-1.109030952565032	0.1931330472103004	-0.4241071428571428	0.671201814058957
3202.178955078125	-0.2962030553053242	-9.633401605810585	-2.01234753069207	-0.6884495069759263	-1.098196989192542	-0.3624992504634205	0.2081545064377682	-0.4107142857142857	0.6802721088435374
3221.710205078125	0.04569126569572859	-9.646921559121605	-2.528310243042246	0.3038989391448463	-0.4188013648819469	-1.068870698215766	0.1952789699570815	-0.4129464285714285	0.6916099773242631
3241.241455078125	0.010535375518994	-9.313236666886505	-2.073945715164705	0.2348690304860564	2.0628541260761	-2.174204541946004	0.1888412017167382	-0.4129464285714285	0.671201814058957
3260.772705078125	-0.3372155875070892	-9.643092490589577	-1.992726963576789	0.3210186026532321	0.7034111966264366	-0.3603259701290271	0.1909871244635193	-0.4084821428571428	0.6621315192743764
3280.303955078125	0.04164881719861336	-9.980214467969967	-2.124065393330723	0.05481567515726522	-2.49950424998781	0.7455158164346781	0.203862660944206	-0.4196428571428571	0.671201814058957
3299.835205078125	0.5310820155994941	-9.712381527226704	-2.087793396684107	0.3787397078173582	-0.6917292508827525	0.7339165470968294	0.184549356223176	-0.4107142857142857	0.6780045351473923
3319.366455078125	0.2325113517780674	-9.163941275133944	-1.82256374923531	0.2917259644921555	2.134249162195151	-0.7349324327637631	0.2167381974248927	-0.4241071428571428	0.6870748299319728
3338.897705078125	-0.3145244598121887	-9.744329502876628	-2.221023406536234	0.2708366998188818	1.374208281836387	-1.447174269685296	0.2103004291845494	-0.4107142857142857	0.6825396825396826
3358.428955078125	-0.4970899336836961	-9.570786676420742	-2.331822958161002	-0.392089770160856	-0.7926549917752505	-1.438764166348774	0.1952789699570815	-0.4174107142857142	0.6643990929705216
3377.960205078125	0.3094878598131618	-9.992993868497123	-2.377357409887606	-0.01044463233663683	-0.3800204401793821	-0.3561209184607663	0.1931330472103004	-0.4285714285714285	0.6643990929705216
3397.491455078125	-0.3032637449586809	-9.653533019116072	-2.326686728621712	-0.4033985736555198	0.2938600516736076	-1.449855492853156	0.1888412017167382	-0.4040178571428571	0.6848072562358277
3417.022705078125	-0.2167133596493601	-9.765509634080276	-1.798051790166029	-0.7273226063156129	-1.51391494743145	-1.438256223515307	0.1974248927038627	-0.40625	0.6780045351473923
3436.553955078125	-0.09518890343603863	-9.403088515006045	-1.705599452314504	0.7441293532912187	-2.867842744423508	0.7629854749417142	0.1866952789699571	-0.4308035714285714	0.6893424036281179
3456.085205078125	-0.04746117942797123	-9.474272862953196	-2.39673920006002	-0.01044463233663683	-0.3800204401793821	-0.3561209184607663	0.203862660944206	-0.4129464285714285	0.671201814058957
3475.616455078125	-0.363438090750169	-9.551921174648054	-2.431701129064742	-0.397587713641798	2.502587656630849	-0.7524020912707992	0.1888412017167382	-0.4285714285714285	0.671201814058957
3495.147705078125	-0.1638138462102263	-9.867048730224768	-1.98596231775288	0.3360970073127839	-0.7452755279720408	-0.3455375347898513	0.2210300429184549	-0.4151785714285714	0.671201814058957
3514.678955078125	0.00215144560296346	-9.484869999304516	-2.255960886826958	0.721511746301891	-0.6948126575257918	0.7408028219329504	0.203862660944206	-0.4107142857142857	0.6938775510204082
3534.210205078125	0.104431259446761	-10.05154936309952	-2.279860638553648	0.6571156099660159	-0.04186433134560408	-0.7058635049188784	0.1866952789699571	-0.4151785714285714	0.6893424036281179
3553.741455078125	-0.03936007949174885	-9.50465690425559	-2.186441030416952	0.6420372053064641	1.406822393252873	-0.7206519402580541	0.1931330472103004	-0.4129464285714285	0.6621315192743764
3573.272705078125	-0.3045546617950909	-9.522206978634577	-2.197595044980701	-0.05104607399237727	2.137332568838191	-0.7418187075998842	0.2188841201716738	-0.421875	0.673469387755102
3592.803955078125	0.01138992610084294	-9.727386626533738	-2.1594007733496	0.3398666084776718	-1.10744720912166	-0.3418404259550573	0.1824034334763948	-0.4352678571428571	0.6780045351473923
3612.335205078125	0.279970387305317	-9.62906233013568	-2.48683464889905	1.009468109629158	1.801608185818979	0.002173280334393381	0.2081545064377682	-0.4174107142857142	0.6870748299319728
3631.866455078125	0.2056888449349661	-9.587915474307938	-2.201537554721103	-0.05772110516412615	1.395140447509189	-1.094242517225857	0.2017167381974249	-0.3995535714285714	0.6689342403628118
3651.397705078125	-0.2538006157742163	-9.583320579700844	-2.170958830741647	-0.7281867774736398	-0.04737946380320975	-1.093226631558923	0.2145922746781116	-0.4151785714285714	0.671201814058957
3670.928955078125	-0.3330438453049189	-9.693639258516649	-2.409901183793827	-0.716013802820949	-2.600429990880308	-1.427164897010925	0.1781115879828326	-0.4330357142857142	0.6598639455782314
3690.460205078125	0.1067060205700752	-9.970764029902671	-2.50733675088507	0.327693633824981	1.445603317955438	-0.007902160503054765	0.2103004291845494	-0.4174107142857142	0.673469387755102
3709.991455078125	-0.1706927165908491	-9.68516175970278	-2.318483442955904	0.2490832639875812	2.080702885105863	-1.814386514650444	0.1995708154506438	-0.4107142857142857	0.6689342403628118
3729.522705078125	-0.1911838310856705	-9.715259878860863	-2.310188320004379	-0.6913549369827874	-2.202560791671163	-0.7112259512545989	0.1931330472103004	-0.4196428571428571	0.6802721088435374
3749.053955078125	0.3362416793754525	-9.791241204672543	-1.991514876320757	0.004633772322914974	-1.828707164777859	-0.3413324831215905	0.203862660944206	-0.4241071428571428	0.673469387755102
3768.585205078125	0.5317103021974965	-9.581074678779553	-2.150622056484349	1.031221545460459	1.095113582549503	0.3693855252995415	0.2081545064377682	-0.4330357142857142	0.6780045351473923
3788.116455078125	0.1611813422684288	-9.496561308372181	-1.832419941128594	-0.0539515039992382	1.03296876635957	-1.090545408391063	0.1909871244635193	-0.4084821428571428	0.6643990929705216
3807.647705078125	-0.1664320437375933	-9.543790225017172	-1.724142565016182	-0.01798383466641273	0.3443229221198566	-0.3635151361303542	0.2017167381974249	-0.4084821428571428	0.6870748299319728
3827.178955078125	-0.008161788818187035	-9.807999190192628	-2.245045607977215	0.3645254743158334	-0.7095780099125152	0.3740985198012692	0.2103004291845494	-0.4129464285714285	0.6893424036281179
3846.710205078125	0.07494611036518002	-9.909840370194564	-2.392570220191472	0.3360970073127839	-0.7452755279720408	-0.3455375347898513	0.1952789699570815	-0.4241071428571428	0.6689342403628118
3866.241455078125	-0.1917616123301358	-9.594041979836298	-2.252410195557855	0.3068043691517073	0.6855624375966739	-0.7201439974245873	0.2060085836909871	-0.4084821428571428	0.6893424036281179
3885.772705078125	-0.195949516245438	-9.684909191706236	-1.833619804027627	0.01507840465955181	-1.448686724598477	0.01478843533917581	0.2081545064377682	-0.4241071428571428	0.673469387755102
3905.303955078125	0.5603126176992478	-9.934896055469924	-1.949629116863549	0.03683184049085249	-2.155181327867953	0.3820006803043239	0.2060085836909871	-0.4107142857142857	0.6757369614512472
3924.835205078125	0.05206508254097968	-9.82880347910824	-2.14528376430205	-0.02088926467327366	-0.7600408803587642	-0.7122418369215325	0.2124463519313305	-0.421875	0.6802721088435374
3944.366455078125	-0.3150032505637211	-9.45139542203982	-2.173144331382995	-0.03973727049771342	1.050817525389332	-0.7307273810955023	0.203862660944206	-0.4017857142857142	0.6780045351473923
3963.897705078125	0.06351771773792877	-9.88952406606627	-2.270139120731653	-0.3674309043226944	-0.3947857925661056	-0.7228252205924476	0.2081545064377682	-0.421875	0.6757369614512472
3983.428955078125	-0.03775804967754975	-9.817804237685046	-2.34664401183686	0.3720646766456093	-1.433921372211754	0.3814927374708571	0.1995708154506438	-0.4241071428571428	0.6643990929705216
4002.960205078125	-0.06212393489574295	-9.282207043479328	-1.950871816548154	0.329421976141035	-1.487467649301042	-0.6979613444158236	0.2017167381974249	-0.4174107142857142	0.6825396825396826
4022.491455078125	0.1326396331909222	-9.748801143806658	-2.039473523173854	0.645806806471352	1.044650712103254	-0.7169548314232602	0.1995708154506438	-0.4241071428571428	0.6643990929705216
4042.022705078125	0.3151546017088925	-9.669818212683758	-1.923623436195369	0.6704656723095137	1.442519911312399	-0.001015885666933716	0.2124463519313305	-0.3973214285714285	0.673469387755102
4061.553955078125	0.2680935071386557	-9.871367803758258	-2.319554795498223	0.02552303699618864	-1.068666284419095	0.3709093537999421	0.1931330472103004	-0.4285714285714285	0.6893424036281179
4081.085205078125	-0.04868340898357078	-9.62577579217279	-2.274516244500065	0.3172490014883441	1.065582877776056	-0.364023078963821	0.1909871244635193	-0.4196428571428571	0.6689342403628118
4100.616455078125	-0.05891785505320329	-9.575168397207046	-2.27147980080212	0.2850509333204066	1.39205704086615	-1.087356242389735	0.2017167381974249	-0.4129464285714285	0.6780045351473923
4120.147705078125	-0.2729442474366658	-10.00737156762664	-2.297411991027296	0.3143435714814832	-0.03878092470256481	-0.7127497797549994	0.2081545064377682	-0.4151785714285714	0.6870748299319728
4139.678955078125	-0.2291559410044978	-9.573466016347533	-2.594609981182872	0.3540808419791966	-1.089598450091897	0.01797760134050291	0.2060085836909871	-0.4151785714285714	0.6802721088435374
4159.210205078125	-0.2918333321172881	-9.340516010113173	-2.44931984949568	-0.323924032660093	-1.807774999105058	0.01159926933784872	0.1931330472103004	-0.4084821428571428	0.6621315192743764
4178.741455078125	-0.00937189708893767	-9.474653755776588	-2.124034780902151	-0.005810860013721858	-2.208727604957241	-0.6974534015823567	0.1802575107296137	-0.4084821428571428	0.6870748299319728
4198.272705078125	-0.009598161072784203	-9.939297957783213	-2.101408382517498	-0.4109377759852957	1.018203413972846	-1.457249710522744	0.2060085836909871	-0.4174107142857142	0.671201814058957
4217.803955078125	-0.2122244438269763	-9.502928260612238	-2.246943372404411	-0.03510349817479845	-0.777889639388527	-1.072059864217093	0.2103004291845494	-0.4375	0.673469387755102
4237.335205078125	0.09132810929621712	-9.596872877052562	-1.989953786764568	0.6780048746392896	0.7181765490131601	0.006378332002654191	0.1888412017167382	-0.4129464285714285	0.6802721088435374
4256.866455078125	-0.1222901998306651	-9.867463966688563	-2.056694302647779	0.2946313944990164	3.238612964673772	-0.3862057319725847	0.2124463519313305	-0.421875	0.6848072562358277
4276.397705078125	-0.1707290804453959	-9.624555335458172	-2.314847057501228	-0.002041258848833907	-2.570899286106861	-0.6937562927475628	0.2060085836909871	-0.4129464285714285	0.6780045351473923
4295.928955078125	0.09413216652460088	-9.556496877220802	-2.270359509602945	-0.7093387716492	-1.858237869551306	-1.074741087384953	0.2060085836909871	-0.4263392857142857	0.6575963718820862
4315.460205078125	0.3568035013652259	-9.710638742084361	-2.006880748767486	-0.323924032660093	-1.807774999105058	0.01159926933784872	0.1888412017167382	-0.3995535714285714	0.6802721088435374
4334.991455078125	0.2057635928582011	-9.880845514716462	-2.209012347044604	0.5985303336438628	2.819811599791825	-1.455076430188351	0.2253218884120172	-0.40625	0.6893424036281179
4354.522705078125	-0.265305776538844	-9.60340754829522	-2.040850917544178	0.3360970073127839	-0.7452755279720408	-0.3455375347898513	0.2210300429184549	-0.4174107142857142	0.673469387755102
4374.053955078125	-0.1310478693628707	-9.584548107164959	-2.201335512692524	-0.6240533706400514	-1.75114531537273	1.084167076388408	0.2081545064377682	-0.4441964285714285	0.6621315192743764
4393.585205078125	-0.01622854511400413	-9.666504381215526	-2.458778141660811	-0.04931773167632323	-0.7957383984182897	-1.431877891512653	0.2124463519313305	-0.4174107142857142	0.6961451247165533
4413.116455078125	-0.4658047738020504	-9.68221063913067	-2.399114456529658	0.2917259644921555	2.134249162195151	-0.7349324327637631	0.2274678111587983	-0.4196428571428571	0.6757369614512472
4432.647705078125	-0.1348054676660362	-9.382490329161724	-1.825575682375966	-0.326829462666954	-2.912138801583678	-0.3371274314533296	0.2210300429184549	-0.4084821428571428	0.6780045351473923
4452.178955078125	0.3087100773686893	-9.538440636127223	-2.299579165440361	0.3607558731509455	-0.3474063287628959	0.3704014109664752	0.1952789699570815	-0.4241071428571428	0.6689342403628118
4471.710205078125	-0.1755473324017021	-9.846729375160832	-2.853430025135913	-1.078498018287949	0.6800473051390682	-1.107507124064632	0.1974248927038627	-0.4129464285714285	0.6643990929705216
4491.241455078125	-0.2126608100815374	-9.785752179777974	-2.203306746948295	0.3503112408143086	-0.727426768942278	0.01428049250570896	0.1866952789699571	-0.4017857142857142	0.6666666666666666
4510.772705078125	0.01181013064227221	-9.585976687165012	-2.201421227492527	0.03392641048399156	-3.259545130346574	0.03327397951314558	0.203862660944206	-0.3950892857142857	0.6780045351473923
4530.303955078125	0.536463866072415	-10.09627372956982	-2.625978443976209	-0.3712005054875823	-0.03261411141648625	-0.7265223294272415	0.2081545064377682	-0.4308035714285714	0.6893424036281179
4549.835205078125	-0.3146497130889608	-9.703924209939821	-2.208498078859016	0.2879563633272675	2.496420843344771	-0.7386295415985571	0.2103004291845494	-0.4107142857142857	0.673469387755102
4569.366455078125	-0.6318165305404942	-9.650247491260254	-2.124469394930161	-0.01335006234349776	-1.484384242658003	-0.7048476192519446	0.2081545064377682	-0.4285714285714285	0.655328798185941
4588.897705078125	-0.15231070565974	-9.675244569711081	-2.1158682095362	0.02638720815421566	-2.535201768047335	0.02587976184355767	0.2167381974248927	-0.4241071428571428	0.6848072562358277
4608.428955078125	0.17384610595027	-10.06234452166557	-2.078488146047409	-0.3845505678310801	-1.516998354074489	-1.431369948679186	0.2081545064377682	-0.4174107142857142	0.6666666666666666
4627.960205078125	0.01231720439178541	-9.757698929619677	-2.252128602443848	-0.05858527632215318	2.861675931137429	-0.749212925269472	0.1909871244635193	-0.4107142857142857	0.673469387755102
4647.491455078125	-0.5469530652681752	-9.479378954195806	-2.447550616039627	0.3390024373196448	0.35908827450658	0.003189166001327095	0.1802575107296137	-0.4084821428571428	0.673469387755102
4667.022705078125	0.08168760618418174	-9.526069401314368	-2.046311638826337	0.7583435867927434	-2.849993985393745	1.122803502237274	0.1931330472103004	-0.3950892857142857	0.6621315192743764
4686.553955078125	0.1973534001583313	-9.840357372385425	-2.388401240322924	0.2888205344852945	1.029885359716531	-1.083659133554941	0.1974248927038627	-0.4285714285714285	0.673469387755102
4706.085205078125	-0.02871350973725302	-9.737086602276365	-2.230689842601229	0.5909911313140869	3.544154962091064	-1.462470647857938	0.1995708154506438	-0.4174107142857142	0.6848072562358277
4725.616455078125	-0.07301091013307572	-9.322502214130994	-1.882582456080183	0.7006224816286173	-1.454853537884556	0.02856098501141791	0.203862660944206	-0.4040178571428571	0.6780045351473923
4745.147705078125	0.282663373984779	-9.568483199396415	-1.735725153579947	-0.3305990638318419	-2.549967120434059	-0.3408245402881236	0.2081545064377682	-0.4196428571428571	0.6916099773242631
4764.678955078125	0.001977707186795589	-9.868706645758737	-2.238587045210171	0.2879563633272675	2.496420843344771	-0.7386295415985571	0.1974248927038627	-0.4129464285714285	0.6893424036281179
4784.210205078125	-0.6068890257909678	-9.943426059237041	-2.576403543352202	-1.806684795761588	0.6326678413358585	-2.200733755623554	0.203862660944206	-0.4241071428571428	0.6643990929705216
4803.741455078125	-0.1698018021544534	-9.654867638544113	-2.407574886595476	0.3720646766456093	-1.433921372211754	0.3814927374708571	0.1909871244635193	-0.4129464285714285	0.6757369614512472
4823.272705078125	0.5718298997487244	-9.935011228290419	-2.08094915854591	-0.6809103046461504	-1.822540351491781	-0.3551050327938325	0.2017167381974249	-0.4040178571428571	0.6666666666666666
4842.803955078125	-0.1245710215964037	-9.433097724127471	-1.828612126073911	-0.4004931436486589	1.398223854152228	-1.101128792061977	0.2081545064377682	-0.421875	0.6598639455782314
4862.335205078125	-0.3230538451464062	-9.673537138316213	-2.388493036379781	-0.7490760421469135	-0.8074203441619739	-1.805468468480455	0.1974248927038627	-0.4174107142857142	0.6621315192743764
4881.866455078125	-0.2705947383901166	-9.714465769787816	-2.532362895682219	0	0	0	0.2145922746781116	-0.4263392857142857	0.6780045351473923
4901.397705078125	-0.117762899939593	-9.837206209384444	-2.509424291754986	-0.7177421451370031	0.3326409763761723	-0.7371057130981565	0.203862660944206	-0.4129464285714285	0.6757369614512472
4920.928955078125	0.2024181182398989	-9.860610039768259	-1.874464885214379	-1.070094644800146	-1.510831540788411	-1.445142498351428	0.1952789699570815	-0.421875	0.6825396825396826
4940.460205078125	-0.04840865986032857	-9.746990660876145	-2.301991156824286	1.019912741965795	2.181628625998361	0.3582941987951597	0.2124463519313305	-0.4084821428571428	0.6825396825396826
4959.991455078125	0.03165477661181779	-9.656882204331776	-2.145069497916472	1.019912741965795	2.181628625998361	0.3582941987951597	0.2145922746781116	-0.4107142857142857	0.6643990929705216
4979.522705078125	-0.5861777079547243	-9.4385826673649	-2.606719000445934	0.6780048746392896	0.7181765490131601	0.006378332002654191	0.1995708154506438	-0.4084821428571428	0.6666666666666666
4999.053955078125	-0.04964099048663557	-9.544958135549681	-2.178758094193587	-0.3561221008280305	-1.481300836014964	-0.7117338940880656	0.2017167381974249	-0.4352678571428571	0.6848072562358277
5018.585205078125	-0.1493591727990277	-9.543960953726556	-2.411021495607432	-0.6780048746392896	-0.7181765490131601	-0.006378332002654191	0.2017167381974249	-0.4174107142857142	0.6916099773242631
5038.116455078125	0.278596641689106	-10.03308899671992	-2.349460087277943	-0.02088926467327366	-0.7600408803587642	-0.7122418369215325	0.2103004291845494	-0.4285714285714285	0.6802721088435374
5057.647705078125	-0.06947957581375666	-9.989204194140854	-2.235715888012088	-0.7537098144698285	1.021286820615886	-1.464135985358865	0.1952789699570815	-0.4375	0.6643990929705216
5077.178955078125	-0.1402479657920619	-9.574355096099659	-2.301734033038707	0.3465416396494207	-0.3652550877926586	0.010583383670915	0.2060085836909871	-0.4107142857142857	0.6689342403628118
5096.710205078125	-0.0335781853899534	-9.373401591883477	-1.744222277331191	0.2783759021486577	0.6498649195371483	-1.439780052015708	0.2060085836909871	-0.4241071428571428	0.6757369614512472
5116.241455078125	-0.109376949809421	-9.837290068885746	-2.327611141506882	0.3352328361547569	0.7212599556561994	-0.000507942833466858	0.184549356223176	-0.4308035714285714	0.6848072562358277
5135.772705078125	-0.1507874641970589	-9.352027478893385	-2.26819235580431	-1.373129412786965	-2.558565659534703	-0.721301392092047	0.2081545064377682	-0.4241071428571428	0.6870748299319728
5155.303955078125	-0.181339286345345	-9.452732061682003	-2.274234630771628	-1.055880411298621	-1.492982781758648	-1.085324471055868	0.2060085836909871	-0.4330357142857142	0.6643990929705216
5174.835205078125	0.2400810941662187	-9.658966467507319	-2.579537988050439	-0.7319563786385278	0.3147922173464096	-1.096923740393717	0.1909871244635193	-0.4151785714285714	0.6802721088435374
5194.366455078125	-0.02878219701806357	-9.959308137625781	-2.223821114520173	-0.3114381414746222	1.143144727181185	1.061476480546178	0.1952789699570815	-0.4330357142857142	0.6780045351473923
5213.897705078125	0.4481236122625971	-10.19640042804182	-1.955218369116853	-0.3523524996631426	-1.843472517164583	-0.7080367852532717	0.1974248927038627	-0.4084821428571428	0.6870748299319728
5233.428955078125	0.2009655842721698	-9.62827228210535	-1.729211488441473	0.7035279116354782	-0.3504897354059351	0.3772876858025963	0.1995708154506438	-0.4084821428571428	0.6961451247165533
5252.960205078125	-0.4538248627141732	-9.611623367534476	-2.576697402052069	0.2310994293211684	2.425025807225719	-2.177901650780798	0.2060085836909871	-0.421875	0.6802721088435374
5272.491455078125	-0.3337751628241371	-9.653227904937417	-2.336769431872003	0.9952538761276337	1.783759426789216	-0.3576447469611668	0.1952789699570815	-0.421875	0.6916099773242631
5292.022705078125	-0.2100910976935662	-9.523151614275593	-2.460277985745424	0.3616200443089725	-1.813941812391136	0.02537181901009081	0.2145922746781116	-0.4017857142857142	0.6757369614512472
5311.553955078125	0.4379396715465018	-9.38821778055385	-1.957232460772625	-0.04264270050457435	-0.05354627708928829	-1.079454081886681	0.1931330472103004	-0.4352678571428571	0.6916099773242631
5331.085205078125	-0.1500218030374354	-9.786378569848415	-2.344758471766663	-0.3674309043226944	-0.3947857925661056	-0.7228252205924476	0.1995708154506438	-0.4263392857142857	0.6643990929705216
5350.616455078125	-0.5347872944792812	-9.550207682610763	-2.643719531663717	0.3503112408143086	-0.727426768942278	0.01428049250570896	0.2017167381974249	-0.4129464285714285	0.6802721088435374
5370.147705078125	0.08293205809533764	-9.748304068055702	-2.170756829941928	0.645806806471352	1.044650712103254	-0.7169548314232602	0.2124463519313305	-0.4241071428571428	0.7029478458049887
5389.678955078125	0.0418892226814503	-9.707489599297524	-2.148105941614417	-0.02465886583816162	-0.3978691992091449	-0.7159389457563266	0.2081545064377682	-0.4330357142857142	0.6780045351473923
5409.210205078125	0.07130568448222069	-10.07142012755189	-2.028527631895538	0.6211479406331905	0.646781512894109	-1.432893777179587	0.1974248927038627	-0.4241071428571428	0.673469387755102
5428.741455078125	-0.04842684178760195	-9.716687448753841	-2.300172964096948	0.01884800582443976	-1.810858405748097	0.01848554417396977	0.1974248927038627	-0.4129464285714285	0.6916099773242631
5448.272705078125	0.3205404926100965	-9.387043788764487	-2.462212526315768	-0.7244171763087518	-0.4095511449528291	-1.089529522724129	0.1995708154506438	-0.4151785714285714	0.6848072562358277
5467.803955078125	-0.4770109428737381	-9.358866254207628	-2.298905712626195	-0.4147073771501837	1.380375095122466	-1.460946819357538	0.2103004291845494	-0.4308035714285714	0.671201814058957
5487.335205078125	-0.2537642519196694	-9.64392700394545	-2.174595216196323	0.3427720384845327	-0.003083406643039275	0.006886274836121049	0.1974248927038627	-0.4040178571428571	0.655328798185941
5506.866455078125	0.230406247413778	-9.699273759443836	-2.632461476071681	-0.3305990638318419	-2.549967120434059	-0.3408245402881236	0.184549356223176	-0.3950892857142857	0.6598639455782314
5526.397705078125	0.06384095200056668	-9.586496995378594	-2.302462546995443	0.3210186026532321	0.7034111966264366	-0.3603259701290271	0.1866952789699571	-0.4084821428571428	0.6870748299319728
5545.928955078125	-0.4153921439710869	-9.510997593711805	-2.338336623299476	0.3390024373196448	0.35908827450658	0.003189166001327095	0.2017167381974249	-0.4285714285714285	0.6643990929705216
5565.460205078125	-0.07343313488864647	-9.292194961580407	-1.840359980523107	0.3465416396494207	-0.3652550877926586	0.010583383670915	0.1866952789699571	-0.4285714285714285	0.6689342403628118
5584.991455078125	0.1964483442229452	-9.678732160209908	-2.297895646784312	0.3427720384845327	-0.003083406643039275	0.006886274836121049	0.1974248927038627	-0.4151785714285714	0.6666666666666666
5604.522705078125	0.1852482357936819	-9.870539351044807	-2.198292967123295	0.3210186026532321	0.7034111966264366	-0.3603259701290271	0.2167381974248927	-0.4263392857142857	0.673469387755102
5624.053955078125	-0.7089748990771825	-9.699980958079937	-2.571897847383787	-0.3456774684913937	-1.101280395835581	-0.3556129756272994	0.2188841201716738	-0.40625	0.6825396825396826
5643.585205078125	0.06427529804098636	-9.637006389344048	-2.34589715103741	-1.817129428098225	0.2526474011564764	-2.556854674084321	0.2167381974248927	-0.4263392857142857	0.6689342403628118
5663.116455078125	0.0293295101349664	-9.485141779949837	-1.912542850231334	-0.6959887093057022	-0.3738536268933035	-0.3698934681330084	0.2124463519313305	-0.4107142857142857	0.671201814058957
5682.647705078125	0.2764592551274128	-10.17448176426845	-2.135721431108633	0.3218827738112591	-0.7631242870018035	-0.7053555620854115	0.2103004291845494	-0.4241071428571428	0.6598639455782314
5702.178955078125	0.2041171183328893	-9.830323999466158	-2.044364894513425	0.6846799058110384	1.460368670342161	0.3588021416286265	0.2124463519313305	-0.4241071428571428	0.671201814058957
5721.710205078125	-0.2689927085759175	-9.522562598166767	-2.692565877102127	0.9943897049696067	3.250294910417456	-0.01261515500478243	0.2124463519313305	-0.40625	0.6757369614512472
5741.241455078125	-0.1313610025548012	-9.736060127348191	-2.170022193499478	1.00569850846427	2.163779866968598	-0.001523828500400573	0.1931330472103004	-0.4486607142857142	0.673469387755102
5760.772705078125	-0.21250121316436	-9.715046705040075	-2.219266438666041	0.7072975128003661	-0.7126614165555545	0.3809847946373902	0.1995708154506438	-0.4151785714285714	0.671201814058957
5780.303955078125	0.1970220850391274	-9.961566180446352	-2.355269728402539	-0.009580461178609809	-1.846555923807622	-0.7011505104171507	0.203862660944206	-0.4285714285714285	0.673469387755102
5799.835205078125	-0.1725230306030362	-9.664941436360637	-2.135452041737194	1.008603938471131	3.268143669447219	0.3472028722907778	0.2124463519313305	-0.40625	0.6689342403628118
5819.366455078125	-0.3666300290937182	-9.450879154254519	-2.112507294709817	0.2925901356501825	0.6677136785669111	-1.079962024720148	0.2145922746781116	-0.4129464285714285	0.6621315192743764
5838.897705078125	-0.1005162493559995	-9.78687362538523	-2.19327302358372	1.035855317783374	-0.7335935822283565	0.02805304217795105	0.2081545064377682	-0.40625	0.6666666666666666
5858.428955078125	0.0400568884551217	-9.515552084036068	-1.964872518981558	-2.061578919762891	-3.656762648727246	-1.083800642555467	0.2103004291845494	-0.40625	0.6961451247165533
5877.960205078125	-0.1373489584990283	-9.523879035667537	-2.591634762342073	0.3030347679868193	1.047734118746293	-0.7238411062593813	0.1995708154506438	-0.4084821428571428	0.6802721088435374
5897.491455078125	-0.06109160546944317	-9.655954740510964	-2.054104759178133	0.6997583104705902	0.01168194574368421	0.3735905769678023	0.2081545064377682	-0.4129464285714285	0.6825396825396826
5917.022705078125	0.07227942769841736	-9.505773299327492	-2.125901953515205	0.02552303699618864	-1.068666284419095	0.3709093537999421	0.2145922746781116	-0.4129464285714285	0.671201814058957
5936.553955078125	0.1934968113622328	-9.810015776194433	-2.00274236071308	-0.3787397078173582	0.6917292508827525	-0.7339165470968294	0.1888412017167382	-0.4107142857142857	0.6802721088435374
5956.085205078125	-0.1085951269366656	-10.13022718004377	-2.405793428782424	-0.03683184049085249	2.155181327867953	-0.3820006803043239	0.1931330472103004	-0.4263392857142857	0.6757369614512472
5975.616455078125	-0.3194578227456996	-9.602866027833151	-1.727687113185141	-0.6809103046461504	-1.822540351491781	-0.3551050327938325	0.2124463519313305	-0.4107142857142857	0.6757369614512472
5995.147705078125	0.2680854262820897	-9.689549541131511	-2.318746709841628	-0.3088456280005412	-3.256461723703535	0.02638770467702453	0.1909871244635193	-0.4129464285714285	0.6780045351473923
6014.678955078125	0.1945614642147964	-9.900935513632049	-2.109207645969438	0.3134794003234562	1.427754558925675	-0.367720187798615	0.2060085836909871	-0.4308035714285714	0.671201814058957
6034.210205078125	-0.1869333005319821	-9.392070060934076	-2.735241375373217	0.9877146737978579	2.508102789088455	-0.3650389646307547	0.1931330472103004	-0.40625	0.6666666666666666
6053.741455078125	0.05126709795509237	-9.67728034774723	-2.065485305713319	0.9990234772925217	1.421587745639597	-0.3539476381263729	0.2167381974248927	-0.421875	0.6689342403628118
6073.272705078125	-0.05729158266930635	-9.928720013466238	-2.434107039191813	0.2792400733066847	-0.8166705640910918	-1.784809643972092	0.1931330472103004	-0.4040178571428571	0.6598639455782314
6092.803955078125	0.154759040283782	-9.738921327776577	-2.210597905929221	-0.7139725439721151	-0.02953070477344698	-0.7334086042633625	0.1974248927038627	-0.4151785714285714	0.6757369614512472
6112.335205078125	-0.009111289464685863	-9.403949291145759	-2.150095543327331	0.3210186026532321	0.7034111966264366	-0.3603259701290271	0.2017167381974249	-0.4241071428571428	0.6780045351473923
6131.866455078125	-0.07388566285633953	-9.211382355492649	-1.795107183753802	-0.02175343583130069	0.7064946032694759	-0.3672122449651481	0.2167381974248927	-0.4285714285714285	0.6938775510204082
6151.397705078125	-0.1924727277079391	-9.755651030298679	-2.181298657777517	-2.000952384591904	-3.947539293757814	0.3591685754615674	0.2167381974248927	-0.4129464285714285	0.6666666666666666
6170.928955078125	-0.05281676711705292	-9.807552640409639	-1.861180431151851	-2.828638796576218	-4.119860070769364	-3.252784247166277	0.2060085836909871	-0.4330357142857142	0.6621315192743764
6190.460205078125	-0.4516026271585376	-9.611645589890033	-2.798920957615624	-0.01798383466641273	0.3443229221198566	-0.3635151361303542	0.1909871244635193	-0.4174107142857142	0.6643990929705216
6209.991455078125	-0.1497551347707591	-9.725775175925021	-2.371425298434289	0.2859151044784336	-0.07447844276209033	-1.43238583434612	0.2060085836909871	-0.40625	0.6780045351473923
6229.522705078125	0.05574389249262728	-9.899547337914827	-2.513164759466809	-0.0313338970099105	-1.140061320538146	-1.068362755382299	0.2124463519313305	-0.4263392857142857	0.6780045351473923
6249.053955078125	0.3608035253653699	-9.811688843334464	-2.406883148781886	-0.3787397078173582	0.6917292508827525	-0.7339165470968294	0.184549356223176	-0.4308035714285714	0.6598639455782314
6268.585205078125	-0.08880502674894013	-9.605172555793118	-2.343987121024355	1.627710620255488	1.344025896234467	-1.779447197636372	0.1909871244635193	-0.4151785714285714	0.6870748299319728
6288.116455078125	-0.4025799046569171	-9.480822685801918	-2.599152391451146	-0.6951245381476753	-1.840389110521544	-0.7149230600893928	0.2145922746781116	-0.4263392857142857	0.6802721088435374
6307.647705078125	-0.5503914697369858	-9.135910226716774	-2.103710169158562	-0.3314632349898689	-1.083431636805819	0.004205051668260811	0.1995708154506438	-0.4241071428571428	0.6938775510204082
6327.178955078125	0.03911748887933031	-9.465037639535261	-1.870932561402419	-0.4033985736555198	0.2938600516736076	-1.449855492853156	0.2060085836909871	-0.4084821428571428	0.671201814058957
6346.710205078125	-0.09018685322171713	-9.827380959750613	-2.205804473746653	-0.01421423350152478	-0.01784875902976276	-0.3598180272955602	0.203862660944206	-0.4174107142857142	0.6870748299319728
6366.241455078125	-0.1017182767701842	-9.635346453595936	-2.073070282165251	0.3172490014883441	1.065582877776056	-0.364023078963821	0.2124463519313305	-0.4084821428571428	0.655328798185941
6385.772705078125	-0.02755996746246402	-9.807805208406185	-2.346044070080129	0.3314632349898689	1.083431636805819	-0.004205051668260811	0.1995708154506438	-0.4017857142857142	0.673469387755102
6405.303955078125	-0.03539035870372715	-10.06025215701903	-2.583413109219121	0.2992651668219314	1.409905799895913	-0.7275382150941753	0.1995708154506438	-0.4084821428571428	0.671201814058957
6424.835205078125	0.02326074562507982	-9.474980082203727	-2.326074562507981	2.749715510206038	-0.7490106154435529	0.0624844163585563	0.2103004291845494	-0.4174107142857142	0.6825396825396826
6444.366455078125	0.07246528739943416	-9.647189299338642	-2.144487923616885	0.3390024373196448	0.35908827450658	0.003189166001327095	0.203862660944206	-0.4285714285714285	0.6643990929705216
6463.897705078125	0.04092356032181958	-9.444853680047666	-2.051539705651345	-1.417500455607593	0.3209590306324882	-1.110696290065959	0.2103004291845494	-0.4196428571428571	0.6848072562358277
6483.428955078125	0.02474358280493118	-9.757823193403809	-2.474358280493118	-3.229996111382904	-1.255100732988895	-4.00888344727187	0.1931330472103004	-0.4285714285714285	0.6893424036281179
6502.960205078125	-0.2001354411754588	-10.11921076680037	-2.435435474290851	-0.01798383466641273	0.3443229221198566	-0.3635151361303542	0.1995708154506438	-0.4017857142857142	0.6643990929705216
6522.491455078125	-0.1559592123992653	-9.655006064441665	-1.751017535583672	-1.037896576632208	-1.837305703878505	-0.7218093349255138	0.2124463519313305	-0.4174107142857142	0.671201814058957
6542.022705078125	0.01102628755537531	-9.626372889138182	-2.123036918802836	0.397587713641798	-2.502587656630849	0.7524020912707992	0.1909871244635193	-0.4017857142857142	0.673469387755102
6561.553955078125	0.3494579615179196	-9.761070337190938	-2.292734927302164	0.2992651668219314	1.409905799895913	-0.7275382150941753	0.2060085836909871	-0.4196428571428571	0.6666666666666666
6581.085205078125	-0.2225821229592395	-9.583632764628994	-2.231583622443396	2.073751894415582	1.103712121650148	0.7498623771034649	0.2017167381974249	-0.4196428571428571	0.6575963718820862
6600.616455078125	-0.3306519117613984	-9.471440955629863	-2.649094538145873	-0.3569862719860575	-0.01476535238672349	-0.3667043021316813	0.2060085836909871	-0.4196428571428571	0.6621315192743764
6620.147705078125	-0.02026695318283639	-9.838181168852012	-2.054937334777585	-1.373993583944992	-1.092030175906463	-0.3762718001356626	0.1974248927038627	-0.4241071428571428	0.673469387755102
6639.678955078125	-0.4255760846871822	-9.712915956324846	-2.340350714955249	-3.571903978709409	-2.718552809974096	-4.360799314064375	0.2124463519313305	-0.4040178571428571	0.6621315192743764
6659.210205078125	-0.2623744458195465	-9.775154033319584	-2.333983989473923	0.396723542483771	-1.036052173002609	1.097431683227184	0.2081545064377682	-0.4419642857142857	0.6666666666666666
6678.741455078125	-0.2226225272420692	-9.684642461596267	-2.227543194160423	0.6846799058110384	1.460368670342161	0.3588021416286265	0.2017167381974249	-0.4129464285714285	0.6643990929705216
6698.272705078125	0.205319145747074	-9.476800666204946	-2.164567635931893	0.3871430813051611	-2.882608096810231	0.3962811728100329	0.2017167381974249	-0.4330357142857142	0.6802721088435374
6717.803955078125	0.2388285613984968	-10.26501454824025	-2.454284711278254	0.3398666084776718	-1.10744720912166	-0.3418404259550573	0.1952789699570815	-0.4107142857142857	0.671201814058957
6737.335205078125	-0.1116335290054618	-9.443328109154393	-2.101953221902799	0.6884495069759263	1.098196989192542	0.3624992504634205	0.2103004291845494	-0.4241071428571428	0.6621315192743764
6756.866455078125	-0.1915353483462892	-9.634448282880175	-2.275036593942508	0.3532166708211696	0.3769370335363428	0.3630071932968873	0.1974248927038627	-0.4129464285714285	0.6802721088435374
6776.397705078125	-0.01203251911327588	-9.585738260667455	-1.85797257846833	-1.124046148799384	-0.4778627744288408	-2.535687906742491	0.1952789699570815	-0.4196428571428571	0.6621315192743764
6795.928955078125	-0.04299242451814224	-9.343004419189164	-1.823206527777613	0.2197906258265045	3.511540850674578	-2.18899297728518	0.1931330472103004	-0.4084821428571428	0.6598639455782314
6815.460205078125	0.1258193490204025	-10.00125819349021	-2.37785326938719	1.101115625277276	-2.853077392036784	1.129689777073395	0.2060085836909871	-0.4107142857142857	0.6802721088435374
6834.991455078125	-0.06920482669051446	-9.605368557793701	-2.263190800336309	1.02454651428871	0.3529214612205015	0.01696171567356919	0.1952789699570815	-0.4174107142857142	0.6621315192743764
6854.522705078125	-0.2204447363975464	-9.44223999708047	-2.445322278612707	0.652481837643101	1.786842833432255	-0.3645310217972879	0.2103004291845494	-0.3973214285714285	0.6666666666666666
6874.053955078125	0.1195122404706805	-9.25372037492996	-1.74714241441499	-0.01625549235035869	-2.588748045136624	-1.053574320043123	0.2060085836909871	-0.4308035714285714	0.6598639455782314
6893.585205078125	0.09413620695288386	-9.899931261059431	-2.270763552431243	1.042530348955123	0.008598539100644939	0.3804768518039234	0.2060085836909871	-0.421875	0.6643990929705216
6913.116455078125	-0.2602774635406832	-9.734770962738333	-2.54368221736026	0.3210186026532321	0.7034111966264366	-0.3603259701290271	0.1995708154506438	-0.4196428571428571	0.6666666666666666
6932.647705078125	0.2039070160621747	-9.648503716625269	-2.023354667441961	-1.139124553458936	0.9708239501696364	-2.550476342081667	0.2103004291845494	-0.4375	0.6757369614512472
6952.178955078125	-0.4777665029626542	-9.783101122849164	-2.223349703734586	-1.199751088629923	1.261600595200205	-3.993445560098702	0.2060085836909871	-0.4174107142857142	0.6757369614512472
6971.710205078125	-0.05929967552594431	-9.948901952739693	-2.233297753528018	0.3854147389891071	0.05046287044624902	1.086340356722802	0.2188841201716738	-0.421875	0.6780045351473923
6991.241455078125	0.07137235154888975	-9.677481400283167	-2.035194338562445	0.04727647282748933	-1.775160887688571	0.7381215987650902	0.1995708154506438	-0.4129464285714285	0.6689342403628118
7010.772705078125	0.1929634748288803	-9.426172058990714	-1.949408707377827	1.020776913123822	0.7150931423701209	0.01326460683877524	0.203862660944206	-0.4196428571428571	0.6689342403628118
7030.303955078125	0.2796087689739909	-10.20481628970994	-2.450672815766435	-0.06816573750076299	1.015120007329807	-1.450363435686623	0.1974248927038627	-0.40625	0.6666666666666666
7049.835205078125	-0.1723129283323216	-9.846761719201526	-2.156462268808657	-0.7110671139652541	1.074833097705174	-0.3846819034721842	0.2017167381974249	-0.4263392857142857	0.6757369614512472
7069.366455078125	-0.4145577955306528	-9.723127149317422	-2.421771467342884	-0.3703363343295553	-1.499149595044726	-1.071551921383626	0.2145922746781116	-0.4107142857142857	0.6780045351473923
7088.897705078125	0.1486074882229545	-9.587344660740817	-1.595442699846469	0.2281939993143075	1.320662004747099	-2.526628351571977	0.2017167381974249	-0.4263392857142857	0.671201814058957
7108.428955078125	0.1735612557563204	-9.58759419841615	-2.050003126652444	0.2917259644921555	2.134249162195151	-0.7349324327637631	0.203862660944206	-0.4084821428571428	0.653061224489796
7127.960205078125	-0.3663815427543153	-9.865023053259327	-2.137355928650105	0.9923484461207727	0.6793956243105954	-0.7063714477523452	0.184549356223176	-0.4196428571428571	0.6666666666666666
7147.491455078125	-0.1595814975838113	-9.513555700175678	-2.409197180394379	-0.002905430006860929	-1.104363802478621	-0.3487267007911783	0.184549356223176	-0.4107142857142857	0.6643990929705216
7167.022705078125	0.0927604411225313	-9.627190230673854	-2.133186969395987	-0.02465886583816162	-0.3978691992091449	-0.7159389457563266	0.1952789699570815	-0.4397321428571428	0.6802721088435374
7186.553955078125	0.1546681306474151	-10.09245577221557	-2.20150694229253	0.2708366998188818	1.374208281836387	-1.447174269685296	0.1888412017167382	-0.4308035714285714	0.6938775510204082
7206.085205078125	-0.3032698056011053	-9.643431948408637	-2.326080664379266	0.2925901356501825	0.6677136785669111	-1.079962024720148	0.2017167381974249	-0.4263392857142857	0.6689342403628118
7225.616455078125	-0.1716603991646213	-9.755859153584112	-2.221715185578683	-0.002905430006860929	-1.104363802478621	-0.3487267007911783	0.1995708154506438	-0.421875	0.6780045351473923
7245.147705078125	0.4175455273304718	-9.579933031030883	-1.958634365700237	-0.04554813051143528	-1.157910079567909	-1.428180782677859	0.203862660944206	-0.4285714285714285	0.6802721088435374
7264.678955078125	0.1141061061992016	-10.01124207116301	-2.226937150532406	0.251988693994442	3.185066687584484	-1.465659813859265	0.203862660944206	-0.4129464285714285	0.6666666666666666
7284.210205078125	-0.6190911604344085	-10.31704141162798	-2.376598242273437	-0.02175343583130069	0.7064946032694759	-0.3672122449651481	0.1909871244635193	-0.4419642857142857	0.6780045351473923
7303.741455078125	-0.01858209458883633	-9.615975795215729	-2.22342319417759	0.7394955809683037	-1.039135579645648	1.104317958063305	0.2145922746781116	-0.4107142857142857	0.6689342403628118
7323.272705078125	0.04220033565923927	-9.384260387194978	-2.179217239393315	-0.3569862719860575	-0.01476535238672349	-0.3667043021316813	0.2188841201716738	-0.40625	0.6643990929705216
7342.803955078125	0.3019261570527164	-9.851504110055377	-2.641595297108373	0.2812813321555186	1.754228722015769	-1.09105335122453	0.1888412017167382	-0.4241071428571428	0.6938775510204082
7362.335205078125	0.07223094255902168	-9.930015238718521	-2.121053439575637	-1.090983909473419	-2.270872421147175	-2.157384335272961	0.1952789699570815	-0.4330357142857142	0.6780045351473923
7381.866455078125	0.01085658956749041	-9.34354290933002	-2.106067120014347	0.2746063009837698	1.012036600686768	-1.443477160850502	0.2188841201716738	-0.4151785714285714	0.673469387755102
7401.397705078125	-0.01952957502119368	-9.888693593138678	-2.128675150941856	0.2537170363104961	0.2519957203280034	-2.155718997772034	0.2060085836909871	-0.421875	0.671201814058957
7420.928955078125	-0.4868413461150732	-9.81331340472067	-2.336273551757988	0.3427720384845327	-0.003083406643039275	0.006886274836121049	0.203862660944206	-0.4174107142857142	0.6757369614512472
7440.460205078125	-0.2284084205432876	-9.300746218824871	-1.648953864038583	-0.6809103046461504	-1.822540351491781	-0.3551050327938325	0.1974248927038627	-0.3973214285714285	0.6621315192743764
7459.991455078125	0.2254284397691544	-9.820436102579512	-2.134680711609316	-0.01421423350152478	-0.01784875902976276	-0.3598180272955602	0.1952789699570815	-0.421875	0.6780045351473923
7479.522705078125	-0.5790887353033869	-9.802289920727777	-2.295208102314374	0.6240533706400514	1.75114531537273	-1.084167076388408	0.2103004291845494	-0.4308035714285714	0.6961451247165533
7499.053955078125	-0.7792079323079938	-9.335642264111266	-2.691451667159808	-0.009580461178609809	-1.846555923807622	-0.7011505104171507	0.2060085836909871	-0.4308035714285714	0.6621315192743764
7518.585205078125	0.01237579060188853	-9.68699244477471	-2.25798722345416	0.06235487748704113	-3.223847612287049	0.752910034104266	0.1931330472103004	-0.4241071428571428	0.6621315192743764
7538.116455078125	0.1933493357299043	-9.900923392347201	-1.987994797480226	-0.3456774684913937	-1.101280395835581	-0.3556129756272994	0.1931330472103004	-0.4375	0.6621315192743764
7557.647705078125	0.1565206670151585	-9.981363186468132	-2.386760579066876	0.2632974974891059	2.098551644135625	-1.454568487354884	0.2103004291845494	-0.4241071428571428	0.6621315192743764
7577.178955078125	-0.1689876558554342	-10.17002729515862	-2.488989516497396	0.9772700414612209	2.128082348909073	-0.721159883091521	0.1974248927038627	-0.4308035714285714	0.6689342403628118
7596.710205078125	-0.4132709191225257	-9.51101880596029	-2.550459108155597	-0.3854147389891071	-0.05046287044624902	-1.086340356722802	0.1952789699570815	-0.4241071428571428	0.6825396825396826
7616.241455078125	-0.2223538387612514	-9.795756259592187	-2.254412042242198	-0.6675602423026528	-0.3381561088337781	0.3497425864581121	0.1866952789699571	-0.4174107142857142	0.671201814058957
7635.772705078125	0.2963523862363542	-9.821145342044185	-2.084218215472146	-0.01044463233663683	-0.3800204401793821	-0.3561209184607663	0.2017167381974249	-0.4107142857142857	0.671201814058957
7655.303955078125	-0.3334256657776599	-9.562322308998791	-2.371719136519725	-0.04264270050457435	-0.05354627708928829	-1.079454081886681	0.1995708154506438	-0.4196428571428571	0.6802721088435374
7674.835205078125	-0.009553716361671488	-9.676672139604062	-2.105852853628769	-0.7093387716492	-1.858237869551306	-1.074741087384953	0.1974248927038627	-0.4308035714285714	0.671201814058957
7694.366455078125	-0.06245120958666382	-9.241799730328378	-1.918144347456066	0.6173783394683025	1.008953194043728	-1.436590886014381	0.2017167381974249	-0.4241071428571428	0.6598639455782314
7713.897705078125	-0.1507167567021069	-9.806573640513788	-2.275263105299514	0.2746063009837698	1.012036600686768	-1.443477160850502	0.1802575107296137	-0.4241071428571428	0.673469387755102
7733.428955078125	-0.3368479085333386	-9.582490106773253	-2.02949486095185	-0.7490760421469135	-0.8074203441619739	-1.805468468480455	0.2017167381974249	-0.4263392857142857	0.6643990929705216
7752.960205078125	0.05188326326824587	-9.52577135788521	-2.127101837028668	-0.3314632349898689	-1.083431636805819	0.004205051668260811	0.1974248927038627	-0.4174107142857142	0.6621315192743764
7772.491455078125	0.04089527732383876	-9.566065518429806	-2.048711405853263	0.02175343583130069	-0.7064946032694759	0.3672122449651481	0.1974248927038627	-0.40625	0.6825396825396826
7792.022705078125	0.3266233986189734	-9.589124819844777	-2.050094963938161	-0.04264270050457435	-0.05354627708928829	-1.079454081886681	0.1931330472103004	-0.4263392857142857	0.6916099773242631
7811.553955078125	-0.491425253230967	-9.752661505043449	-2.89829100343392	-0.06439613633587504	0.6529483261801876	-1.446666326851829	0.1974248927038627	-0.421875	0.6666666666666666
7831.085205078125	-0.1913232258614331	-9.987985757640377	-2.29624884242812	0.6487122364782131	2.149014514581875	-0.3682281306320819	0.1995708154506438	-0.4352678571428571	0.6666666666666666
7850.616455078125	-0.1618461576364181	-9.442825982868083	-2.182731175133701	0	0	0	0.1952789699570815	-0.4241071428571428	0.671201814058957
7870.147705078125	-0.2157032525786167	-9.26046923010048	-1.899062497240372	0.6855440769690655	-0.00616681328607855	0.0137725496722421	0.1995708154506438	-0.4263392857142857	0.6689342403628118
7889.678955078125	0.2083535073875873	-9.820265353255696	-2.468003799983221	0.3465416396494207	-0.3652550877926586	0.010583383670915	0.1931330472103004	-0.4196428571428571	0.673469387755102
7909.210205078125	0.2994251319455557	-9.891883140208346	-2.391492786392299	-0.07193533866565094	1.377291688479426	-1.454060544521417	0.203862660944206	-0.4129464285714285	0.673469387755102
7928.741455078125	-0.3869171019602494	-9.652696485546056	-2.124616334587309	1.362684780450328	2.178545219355322	0.3651804736312807	0.2060085836909871	-0.4196428571428571	0.6666666666666666
7948.272705078125	0.5930301094072078	-10.07663737180114	-2.160153797863624	0.3172490014883441	1.065582877776056	-0.364023078963821	0.1974248927038627	-0.4107142857142857	0.6575963718820862
7967.803955078125	0.03073961960572423	-9.646772042660704	-2.053553797307117	0.3097097991585682	1.789926240075295	-0.3714172966334089	0.1974248927038627	-0.3995535714285714	0.6575963718820862
7987.335205078125	-0.2735240488952725	-9.714436476682765	-2.239431845166623	-1.070094644800146	-1.510831540788411	-1.445142498351428	0.203862660944206	-0.421875	0.6643990929705216
8006.866455078125	0.4208000923124071	-9.953702950418077	-2.284090863893772	-0.01335006234349776	-1.484384242658003	-0.7048476192519446	0.1974248927038627	-0.3995535714285714	0.6689342403628118
8026.397705078125	-0.4742291080009107	-9.449803163465448	-2.577089199908937	0.3172490014883441	1.065582877776056	-0.364023078963821	0.2060085836909871	-0.4196428571428571	0.6643990929705216
8045.928955078125	-0.4354529528537716	-9.248170722996717	-2.373072061561621	0.3059401979936803	2.152097921224914	-0.3751144054682029	0.2060085836909871	-0.3995535714285714	0.6689342403628118
8065.460205078125	0.3990584652640053	-9.75146533212739	-2.150744485584209	-0.3448132973333667	-2.567815879463821	-0.7006425675836838	0.1952789699570815	-0.4330357142857142	0.6780045351473923
8084.991455078125	0.07163901981556602	-9.616878006359775	-2.061861165230071	-0.01798383466641273	0.3443229221198566	-0.3635151361303542	0.1995708154506438	-0.421875	0.6598639455782314
8104.522705078125	-0.1396499824061818	-9.392542894115335	-2.361532371626718	0.007539202329775903	-0.7243433622992387	0.007394217669587907	0.1974248927038627	-0.4285714285714285	0.6575963718820862
8124.053955078125	0.1533388297423167	-9.728806115570153	-2.068576851782694	-0.4004931436486589	1.398223854152228	-1.101128792061977	0.203862660944206	-0.40625	0.6621315192743764
8143.585205078125	-0.4182527671954323	-9.793797270307847	-2.052274300864936	-0.7783686803079901	0.6234176214067407	-2.180074931115191	0.1738197424892704	-0.4263392857142857	0.6848072562358277
8163.116455078125	-0.05104705952911043	-9.726762256677437	-2.038151189946101	0.71860631629503	-1.799176460004413	0.3920761211417721	0.1888412017167382	-0.40625	0.6598639455782314
8182.647705078125	-0.01888714692420086	-9.949306078025709	-2.192917960641139	-1.304099504128175	-5.040221150492751	0.3840324516381914	0.2145922746781116	-0.4084821428571428	0.6621315192743764
8202.178955078125	-0.275380625691299	-9.482094678591574	-2.05377416556398	-0.004633772322914974	1.828707164777859	0.3413324831215905	0.1866952789699571	-0.3973214285714285	0.6666666666666666
8221.710205078125	0.1096656755162135	-9.849581505240012	-1.782894082233593	-0.6696015011514866	-2.909055394940639	-0.3440137062894507	0.1995708154506438	-0.4196428571428571	0.6666666666666666
8241.241455078125	0.1232839802728365	-9.647697486267376	-2.124316394630588	0.7043920827935053	-1.817025219034175	0.03225809384621187	0.203862660944206	-0.4196428571428571	0.6598639455782314
8260.772705078125	0.06350963688136282	-9.707705803439524	-2.269331035075059	0.9868505026398308	3.974638272716695	-0.02000937267437034	0.1888412017167382	-0.3973214285714285	0.6666666666666666
8280.303955078125	-0.04416212850606314	-9.413699792856356	-1.706236128985523	1.319177908787727	3.591534425894273	-0.3692440162990155	0.1952789699570815	-0.4241071428571428	0.6689342403628118
8299.835205078125	0.054323681951162	-9.889432125708401	-2.371143705320282	2.739583794402181	4.374939197740406	1.090178974558122	0.2188841201716738	-0.4263392857142857	0.655328798185941
8319.366455078125	0.07686127337130959	-10.07147568344078	-2.584086520804427	0.03046972585188347	2.606596804166387	1.413392347338683	0.2103004291845494	-0.4129464285714285	0.653061224489796
8338.897705078125	-0.08895452259541015	-9.524362980026574	-2.329037536377352	-0.3134794003234562	-1.427754558925675	0.367720187798615	0.2060085836909871	-0.421875	0.6643990929705216
8358.428955078125	0.1414861921453532	-9.506465366971961	-1.903721255351651	-0.7017995693194241	-2.582581231850545	-1.067346869715365	0.2060085836909871	-0.4151785714285714	0.6757369614512472
8377.960205078125	0.2953422791656107	-9.821135240973478	-1.983207508397803	1.10315688412611	-0.2821781059299234	1.823446069820958	0.1759656652360515	-0.4151785714285714	0.6689342403628118
8397.491455078125	-0.470077526711295	-9.631662861096526	-1.971839165605186	1.401557879790015	2.594263177594229	1.440937446683167	0.1931330472103004	-0.4129464285714285	0.6802721088435374
8417.022705078125	-0.4480167058285384	-9.692489529911414	-2.13710492735024	0.6022999348087507	2.457639918642206	-1.451379321353556	0.1952789699570815	-0.4375	0.6689342403628118
8436.553955078125	-0.3443550242831038	-9.360192813393533	-1.278783285975329	1.644830283763874	2.466238457742851	-1.070902469549633	0.1974248927038627	-0.4241071428571428	0.671201814058957
8456.085205078125	-0.3276053876071762	-9.663390612790595	-1.933338790302789	2.485553841558905	-1.381026775950938	1.862082495669824	0.2081545064377682	-0.4196428571428571	0.6780045351473923
8475.616455078125	0.197775666142762	-9.698947453631126	-1.410219675500696	3.465416396494207	-3.652550877926586	0.10583383670915	0.1995708154506438	-0.4285714285714285	0.6575963718820862
8495.147705078125	-0.6137173083603333	-9.670630503684075	-0.8731671231503374	7.775302622520529	8.965524916920819	-0.293861426934625	0.2210300429184549	-0.4330357142857142	0.6598639455782314
8514.678955078125	-0.2033556212881289	-9.462612908433586	-1.09300929975854	10.20949747355428	4.217860456444728	-0.5574131155250164	0.2145922746781116	-0.4285714285714285	0.6507936507936508
8534.210205078125	0.4154001011410728	-10.37789137474879	-0.723683583495028	15.18317434071836	17.53626404127553	-1.310548074461698	0.1866952789699571	-0.4129464285714285	0.6349206349206349
8553.741455078125	0.6287881058558253	-9.723459598230276	-0.6339126263988671	20.94448743283627	26.57383567514387	-0.5662730685263679	0.2081545064377682	-0.4285714285714285	0.6190476190476191
8573.272705078125	-0.555359135082042	-9.943941358144132	-0.5865354713876376	24.6790121868333	27.22856404631015	-1.217554317589745	0.2210300429184549	-0.4508928571428571	0.6167800453514739
8592.803955078125	-1.150013579116725	-10.12991400562298	-0.3047645373070755	24.81848742993416	13.82821184377424	-1.080761290702369	0.203862660944206	-0.4709821428571428	0.6077097505668935
8612.335205078125	0.1411791608247072	-10.50646229665875	-0.8526099600217474	29.763759159523	6.630854322928113	0.8886788701770064	0.2124463519313305	-0.4821428571428571	0.5941043083900227
8631.866455078125	0.7674218380911192	-9.75514896585566	-0.2115715642139658	32.75069787559671	16.01956737303087	0.8545305139974531	0.2167381974248927	-0.4754464285714285	0.5782312925170068
8651.397705078125	0.7797532664396152	-9.765373290240154	-0.4243062357982476	40.80877183449634	36.28072603506589	1.892217097202578	0.2081545064377682	-0.5044642857142857	0.5691609977324263
8670.928955078125	0.189937276502653	-9.426141797007453	0.3940274517755127	47.14772599558484	47.37806838836729	0.469173836028024	0.2188841201716738	-0.5223214285714285	0.5555555555555556
8690.460205078125	-0.6505438744032175	-9.579353147114555	0.7686731546074704	47.52615278686942	41.1823688841212	-0.1807250935354783	0.2296137339055794	-0.5223214285714285	0.5578231292517007
8709.991455078125	-1.375813779516773	-9.289272165235138	0.8466840741262961	47.53513074441028	11.54092071358474	1.195005637968185	0.1974248927038627	-0.5491071428571428	0.546485260770975
8729.522705078125	-1.280138086930356	-10.30032993226201	0.4627882848723605	49.91798993434666	-17.05344501903389	2.248030939524755	0.2231759656652361	-0.5892857142857143	0.562358276643991
8749.053955078125	-0.04843883938587078	-10.19143480352533	0.762251285525854	50.30222758564496	-21.04041691832274	2.295585411543609	0.2489270386266094	-0.6049107142857143	0.5215419501133787
8768.585205078125	0.2205274827196273	-10.56786184048376	0.3962313198740048	55.39802169430906	-9.770102107181325	4.083359296684614	0.2381974248927039	-0.640625	0.4988662131519275
8788.116455078125	0.2644592243558408	-10.70971529931427	0.08468980931387146	56.66214558984706	8.795412559055682	6.081260009227967	0.2553648068669528	-0.6607142857142857	0.4897959183673469
8807.647705078125	-1.079251208551985	-10.36294486165186	0.7822637123412931	55.40068878622345	3.808737685652219	7.54474654275284	0.2703862660944206	-0.6897321428571428	0.5102040816326531
8827.178955078125	-0.5473084992704967	-10.05513297561336	0.6492172739884514	55.24089886250237	-11.00152031677961	8.409077784734391	0.2703862660944206	-0.7232142857142857	0.4988662131519275
8846.710205078125	-0.015236496283954	-10.13116076635029	0.5032414651300938	54.57624405020658	-10.23531262313477	9.107547071983682	0.2639484978540773	-0.7321428571428571	0.4807256235827664
8866.241455078125	0.4508772878240238	-10.39844816681764	0.8306385645363967	53.51949946774993	-10.26175992126517	8.367252192884198	0.2854077253218884	-0.7857142857142857	0.4852607709750567
8885.772705078125	0.7775936987512256	-10.37141230062388	0.812058696306002	64.06689686937337	8.256200283669298	11.27071838059394	0.2854077253218884	-0.7790178571428571	0.4852607709750567
8905.303955078125	-0.563363182281753	-10.23679061060143	1.234277411848763	64.200612501473	31.1056303075118	11.76432285342916	0.2639484978540773	-0.7901785714285714	0.4988662131519275
8924.835205078125	-1.140039658213624	-9.907791522609784	1.759067862178767	66.75574750631594	20.27244230361123	13.00289412421251	0.2553648068669528	-0.8147321428571428	0.5192743764172336
8944.366455078125	-0.8584428748378303	-9.779294359130411	2.170818096027934	64.32848935397422	-7.192240692555996	13.948420251559	0.2618025751072962	-0.8482142857142857	0.5238095238095238
8963.897705078125	-0.2156061586132453	-10.42208636265629	1.1524525960184	66.43357514539971	-4.948467250367701	15.76664538404477	0.2618025751072962	-0.8616071428571428	0.546485260770975
8983.428955078125	-0.2372063706717429	-10.11884005750541	1.271657475337555	66.43098263192563	-0.5488607994829805	16.80173415991392	0.2575107296137339	-0.859375	0.564625850340136
9002.960205078125	-0.7043766855468583	-9.770734010922309	2.070321615910319	64.89835288252256	8.066349379531227	14.88636831205658	0.2639484978540773	-0.875	0.5850340136054422
9022.491455078125	-1.114964636602909	-9.938345303128921	2.312790190903174	63.48430911154707	2.521166475650754	12.39555365416508	0.2467811158798283	-0.8638392857142857	0.5941043083900227
9042.022705078125	-0.8467518131433258	-10.23395672429281	3.042528253108089	66.33525259857984	-1.035973793840939	14.28670507767979	0.2639484978540773	-0.9040178571428571	0.6122448979591837
9061.553955078125	-1.31811815401917	-9.966616798257789	3.240386830488372	67.33686858934644	-4.013992499086063	12.89766866368426	0.2510729613733906	-0.8727678571428571	0.6349206349206349
9081.085205078125	-0.9733308451386474	-10.25289295417488	3.455533493456579	68.48439651629317	-7.175695295183179	15.11050963147914	0.2489270386266094	-0.9040178571428571	0.6394557823129252
9100.616455078125	-0.8247374159569633	-9.708924343012148	3.902313024267757	74.30806448589813	-1.361971273601885	16.60769467151873	0.2510729613733906	-0.8950892857142857	0.6825396825396826
9120.147705078125	-1.142059789897391	-9.564336977858604	4.001897357086061	77.09814309966745	7.846141092291912	20.16853742229345	0.2339055793991416	-0.9084821428571428	0.7188208616780045
9139.678955078125	-1.019741389526465	-9.515055111357263	4.014955279177151	78.19635329493785	3.888699897776507	20.94950049857567	0.2532188841201717	-0.8928571428571428	0.7414965986394558
9159.210205078125	-2.171821647709932	-9.63484744008856	3.916858648544182	79.61848752286836	1.739033702366159	21.71886430552004	0.2231759656652361	-0.875	0.7346938775510204
9178.741455078125	-1.736502111447218	-9.598796595047146	4.262456042681011	79.74115601899361	-7.279560808314798	22.53092808098101	0.2210300429184549	-0.8883928571428571	0.7777777777777778
9198.272705078125	-1.341451668582203	-9.633050129778825	4.553330123526403	81.1792328227417	-12.34444921195186	22.97005073130817	0.2081545064377682	-0.8839285714285714	0.8004535147392291
9217.803955078125	-0.8751500045590667	-9.708420217126129	4.861939231416878	82.78259749369181	-5.894322261563201	21.8584800645758	0.2210300429184549	-0.8549107142857142	0.8231292517006803
9237.335205078125	-1.589076366039313	-9.297240549470921	4.826003950870129	83.4667261448776	2.536552145770542	23.94612727482114	0.2103004291845494	-0.8571428571428571	0.8480725623582767
9256.866455078125	-2.282261106471195	-8.936773348531249	4.756722892017419	82.14464280608301	-2.159346082602352	23.96664459032898	0.2103004291845494	-0.8325892857142857	0.8775510204081632
9276.397705078125	-1.719766533812561	-8.35653970839925	5.650122769011197	82.34505750088765	-10.34650467680549	26.93022231189372	0.1802575107296137	-0.8392857142857142	0.9251700680272109
9295.928955078125	-1.185351082421893	-8.634611135640428	5.269802119740363	83.1176153211819	-13.17864990316948	28.41284384142656	0.1802575107296137	-0.8058035714285714	0.9342403628117915
9315.460205078125	-0.7258111163591739	-8.891731787826309	5.23417286040719	82.34332915857158	-7.413433709549015	27.62028149580649	0.1888412017167382	-0.8013392857142857	0.9569160997732427
9334.991455078125	-1.592878409053592	-7.842657074495325	5.206208252297959	79.4622288622197	-0.9589199908603663	25.69955320161343	0.1888412017167382	-0.7745535714285714	1
9354.522705078125	-2.107574467751486	-8.100136376534607	5.655405958822066	80.91773824600897	0.6023744203742935	28.23103605668766	0.1566523605150215	-0.7700892857142857	0.9977324263038549
9374.053955078125	-1.534382819984819	-7.499807686951668	6.49950648827785	79.49324984269684	-5.322828923685561	25.3841004803354	0.148068669527897	-0.7299107142857142	1.031746031746032
9393.585205078125	-1.43116360656523	-7.611950990196975	6.381666778972021	79.54139048668236	-8.564525295002374	25.77719248714411	0.1523605150214592	-0.7098214285714285	1.054421768707483
9413.116455078125	-1.389646020828094	-7.602265155953337	6.311540858319569	82.20354099893795	0.4829482396235598	26.09967299225879	0.1394849785407725	-0.6852678571428571	1.08390022675737
9432.647705078125	-1.486939904941841	-6.924524540344522	6.857255800306603	82.77018618094665	9.133204255868819	25.30507887530485	0.1459227467811159	-0.6629464285714285	1.090702947845805
9452.178955078125	-2.467103279222438	-6.813712805591615	6.914409554896828	82.71709884810544	8.69963753860015	23.8695038749574	0.148068669527897	-0.6473214285714285	1.115646258503401
9471.710205078125	-2.306719839082176	-7.229458054134433	7.202596153115572	81.80391202644731	0.414636610147548	24.65351460824042	0.1223175965665236	-0.5959821428571428	1.147392290249433
9491.241455078125	-2.223836183668515	-6.957559617961295	7.077495917871818	80.4977712634703	-7.196483826452064	24.34379076713105	0.1158798283261803	-0.5982142857142857	1.149659863945578
9510.772705078125	-2.290560104935563	-6.38113480299105	6.607030901719528	80.23101708134909	-3.428893536074729	27.17847762231147	0.1223175965665236	-0.5446428571428571	1.170068027210884
9530.303955078125	-2.030187773787949	-6.070607213171212	7.100410031856193	77.46795150879956	-4.164267163289179	26.41114558670097	0.1008583690987124	-0.5290178571428571	1.188208616780045
9549.835205078125	-2.091608591704735	-6.080094015093054	7.120042843942903	74.76174287025611	-4.828245754384578	27.08308566027271	0.1030042918454936	-0.4821428571428571	1.240362811791383
9569.366455078125	-2.574971046610448	-5.691422006705614	6.476696497779483	72.62909278298561	-8.574252198260638	24.20019488123944	0.09012875536480687	-0.4620535714285714	1.249433106575964
9588.897705078125	-1.977886243734696	-5.343857501199017	6.972297842857353	70.18327621192442	-8.244042947699032	23.06883976666512	0.1201716738197425	-0.4642857142857142	1.242630385487528
9608.428955078125	-2.167750751299395	-4.958120472284986	7.591401660551791	67.78968280254639	-6.013731496240515	23.71808924439463	0.1008583690987124	-0.4285714285714285	1.258503401360544
9627.960205078125	-1.748275837006084	-4.95221421132691	7.480644925098165	64.70732696965969	-10.38558728733788	22.62102399500039	0.1072961373390558	-0.3794642857142857	1.267573696145125
9647.491455078125	-2.124665479388464	-4.3625917290445	7.364507122519957	62.58339317240976	-10.81850232377808	20.78431331834065	0.09012875536480687	-0.3683035714285714	1.292517006802721
9667.022705078125	-2.217819944726307	-4.523276346007282	7.496280186916332	60.53053054266746	-11.16217356506946	20.74669277815872	0.09012875536480687	-0.3526785714285714	1.292517006802721
9686.553955078125	-1.529427152238032	-4.136220879992772	8.044756040129728	58.7995506867364	-12.26896909336265	20.00371667589138	0.08583690987124463	-0.2924107142857142	1.281179138321995
9706.085205078125	-1.505035004235999	-3.873838538846529	7.646357566457088	57.7410777619637	-9.362345424236578	19.95348098070466	0.09227467811158799	-0.2924107142857142	1.312925170068027
9725.616455078125	-2.020347269475907	-3.949493497002211	7.136767763917242	55.32745925907045	-9.358610336765066	19.54545902955626	0.1158798283261803	-0.2522321428571428	1.324263038548753
9745.147705078125	-1.884519614683138	-3.344791167489533	7.83971657035467	53.90909463230482	-7.571115822504338	18.77979233144668	0.09012875536480687	-0.2410714285714285	1.326530612244898
9764.678955078125	-1.572940709546958	-3.176189784823723	8.314479117961083	50.35054071593891	-8.80528438982043	15.12384063663425	0.1051502145922747	-0.2254464285714285	1.310657596371882
9784.210205078125	-2.154366750154325	-2.847143201185326	8.293817872575346	48.00304669169759	-12.38756859578559	15.4724258284249	0.09871244635193133	-0.1986607142857143	1.333333333333333
9803.741455078125	-1.616947199106406	-3.246456790635199	8.633495420844717	45.55895846295245	-14.99043031248046	13.65101152993781	0.1030042918454936	-0.1830357142857143	1.337868480725624
9823.272705078125	-2.102636940703112	-3.01937767099701	8.222877743780584	46.57887120491824	-12.8088016864821	14.00930572873297	0.1072961373390558	-0.1383928571428571	1.337868480725624
9842.803955078125	-1.507752151027439	-2.540478034045281	8.938480408866376	45.83560602278506	-11.40749442568683	12.90129066183487	0.1223175965665236	-0.1294642857142857	1.349206349206349
9862.335205078125	-1.804656138182139	-2.244579701244442	9.037042389642506	44.80556156501541	-8.465173238501233	13.57069102123928	0.111587982832618	-0.09375	1.337868480725624
9881.866455078125	-1.258493100329866	-2.401556483138116	8.50237125747636	43.76303121606028	-8.473771777601877	13.19021416943535	0.1137339055793991	-0.08258928571428571	1.351473922902494
9901.397705078125	-1.398852095441989	-2.188031681065782	8.252556482974438	43.00759305927439	-4.519413989729513	12.41613736798926	0.1201716738197425	-0.078125	1.353741496598639
9920.928955078125	-1.84200804235953	-1.789660727657213	8.690600154320366	41.61011769718205	-1.97187859511002	12.36271250680122	0.1072961373390558	-0.04017857142857142	1.342403628117914
9940.460205078125	-2.091897441098108	-2.0598891063971	8.169335946545468	38.14525255531309	-5.289833454175016	10.52803360147535	0.1201716738197425	-0.02901785714285714	1.351473922902494
9959.991455078125	-1.766320430946704	-1.6490034623572	8.264696155894933	36.33770358839348	-3.190630129210917	8.67232943780818	0.1309012875536481	-0.02008928571428571	1.369614512471655
9979.522705078125	-1.421294736797487	-1.490837557682531	8.456004291993596	34.35850463963287	-7.844664026238208	9.398710258234896	0.1287553648068669	-0.004464285714285714	1.337868480725624
9999.053955078125	-1.847699026824959	-1.062331090539831	8.239290437597914	31.63140673641616	-9.26868349769237	9.358408494885104	0.1158798283261803	0.008928571428571428	1.369614512471655
10018.58520507812	-1.816581544717056	-1.06264226536091	8.188766716603599	27.87135894542294	-8.854745584439558	9.638780390148538	0.1223175965665236	0.02678571428571428	1.3718820861678
10038.11645507812	-1.505820826308178	-0.5404973472924739	8.745347936940231	26.80416973062965	-9.261213322749345	8.542364592588289	0.1437768240343348	0.02901785714285714	1.346938775510204
10057.64770507812	-1.255630456891379	-0.7753224833098742	8.216106913627671	24.38591745541348	-7.428771070499975	8.475675124561471	0.1244635193133047	0.04464285714285714	1.36281179138322
10077.17895507812	-1.391205543687601	-0.9557849142600938	8.508309470800961	21.61444850937615	-5.973265851786946	8.045978463237766	0.1416309012875537	0.06696428571428571	1.36281179138322
10096.71020507812	-1.758534484416554	-0.6490813218225012	8.506509666145197	18.8635559114793	-9.261690006078494	6.944708162175264	0.1330472103004292	0.06696428571428571	1.35827664399093
10116.24145507812	-1.798460141410199	-0.6183790349495345	8.417442712448484	16.13645800826259	-10.68570947753266	6.904406398825471	0.1587982832618026	0.07589285714285714	1.36281179138322
10135.77270507812	-0.8324686105609934	-0.8502611724802488	8.757065137731995	14.05980068384015	-12.89378540166143	5.805817320930828	0.1695278969957082	0.078125	1.360544217687075
10155.30395507812	-1.181185235946707	-0.4124305718829572	8.934850125282983	13.33742476638023	-10.73243726050739	5.410044090954262	0.1738197424892704	0.08482142857142856	1.346938775510204
10174.83520507812	-1.348970740701377	-0.1178234239061176	9.386869988505028	8.706183691740092	-9.077830917727177	1.344038673659556	0.1630901287553648	0.09151785714285714	1.35827664399093
10194.36645507812	-1.705426888920847	-0.2556730038380643	8.29779093290103	12.17599552246475	-2.0846129700767	4.221200572524163	0.1716738197424893	0.09151785714285714	1.365079365079365
10213.89770507812	-1.148586936873095	-0.5238676659848045	8.736244707717681	9.433819214588485	-2.059945716932386	4.166110373835195	0.1781115879828326	0.09598214285714285	1.337868480725624
10233.42895507812	-1.340815136212195	-0.4108342728803023	8.57130953958678	7.94438342031524	-0.3616949978204716	1.601353539247819	0.1759656652360515	0.1026785714285714	1.36281179138322
10252.96020507812	-1.340732307432393	-0.3805320708650701	8.563026661606683	5.919949257575981	-0.6696687210523298	2.283369053657007	0.1716738197424893	0.1183035714285714	1.349206349206349
10272.49145507812	-1.586920632634907	-0.4184742280170854	8.692063263490693	4.512893434305025	0.03131074975954048	1.528793682051814	0.1566523605150215	0.09598214285714285	1.353741496598639
10292.02270507812	-1.818547213076723	-0.1434306894853944	8.385333552570271	2.522385682049757	-3.536208103818892	2.244083175974148	0.1824034334763948	0.1160714285714286	1.3718820861678
10311.55395507812	-1.44763033080363	-0.1976449088131759	9.048747366077272	-0.5173274503323818	-7.85451761782697	2.226472008466586	0.1802575107296137	0.1183035714285714	1.360544217687075
10331.08520507812	-0.9979712733357827	-0.1516364488828038	8.980800802966023	-2.665055942262449	-10.15183733710455	-0.6712072059058581	0.1695278969957082	0.1183035714285714	1.356009070294785
10350.61645507812	-0.9733851435473074	-0.04077119906957744	9.583412313914414	0.1401010761664139	-2.392411695809233	2.90442398020804	0.167381974248927	0.1138392857142857	1.365079365079365
10370.14770507812	-1.17442151777215	-0.4023971989636927	9.278886471092482	-1.616401816760824	-2.430540939683326	1.790538524140754	0.1995708154506438	0.1294642857142857	1.351473922902494
10389.67895507812	-1.389910545194048	-0.2487271571743222	9.399217784710956	-2.041553826247644	-1.430186284740242	-0.02652921367755048	0.1781115879828326	0.1183035714285714	1.360544217687075
10409.21020507812	-1.837205952116356	-0.1937491526000486	9.230799293268241	-3.789653345687079	-3.659194374541813	-1.478050044031633	0.1866952789699571	0.1116071428571428	1.349206349206349
10428.74145507812	-0.9067541933596274	-0.4656799328138786	9.04276627473824	-3.098298408704292	-1.456633582870649	-0.7668240927770341	0.1695278969957082	0.1116071428571428	1.36734693877551
10448.27270507812	-1.587601403571728	0.04617904433874759	9.780548520438105	-3.159789115033307	0.300678545788159	-1.864763718837684	0.184549356223176	0.1183035714285714	1.385487528344671
10467.80395507812	-1.45477784843621	-0.2379774740408905	9.763499129335326	-2.117258766078183	0.3092770848888039	-1.484286867033761	0.1866952789699571	0.1227678571428571	1.365079365079365
10487.33520507812	-1.533821076766906	-0.6816314862020281	9.504556656282425	-0.8152005207988425	2.778598949274694	-2.562075611419515	0.1781115879828326	0.125	1.346938775510204
10506.86645507812	-1.942883766146134	-0.6977428795102559	9.594499063593023	-0.7537098144698285	1.021286820615886	-1.464135985358865	0.1738197424892704	0.1183035714285714	1.360544217687075
10526.39770507812	-1.679370002008509	-0.2357315525051675	9.773734894728479	-0.4280574394936815	-0.1040091475355373	-2.165794438609483	0.1523605150214592	0.1026785714285714	1.36734693877551
10545.92895507812	-1.415302699196117	-0.3595843467454126	9.897616858387197	0.2537170363104961	0.2519957203280034	-2.155718997772034	0.1866952789699571	0.125	1.35827664399093
10565.46020507812	-1.3319099498188	-0.9361758499967617	9.721607226777973	0.9468003156093375	-0.4785144552573138	-2.134552230430204	0.1909871244635193	0.1272321428571428	1.36281179138322
10584.99145507812	-1.564983003585921	-0.4388956245095955	9.559524848388012	3.800649232648964	-2.931290922270387	0.1053258938756832	0.1695278969957082	0.1004464285714286	1.360544217687075
10604.52270507812	-1.755799073240121	-0.6592096860352756	9.253376711767178	1.08109053176203	-5.079653756023789	0.07241834819547849	0.1759656652360515	0.1160714285714286	1.349206349206349
10624.05395507812	-1.624191687017778	-0.09486919424093333	9.357944211981909	-1.009781026161938	-7.30557843918232	-1.385988756994725	0.1824034334763948	0.1183035714285714	1.346938775510204
10643.58520507812	-1.505998563923769	-0.4091824386031866	9.783529861764618	1.081954702920057	-6.546189239652029	-0.272611243760906	0.1738197424892704	0.1116071428571428	1.35827664399093
10663.11645507812	-0.9624395820998715	-0.4348200486234458	9.50926433243613	1.726897338233382	-4.035003043920534	-0.6445364832277818	0.1952789699570815	0.1116071428571428	1.344671201814059
10682.64770507812	-1.401565201805146	-0.1880045500021506	9.544275282555429	5.484352615752524	-0.0493345062886284	0.1101803973779368	0.1802575107296137	0.09598214285714285	1.365079365079365
10702.17895507812	-1.453060666415946	-0.2379946458610931	9.591780927308942	2.685319373870163	-0.09606228926336526	-1.384181910493272	0.1974248927038627	0.1049107142857143	1.351473922902494
10721.71020507812	-1.412231973701057	-0.2586049529902623	9.590544308881192	3.010107577688283	0.2451772262134521	-1.740810771787506	0.1909871244635193	0.1361607142857143	1.356009070294785
10741.24145507812	-1.37951852242138	-0.05691188548285692	9.380423670709414	3.087853776367656	1.076613142691267	0.4107031743162678	0.2017167381974249	0.1227678571428571	1.340136054421769
10760.77270507812	-1.411571363676791	-0.3495206499995958	9.524483306454572	1.018735654274989	-1.85580614373674	-0.6804916859087875	0.1995708154506438	0.1205357142857143	1.376417233560091
10780.30395507812	-1.521887630604283	-0.1969023358151693	9.331620203285436	0.3520395831303627	-3.660497736198758	-0.6757786914070598	0.203862660944206	0.109375	1.360544217687075
10799.83520507812	-1.21796941872148	-0.05852737651985591	9.552043912964367	-1.536161012475486	-3.497094130191096	-5.031723501969182	0.1738197424892704	0.125	1.36281179138322
10819.36645507812	-1.721051225091106	0.02731152235192117	9.860224549926976	1.761136665250153	-1.790577920903768	0.7725529729456955	0.1781115879828326	0.1227678571428571	1.365079365079365
10838.89770507812	-1.307160223913725	-0.2596556704881355	9.287450962801017	1.714724363580691	-1.481952516843436	-0.3105982177757792	0.1974248927038627	0.1183035714285714	1.351473922902494
10858.42895507812	-1.164890106223754	-0.2913814019680655	9.346153479518282	1.375721926261046	-1.841040791350017	-0.3137873837771062	0.2060085836909871	0.1272321428571428	1.35827664399093
10877.96020507812	-1.295576274797579	-0.3708826210904081	9.149464214451749	-0.004946688855694836	-3.675263088585482	-1.042482993538741	0.184549356223176	0.125	1.356009070294785
10897.49145507812	-1.350207111755967	-0.07740701979153125	9.510507093964025	0.01971217698246678	-3.277393889376337	-0.3265440477824146	0.1802575107296137	0.1294642857142857	1.35827664399093
10917.02270507812	-1.154667781438971	-0.3217866555189436	9.344329164305229	-1.685744641952394	-5.45285570208862	-0.6986107962498164	0.1952789699570815	0.125	1.376417233560091
10936.55395507812	-1.302473285876615	0.01302473285876615	9.839165322355367	-1.786108447621095	-4.111261531668719	-2.872307395362354	0.1995708154506438	0.1272321428571428	1.351473922902494
10956.08520507812	-1.19601162875994	-0.4526863483588653	9.397081243340894	-0.6611981276636838	-5.099934240868118	-0.6816490805762472	0.1888412017167382	0.1294642857142857	1.337868480725624
10975.61645507812	-1.60078338330265	-0.5496487318235392	9.057930166999681	-0.6565643553407687	-6.928641405645977	-1.022981563697838	0.184549356223176	0.1294642857142857	1.351473922902494
10995.14770507812	-1.347538408875063	-0.148140777527411	9.24363680587361	-0.3639742196905863	-6.260927727079066	-2.102943588417985	0.2145922746781116	0.1205357142857143	1.344671201814059
11014.67895507812	-1.156898097851172	-0.1399461705366398	9.567360805525379	-1.696189274289031	-5.832876142268002	-1.054731714710583	0.2167381974248927	0.140625	1.351473922902494
11034.21020507812	-1.05684051956301	-0.7066033119760873	9.765684609362244	-3.117459331061513	-5.149745430485893	-2.169125113611336	0.203862660944206	0.1294642857142857	1.344671201814059
11053.74145507812	-1.32898872017021	-0.2493363754245606	9.429484261918972	-1.700823046611946	-4.004168977490142	-0.7133992315889922	0.2103004291845494	0.1294642857142857	1.346938775510204
11073.27270507812	-1.49195197376915	-0.2477067428885712	9.399279009568101	-1.381845702807548	-5.871657066970567	-1.767481494465582	0.2103004291845494	0.1294642857142857	1.346938775510204
11092.80395507812	-0.7834923117557671	-0.1335792182965838	9.981884236801196	-0.784179540321712	-1.585309983550501	-2.877528332697548	0.1995708154506438	0.1116071428571428	1.36281179138322
11112.33520507812	-1.227741235752712	0.06278246286257765	9.508817452822262	0.6022999348087507	2.457639918642206	-1.451379321353556	0.2253218884120172	0.125	1.36281179138322
11131.86645507812	-1.096923753259691	-0.4132731867098274	9.692375325969129	0.9839450726329699	2.870274470238074	-0.3687360734655487	0.1974248927038627	0.1205357142857143	1.36734693877551
11151.39770507812	-1.035919099456052	-0.3835802029448335	9.714358925197049	0.1203888991839471	0.8849821935671035	3.230968027990454	0.2210300429184549	0.1272321428571428	1.35827664399093
11170.92895507812	-1.383736729548804	-0.09727374381562309	9.802244383451873	0.9998876484505487	-0.04494773798864335	-0.6989772300827574	0.2210300429184549	0.1272321428571428	1.349206349206349
11190.46020507812	-1.106893551276789	-0.1303452059013735	9.668946964413596	0.6721940146255677	-1.490551055944082	-0.6910750695797026	0.2145922746781116	0.1272321428571428	1.349206349206349
11209.99145507812	-1.28858023199675	-0.4113566219224568	9.470268097634149	0.3323274061478959	-0.3831038468224214	-0.3492346436246452	0.2188841201716738	0.1294642857142857	1.36281179138322
11229.52270507812	-1.683523603512266	-0.3872051680052815	9.168686881838877	0.6504405787942671	-0.7840564526746056	-1.058287314544851	0.2145922746781116	0.140625	1.324263038548753
11249.05395507812	-1.138202953728133	0.02148303963829143	9.738662719752037	0.2670670986539939	1.736379962986007	-1.45087137852009	0.2167381974248927	0.1227678571428571	1.365079365079365
11268.58520507812	-1.065719401943705	-0.2216660383037953	9.63316468416642	1.05297498129176	0.388618979280027	0.7365977702646896	0.2274678111587983	0.1316964285714286	1.351473922902494
11288.11645507812	-1.023670499887357	-0.929157234395066	9.509907131592863	0.7528456433118014	0.4452486630123546	1.809165577315249	0.203862660944206	0.1138392857142857	1.374149659863946
11307.64770507812	-1.103275347749386	-0.6051288626841225	9.307126611673297	1.073864245965034	1.148659859638791	1.448839607186222	0.2103004291845494	0.1339285714285714	1.349206349206349
11327.17895507812	-1.419539129479675	-0.03630965921025377	9.30085172347769	0.7386314098102766	0.4273999039825919	1.449347550019689	0.2103004291845494	0.1316964285714286	1.344671201814059
11346.71020507812	-1.523113900588165	-0.004970881196138551	9.454247201673688	0.3674309043226944	0.3947857925661056	0.7228252205924476	0.2081545064377682	0.1183035714285714	1.35827664399093
11366.24145507812	-1.118503763176774	-0.3120472856005556	9.809559991146797	0.391225599002829	2.25919047540349	1.783793758305158	0.2210300429184549	0.1205357142857143	1.335600907029479
11385.77270507812	-1.167641637884459	-0.2509498462474181	9.621306645588794	-0.2859151044784336	0.07447844276209033	1.43238583434612	0.2167381974248927	0.1383928571428571	1.344671201814059
11405.30395507812	-1.162488071609526	-0.4227185536273392	9.105950018095493	-0.3360970073127839	0.7452755279720408	0.3455375347898513	0.2145922746781116	0.1227678571428571	1.331065759637188
11424.83520507812	-1.350582871586283	0.04380885901889314	9.548083076995681	-1.40909708211979	-1.869919815294991	-1.448331664352755	0.2188841201716738	0.1294642857142857	1.353741496598639
11444.36645507812	-1.31464111810851	-0.4211970231623493	9.015132219014301	0.06149070632901411	-1.757312128658808	1.09793962606065	0.2017167381974249	0.1339285714285714	1.335600907029479
11463.89770507812	-1.115839100724153	-0.5443971645483141	9.543093745884679	-0.8957542416169602	-1.658818113580877	2.876370938030088	0.2339055793991416	0.1205357142857143	1.342403628117914
11483.42895507812	-1.159833468998752	-0.1298158067241539	9.860897920283421	-0.645806806471352	-1.044650712103254	0.7169548314232602	0.2145922746781116	0.1205357142857143	1.365079365079365
11502.96020507812	-1.11605324342315	-0.5241930029193039	9.564508015784439	-0.6884495069759263	-1.098196989192542	-0.3624992504634205	0.2188841201716738	0.1361607142857143	1.349206349206349
11522.49145507812	-1.087493352418371	-0.3022563796071295	9.769743405102362	-1.759408322934099	-1.142493046352713	-1.462612156858464	0.2081545064377682	0.1272321428571428	1.365079365079365
11542.02270507812	-1.177653860398528	-0.4023648755374289	9.602120733730382	-1.028316115453598	0.009250219929117825	-0.02065882450836315	0.2188841201716738	0.1272321428571428	1.36734693877551
11561.55395507812	-1.02472101124093	-0.5251063252411262	9.614958266950181	-0.7273226063156129	-1.51391494743145	-1.438256223515307	0.2253218884120172	0.1116071428571428	1.351473922902494
11581.08520507812	-0.9290736016524943	-0.6472749205491317	9.233890777494327	-0.02175343583130069	0.7064946032694759	-0.3672122449651481	0.2103004291845494	0.125	1.360544217687075
11600.61645507812	-1.553873804793025	-0.6006228781136861	9.469013132363685	-0.02465886583816162	-0.3978691992091449	-0.7159389457563266	0.2145922746781116	0.1160714285714286	1.337868480725624
11620.14770507812	-1.207235979758901	-0.09903875131352212	9.499108179971696	0.9990234772925217	1.421587745639597	-0.3539476381263729	0.2167381974248927	0.1272321428571428	1.35827664399093
11639.67895507812	-1.05455767758313	-0.3025857363554819	9.537400411374229	0.6675602423026528	0.3381561088337781	-0.3497425864581121	0.2167381974248927	0.1071428571428571	1.346938775510204
11659.21020507812	-0.8416019986946555	-0.7794627678918414	9.670403951098208	0.001728342316054045	-2.93307096725648	-0.6900591839127689	0.2188841201716738	0.1316964285714286	1.35827664399093
11678.74145507812	-1.094590405926274	-0.2617813686680101	9.459040592627396	1.00279307845741	1.059416064489977	-0.350250529291579	0.2167381974248927	0.1272321428571428	1.333333333333333
11698.27270507812	-1.53639482958316	-0.09574716281527954	9.761931937907853	0.9923484461207727	0.6793956243105954	-0.7063714477523452	0.2145922746781116	0.1294642857142857	1.337868480725624
11717.80395507812	-1.187777194690379	-0.2002434401743084	9.594045999650149	0.5889498724652529	0.9732556759842028	-2.156226940605501	0.2231759656652361	0.1294642857142857	1.346938775510204
11737.33520507812	-1.368629526969905	-0.188333906750503	9.311932288827295	-0.4176128071570446	0.2760112926438448	-1.809673520148716	0.2124463519313305	0.1205357142857143	1.337868480725624
11756.86645507812	-1.092499484289835	-0.7163477324298291	9.249948428983505	-0.7595206744835503	-1.187440784341356	-2.161589386941221	0.2081545064377682	0.1205357142857143	1.351473922902494
11776.39770507812	-1.259252659618205	-0.2904377764341211	9.59873534957557	-0.7168779739789759	-1.133894507252068	-1.082135305054541	0.2145922746781116	0.1138392857142857	1.353741496598639
11795.92895507812	-1.5140026935812	-0.03536502356923852	9.563534664242413	-0.7226888339926978	-3.342622112209309	-1.779588706636898	0.2167381974248927	0.1383928571428571	1.346938775510204
11815.46020507812	-1.136465569566454	-0.1805545362235274	9.564924303584165	-0.02756429584502254	-1.502233001687766	-1.064665646547505	0.2081545064377682	0.125	1.356009070294785
11834.99145507812	-1.308455181178418	-0.2899457512185189	9.416946689270326	-0.7453064409820255	-1.169592025311593	-1.801771359645661	0.2081545064377682	0.1205357142857143	1.344671201814059
11854.52270507812	-1.418096696582653	-0.4201624673776079	9.156608433775528	0.9668254091245841	1.748061908729691	-1.077280801552287	0.2188841201716738	0.1316964285714286	1.342403628117914
11874.05395507812	-1.270773982095964	0.05311178022500005	9.73045943408623	0.6713298434675408	-0.02401557231584131	-0.3460454776233181	0.2017167381974249	0.125	1.335600907029479
11893.58520507812	-1.222987630648934	-0.2806994166228037	10.0538651057097	0.008403373487802925	-2.190878845927479	-0.3376353742867965	0.2446351931330472	0.1294642857142857	1.351473922902494
11913.11645507812	-0.9435969623445034	-0.6875337273462522	9.665818683429933	-0.3305990638318419	-2.549967120434059	-0.3408245402881236	0.2167381974248927	0.1205357142857143	1.35827664399093
11932.64770507812	-1.014345150181394	-0.474705033346671	9.597780324261828	0.32478820381812	0.3412395154768173	-0.3566288612942332	0.1974248927038627	0.1227678571428571	1.337868480725624
11952.17895507812	-1.533610974496191	-0.3584012639924119	9.483546429210962	0.2992651668219314	1.409905799895913	-0.7275382150941753	0.2124463519313305	0.1116071428571428	1.369614512471655
11971.71020507812	-1.469517413270219	-0.2580320985945706	9.19663928620554	0.02638720815421566	-2.535201768047335	0.02587976184355767	0.2188841201716738	0.1205357142857143	1.36734693877551
11991.24145507812	-1.389417612943526	-0.2285300662948072	9.349924559658676	-1.036168234316154	-4.770376671134984	-1.411868518838283	0.203862660944206	0.125	1.337868480725624
12010.77270507812	-0.6758851932208686	-0.4881906430172863	9.42525401596442	0.3540808419791966	-1.089598450091897	0.01797760134050291	0.2060085836909871	0.1205357142857143	1.342403628117914
12030.30395507812	-1.088937805529534	-0.2517368845709673	9.914188716218673	0.2850509333204066	1.39205704086615	-1.087356242389735	0.2317596566523605	0.1205357142857143	1.35827664399093
12049.83520507812	-1.155819303499618	-0.4227852413084383	9.45948137036998	-0.7177421451370031	0.3326409763761723	-0.7371057130981565	0.2253218884120172	0.1227678571428571	1.360544217687075
12069.36645507812	-1.532473593934534	-0.06548334486873549	9.369808373045251	-0.002905430006860929	-1.104363802478621	-0.3487267007911783	0.2145922746781116	0.140625	1.349206349206349
12088.89770507812	-1.022830090804499	-0.6463373556576117	9.425866223307009	0.656251438807989	1.424671152282636	-0.360833912962494	0.2103004291845494	0.125	1.346938775510204
12108.42895507812	-1.107639010294998	-0.4030650240384643	9.743492866234462	0.9676895802826111	0.2815264251014504	-1.422310393508672	0.2231759656652361	0.1383928571428571	1.344671201814059
12127.96020507812	-1.71558048519596	0.1686709563671112	9.313150560412332	0.03683184049085249	-2.155181327867953	0.3820006803043239	0.2210300429184549	0.1116071428571428	1.344671201814059
12147.49145507812	-1.054351615740698	-0.1409716353577446	9.516794227131061	0.06149070632901411	-1.757312128658808	1.09793962606065	0.2188841201716738	0.1428571428571428	1.344671201814059
12167.02270507812	-0.7621628083922286	-0.1539945335322394	9.889750226977966	-1.009468109629158	-1.801608185818979	-0.002173280334393381	0.2253218884120172	0.140625	1.346938775510204
12186.55395507812	-0.9496354236422677	-0.7278773831373148	9.249256649941056	-0.327693633824981	-1.445603317955438	0.007902160503054765	0.2188841201716738	0.1205357142857143	1.36734693877551
12206.08520507812	-0.6662103464684281	-0.4478833510807704	9.478177503985661	-0.4004931436486589	1.398223854152228	-1.101128792061977	0.2081545064377682	0.1227678571428571	1.349206349206349
12225.61645507812	-0.9808700781703763	-0.36392867295567	9.311497612955995	0	0	0	0.2231759656652361	0.1227678571428571	1.331065759637188
12245.14770507812	-1.598142922190867	-0.06482665158617215	9.814292219086649	0.01130880349466385	-1.086515043448858	0.01109132650438186	0.2124463519313305	0.1183035714285714	1.351473922902494
12264.67895507812	-1.014656263159183	-0.2928837403987112	9.628891622040726	-0.3210186026532321	-0.7034111966264366	0.3603259701290271	0.2339055793991416	0.125	1.35827664399093
12284.21020507812	-0.8404363351350176	-0.3653330103860236	9.553837595134416	-0.3456774684913937	-1.101280395835581	-0.3556129756272994	0.2253218884120172	0.125	1.331065759637188
12303.74145507812	-1.093149993243394	-0.473916984916051	9.314999324339382	-1.027451944295571	-1.457285263699122	-0.3656884164647475	0.2145922746781116	0.1205357142857143	1.337868480725624
12323.27270507812	-1.255561728381708	-0.3813837766555769	9.22964222592592	0.3494470696562816	0.7391087146859622	0.3593100844620934	0.2253218884120172	0.1294642857142857	1.35827664399093
12342.80395507812	-1.06580829136593	0.2631833354389119	9.642053626388963	0.3465416396494207	-0.3652550877926586	0.010583383670915	0.2210300429184549	0.1428571428571428	1.356009070294785
12362.33520507812	-1.279388216424124	-0.2397313703610113	9.571474703636927	0.0464123016694623	-0.3086254040603311	1.083151190721475	0.2210300429184549	0.1272321428571428	1.333333333333333
12381.86645507812	-0.3996864632599876	-0.7939829333471983	9.356401428039574	-1.380668615116741	-1.834222297235465	-0.7286956097616348	0.2231759656652361	0.1294642857142857	1.351473922902494
12401.39770507812	-0.9316756374667294	-0.1826024355445247	9.494094358917835	0.01044463233663683	0.3800204401793821	0.3561209184607663	0.2274678111587983	0.1361607142857143	1.335600907029479
12420.92895507812	-0.9030733219649782	-0.03137330718439063	9.695087298538635	-1.046299950120011	0.3535731420489744	-0.3841739606387173	0.2339055793991416	0.1428571428571428	1.342403628117914
12440.46020507812	-1.002961202265255	-0.2525966506036101	9.47979369591328	-1.381532786274768	-0.367686813607225	-0.3836660178052504	0.240343347639485	0.1183035714285714	1.331065759637188
12459.99145507812	-1.146794965700736	-0.1400472018581442	9.577455753747099	-0.3729288478036363	2.900456855839994	-0.03646314551447268	0.2360515021459227	0.1272321428571428	1.337868480725624
12479.52270507812	-0.6854893324783573	-0.4779935915237014	9.365259778447973	-0.6809103046461504	-1.822540351491781	-0.3551050327938325	0.2317596566523605	0.1272321428571428	1.344671201814059
12499.05395507812	-1.033696863900416	-0.3836024253003898	9.492135369633493	-0.01130880349466385	1.086515043448858	-0.01109132650438186	0.2360515021459227	0.1316964285714286	1.346938775510204
12518.58520507812	-1.430504893068526	-0.4503414157157795	9.377019919097458	-0.6959887093057022	-0.3738536268933035	-0.3698934681330084	0.2381974248927039	0.1205357142857143	1.335600907029479
12538.11645507812	-1.549233331681169	0.0861994040238824	10.02537398444345	-0.6951245381476753	-1.840389110521544	-0.7149230600893928	0.240343347639485	0.1205357142857143	1.337868480725624
12557.64770507812	-1.055111216257897	-0.7268226252111585	9.592754278850968	-0.3013064256707653	-3.980805086002773	0.03378192234661244	0.2145922746781116	0.1138392857142857	1.365079365079365
12577.17895507812	-0.8733396865439944	-0.5872261990941561	9.78294824623617	-1.029180286611625	1.475785703557358	0.3243707674480213	0.2296137339055794	0.125	1.349206349206349
12596.71020507812	-1.511509749330605	-0.3182182358400273	9.314240239182933	-1.731844027089076	0.359739955335053	-0.3979465103109594	0.2467811158798283	0.1205357142857143	1.356009070294785
12616.24145507812	-1.24815962253844	-0.5935790098352218	9.509839804864434	-1.066325043635258	-1.87300322193803	-1.441445389516634	0.2124463519313305	0.1160714285714286	1.353741496598639
12635.77270507812	-1.353083896693444	0.003429828865924338	9.798185587711755	0.7035279116354782	-0.3504897354059351	0.3772876858025963	0.2467811158798283	0.109375	1.351473922902494
12655.30395507812	-0.9241745411305285	-0.2230814869119271	9.764392888563064	0.6930832792988414	-0.7305101755853173	0.02116676734183	0.2188841201716738	0.1294642857142857	1.349206349206349
12674.83520507812	-0.9223482675466245	-0.404917931465948	9.581765530172651	-0.01044463233663683	-0.3800204401793821	-0.3561209184607663	0.2381974248927039	0.1071428571428571	1.356009070294785
12694.36645507812	-1.491640860791361	-0.4295280358365309	9.368167711789203	0.6637906411377649	0.7003277899833973	-0.353439695292906	0.2253218884120172	0.1071428571428571	1.340136054421769
12713.89770507812	-1.082224633937373	-0.6659454304283032	9.242871557002585	1.042530348955123	0.008598539100644939	0.3804768518039234	0.2231759656652361	0.1294642857142857	1.349206349206349
12733.42895507812	-1.096768196770797	0.0008666718666978649	9.676819677079679	0.3181131726463711	-0.4009526058521842	-0.7090526709202054	0.2124463519313305	0.1160714285714286	1.349206349206349
12752.96020507812	-1.055369803668008	-0.4641937767107948	9.618613019862	-0.4318270406585694	0.258162533614082	-2.169491547444276	0.2124463519313305	0.109375	1.360544217687075
12772.49145507812	-1.11184109693815	-0.4737300738791034	9.143293367284427	1.017007311958934	1.07726482351974	0.009567498003981286	0.2210300429184549	0.1383928571428571	1.340136054421769
12792.02270507812	-1.143114135534947	-0.8875587576345496	9.209372737168191	-0.02842846700304957	-0.03569751805952553	-0.7196360545911205	0.2360515021459227	0.1205357142857143	1.351473922902494
12811.55395507812	-1.186476176783261	-0.1800544301513594	9.463944208938395	0.9990234772925217	1.421587745639597	-0.3539476381263729	0.2317596566523605	0.1517857142857143	1.337868480725624
12831.08520507812	-0.9435080729222779	-0.162282090987949	9.656929741207392	1.353104319271718	0.3319892955476995	-0.33597003678587	0.2489270386266094	0.1160714285714286	1.335600907029479
12850.61645507812	-0.9947126266967043	-0.192073075753235	9.675344302323495	0.3001293379799584	-0.05662968373232757	-1.07256780705056	0.2381974248927039	0.1383928571428571	1.346938775510204
12870.14770507812	-1.26964064196259	-0.3206369269137075	9.617125420748815	-1.772758385277597	-2.626877289010716	-2.167459776110409	0.2296137339055794	0.1361607142857143	1.36281179138322
12889.67895507812	-1.104366263385789	-0.3020876504974553	9.416218175313588	-1.397788278625127	-2.956434858743849	-1.437240337848374	0.2360515021459227	0.1294642857142857	1.349206349206349
12909.21020507812	-0.9455848530597265	0.1003649394396882	9.864607754952242	-1.423311315621315	-1.887768574324753	-1.808149691648316	0.2060085836909871	0.1071428571428571	1.346938775510204
12928.74145507812	-0.895794449184341	-0.3748804393465405	9.987608183740219	-0.7461706121400526	0.2969434583166468	-1.456741767689277	0.2188841201716738	0.1294642857142857	1.356009070294785
12948.27270507812	-0.8611819966116664	-0.4762366648823683	9.587587416268676	-0.03596766933282547	0.6886458442397132	-0.7270302722607084	0.2253218884120172	0.1294642857142857	1.337868480725624
12967.80395507812	-1.317311841203556	-0.1787460735071564	9.282204528518864	-0.02002509351524664	-2.226576363987004	-1.057271428877917	0.2424892703862661	0.1160714285714286	1.365079365079365
12987.33520507812	-1.187538809421683	-0.260851884633056	9.570207472780604	1.017007311958934	1.07726482351974	0.009567498003981286	0.2103004291845494	0.125	1.351473922902494
13006.86645507812	-1.069804274937791	0.02079905285038802	10.04165198357506	-0.06353196517784801	-0.8135871574480525	-1.791695918808213	0.240343347639485	0.1339285714285714	1.356009070294785
13026.39770507812	-1.02499171993589	-0.2422753353258937	9.642029136446105	-4.584277518345429	-5.624524798271695	-4.711699295189947	0.2339055793991416	0.1316964285714286	1.342403628117914
13045.92895507812	-1.265289100701827	-0.502498624144497	9.181971294672543	-0.03046972585188347	-2.606596804166387	-1.413392347338683	0.240343347639485	0.1294642857142857	1.349206349206349
13065.46020507812	-1.227288707785019	-0.01803014322518012	9.463564656052956	-1.481032420785441	-0.4926281268155643	-2.902392208874172	0.2446351931330472	0.1205357142857143	1.344671201814059
13084.99145507812	-1.340118121104521	-0.3906392228293589	9.522016192084786	-0.7595206744835503	-1.187440784341356	-2.161589386941221	0.2274678111587983	0.1227678571428571	1.346938775510204
13104.52270507812	-1.130035186725241	-0.1200127794458789	9.942294182728199	-1.376034842793826	-3.662929462013325	-1.070028092883225	0.2360515021459227	0.1183035714285714	1.346938775510204
13124.05395507812	-0.8507051248450553	-0.4258363830949839	9.560308402872888	1.680797953096699	1.777592613503138	-0.3438721972889248	0.2296137339055794	0.109375	1.342403628117914
13143.58520507812	-1.4398989300553	-0.1169141420125783	9.296015454509551	0.9952538761276337	1.783759426789216	-0.3576447469611668	0.2231759656652361	0.1116071428571428	1.351473922902494
13163.11645507812	-1.460612268105685	-0.4500403419654079	9.326532933017431	1.00279307845741	1.059416064489977	-0.350250529291579	0.2296137339055794	0.1428571428571428	1.36734693877551
13182.64770507812	-1.135954455388658	-0.1906606574663155	9.513812885804548	1.731844027089076	-0.359739955335053	0.3979465103109594	0.2339055793991416	0.1339285714285714	1.342403628117914
13202.17895507812	-0.7417262396792274	-0.5380372830577533	9.886909682208456	0.7403597521263308	-2.505671063273888	0.7592883661069202	0.2360515021459227	0.1383928571428571	1.337868480725624
13221.71020507812	-1.225555364051623	-0.3816838402988778	9.290230282713383	0.3218827738112591	-0.7631242870018035	-0.7053555620854115	0.2339055793991416	0.1316964285714286	1.344671201814059
13241.24145507812	-1.324938190816529	-0.602912234253451	9.024431326550856	-1.055016240140594	-2.959518265386888	-1.430354063012252	0.2339055793991416	0.1227678571428571	1.346938775510204
13260.77270507812	-0.9017015965629086	-0.4657304587818458	9.557914758331677	0.3076685403097343	-0.7809730460315663	-1.065173589380972	0.2317596566523605	0.1160714285714286	1.344671201814059
13280.30395507812	-0.9696416867431322	-0.5559601487891345	9.209066633496896	0.3540808419791966	-1.089598450091897	0.01797760134050291	0.2381974248927039	0.125	1.36734693877551
13299.83520507812	-1.265438596548297	-0.4216890483779515	9.196920879319547	0	0	0	0.2231759656652361	0.125	1.353741496598639
13319.36645507812	-1.186217589373151	0.06236722639878203	9.438085467927364	-1.712996021264637	-1.451118450413044	-0.3794609661369897	0.2296137339055794	0.125	1.337868480725624
13338.89770507812	-0.8892307734386502	-0.2032289043868256	9.331240609171136	-1.720535223594412	-0.7267750881138051	-0.3868551838065776	0.2360515021459227	0.1227678571428571	1.360544217687075
13358.42895507812	-1.134764549259322	-0.3219856878407401	9.394822272870972	-1.7243048247593	-0.3646034069641857	-0.3905522926413715	0.2296137339055794	0.1227678571428571	1.349206349206349
13377.96020507812	-1.38935498630514	-0.5012579652884639	9.343661895820068	-2.123069626091906	-1.899450520068438	-2.181740268616118	0.2296137339055794	0.09821428571428571	1.353741496598639
13397.49145507812	-0.9207644196596988	-0.182711547722595	9.423380741480081	-1.373993583944992	-1.092030175906463	-0.3762718001356626	0.2253218884120172	0.1227678571428571	1.337868480725624
13417.02270507812	-0.8175189434562705	-0.5069763257169526	9.302914753790319	-2.459166633404689	-1.154174992096397	-1.836202733826267	0.2253218884120172	0.125	1.346938775510204
13436.55395507812	-0.534069623712733	-0.7724370815406505	9.529411350865139	-2.434507767566527	-0.7563057928872521	-1.12026378806994	0.240343347639485	0.1205357142857143	1.346938775510204
13456.08520507812	-1.035098892514609	-0.4037904252162681	9.632338231052682	-2.09636950140491	1.069317965247568	-0.7720450301122286	0.2210300429184549	0.1071428571428571	1.346938775510204
13475.61645507812	-1.328360433572208	-0.6230800320279144	9.366655602118731	-1.091848080631446	-0.8043369375189348	-1.812354743316576	0.2210300429184549	0.1116071428571428	1.349206349206349
