Time Stamp	Accelerometer X	Accelerometer Y	Accelerometer Z	Gyroscope X	Gyroscope Y	Gyroscope Z	Magnetometer X	Magnetometer Y	Magnetometer Z
1330.108642578125	0.7953472993977524	-9.997852462892968	-1.983709531611962	30.81592580882615	126.3631556237425	-2.805586421355867	0.1587982832618026	-0.3727678571428571	0.6666666666666666
1349.639892578125	0.2573136032508218	-9.416714550173923	-2.261972569980133	3.03013267120353	2.471753590200457	-0.6835393429095887	0.1716738197424893	-0.4129464285714285	0.6394557823129252
1369.171142578125	0.390413927723723	-9.993803129176229	-2.306698894821281	-1.770717126428763	-0.05597800290385468	-1.473703483362846	0.1545064377682404	-0.4084821428571428	0.653061224489796
1388.702392578125	-0.1853595124869038	-9.654712061440788	-1.872212016615741	-4.677102121684354	-5.007273990151033	-6.878001676632897	0.1652360515021459	-0.3772321428571428	0.6598639455782314
1408.233642578125	0.3377406782684357	-9.427619831025108	-2.141414765619083	-2.851256403565545	-1.946829983871647	-3.274966900175041	0.1652360515021459	-0.4040178571428571	0.653061224489796
1427.764892578125	0.2945240924383085	-9.46759170557085	-1.901388835667584	0.01130880349466385	-1.086515043448858	0.01109132650438186	0.1545064377682404	-0.3928571428571428	0.6507936507936508
1447.296142578125	0.0006888105645269669	-9.909097797196557	-2.109697382983309	-0.02552303699618864	1.068666284419095	-0.3709093537999421	0.1566523605150215	-0.390625	0.6235827664399093
1466.827392578125	-0.3329286930988541	-9.380509096907396	-2.421416404400303	-2.797304899566307	-2.979798750231217	-2.184421491783978	0.1630901287553648	-0.3816964285714285	0.6462585034013606
1486.358642578125	0.3550459150621323	-9.306580762180927	-1.831122118458128	-0.3390024373196448	-0.35908827450658	-0.003189166001327095	0.1695278969957082	-0.3883928571428571	0.6462585034013606
1505.889892578125	-0.3387327683273459	-8.966309642013698	-1.841008881551125	-1.394882848618266	-1.852071056265228	-1.088513637057195	0.1437768240343348	-0.3727678571428571	0.6575963718820862
1525.421142578125	0.5728884919588636	-10.0158298950206	-2.186808379559822	-0.713108372814088	-1.496066188401687	-1.078438196219747	0.1609442060085837	-0.3950892857142857	0.6507936507936508
1544.952392578125	-0.04641470850268103	-9.534889388268509	-2.50138629258904	-0.3833734801402732	2.520436415660612	-0.3925840639752389	0.167381974248927	-0.3883928571428571	0.6462585034013606
1564.483642578125	0.1961251099603072	-9.476708725847079	-2.265572220520522	-1.502785856616742	0.2138664764539115	-3.26960445383932	0.1545064377682404	-0.3794642857142857	0.6689342403628118
1584.014892578125	0.01296771334534419	-9.495079172082951	-2.317179497799725	-0.3712005054875823	-0.03261411141648625	-0.7265223294272415	0.1566523605150215	-0.3973214285714285	0.6439909297052154
1603.546142578125	0.1313083120716824	-9.718484800292435	-1.90634141124987	-3.54638094171322	-3.787219094393191	-3.989889960264434	0.1630901287553648	-0.3928571428571428	0.6439909297052154
1623.077392578125	0.03322044257147011	-9.404372608466119	-2.301636093881705	-1.066325043635258	-1.87300322193803	-1.441445389516634	0.1394849785407725	-0.3638392857142857	0.655328798185941
1642.608642578125	-0.3327145503998565	-9.400713258536406	-2.442830674300064	0.00667503117174888	0.7421921213290015	0.3524238096259723	0.1566523605150215	-0.3794642857142857	0.6349206349206349
1662.139892578125	0.1737875197401669	-9.628000501460029	-2.072629525037097	-0.7026637404774512	-1.116045748222305	-0.7223172777589807	0.1437768240343348	-0.4084821428571428	0.655328798185941
1681.671142578125	0.08777051219305873	-9.72815043239466	-1.63419407644873	0.0008641711580270224	-1.46653548362824	-0.3450295919563844	0.1437768240343348	-0.3861607142857142	0.6394557823129252
1701.202392578125	0.3525812538095183	-9.4075662165785	-1.58465599319673	0.3503112408143086	-0.727426768942278	0.01428049250570896	0.1630901287553648	-0.3928571428571428	0.6507936507936508
1720.733642578125	0.1864906674906963	-9.416006320816322	-2.322536136824737	-1.130721179971133	-1.220054895757842	-2.888111716368463	0.1502145922746781	-0.3794642857142857	0.6485260770975056
1740.264892578125	0.2832835797262155	-9.255358088322515	-1.797745727723594	0.02261760698932771	-2.173030086897716	0.02218265300876372	0.1587982832618026	-0.3995535714285714	0.6485260770975056
1759.796142578125	0.3372295640906396	-9.922564214832827	-2.090303347839465	-2.54358786325581	-2.727803029903213	-4.340140489556013	0.1566523605150215	-0.3928571428571428	0.6303854875283447
1779.327392578125	-0.1955777968434044	-9.462690686678034	-1.870791744230985	-1.070094644800146	-1.510831540788411	-1.445142498351428	0.1459227467811159	-0.3816964285714285	0.6462585034013606
1798.858642578125	0.05442671287237783	-9.556099822684279	-2.381446797441865	-2.687458540587112	0.02678034705563898	-7.248261578598846	0.1459227467811159	-0.3973214285714285	0.671201814058957
1818.389892578125	0.3273345139967768	-9.932566274432899	-2.1212065017185	-0.2963597368150704	-0.3055419974172918	1.076264915885354	0.1437768240343348	-0.3928571428571428	0.6485260770975056
1837.921142578125	0.58335930308305	-9.955328542525782	-2.213481328713163	-0.04264270050457435	-0.05354627708928829	-1.079454081886681	0.1437768240343348	-0.3883928571428571	0.6439909297052154
1857.452392578125	0.1750279312230398	-10.01185128941324	-2.196670673324391	-0.3682950754807214	1.071749691062134	-0.3777956286360631	0.1759656652360515	-0.3973214285714285	0.6417233560090703
1876.983642578125	-0.2121173724774775	-9.513030341426742	-2.257650507354292	0.1533532306417956	1.593589890747904	-4.329415596884571	0.1523605150214592	-0.4107142857142857	0.655328798185941
1896.514892578125	0.2749218721657413	-9.800729016701458	-1.981983134941482	-0.9810396426261089	-1.765910667759453	0.7174627742567271	0.1373390557939914	-0.4040178571428571	0.6598639455782314
1916.046142578125	0.5311244400964653	-9.783089022178743	-2.09203584638123	-1.074728417123061	0.3178756239894489	-1.103810015229838	0.1437768240343348	-0.390625	0.6666666666666666
1935.577392578125	-0.1313711036255086	-9.887575177852634	-2.169012086428734	-1.709226420099749	-1.813290131562663	-0.3757638573021957	0.148068669527897	-0.3794642857142857	0.6485260770975056
1955.108642578125	0.7249082043245094	-9.795127869922034	-2.082657167144817	-0.5976661624858358	-4.286347083420065	1.110046838231966	0.1416309012875537	-0.3928571428571428	0.6689342403628118
1974.639892578125	-0.07839886247728124	-9.605276617435834	-2.364195384924938	0.3030347679868193	1.047734118746293	-0.7238411062593813	0.1609442060085837	-0.3839285714285714	0.653061224489796
1994.171142578125	0.3674318891924483	-9.912765227982836	-2.049311368224425	-0.3712005054875823	-0.03261411141648625	-0.7265223294272415	0.1630901287553648	-0.390625	0.6462585034013606
2013.702392578125	0.6686914992650541	-9.552141460447197	-1.563027477525822	-3.171410835060751	-4.116776664126324	-3.259670522002398	0.1609442060085837	-0.3928571428571428	0.655328798185941
2033.233642578125	0.3404780684301504	-9.78118255846208	-2.415153781790553	0.7064333416423392	0.7538740670726856	0.7260143865937746	0.1566523605150215	-0.3816964285714285	0.63718820861678
2052.764892578125	-0.05633400116624158	-9.504487165038846	-2.52986518949829	0.6487122364782131	2.149014514581875	-0.3682281306320819	0.1459227467811159	-0.3928571428571428	0.6349206349206349
2072.296142578125	0.2454367230841604	-9.659020023796501	-2.094692716579305	-1.895739797935625	0.8877469683069011	-4.36333902823171	0.1394849785407725	-0.3883928571428571	0.6485260770975056
2091.827392578125	-0.2594168523164098	-9.653971488042494	-2.6297433397876	-2.140189289600291	-3.021663081576821	-2.890284996702857	0.1609442060085837	-0.3861607142857142	0.6462585034013606
2111.358642578125	0.1073080443842383	-9.62733570670647	-2.567539132301378	0.3419078673265057	1.463452076985201	0.3519158667925055	0.1459227467811159	-0.3883928571428571	0.6439909297052154
2130.889892578125	-0.03989745645338436	-9.787479813314256	-2.132703334253401	-0.3682950754807214	1.071749691062134	-0.3777956286360631	0.1437768240343348	-0.390625	0.6485260770975056
2150.421142578125	0.4771865365886073	-9.802751663345687	-1.800286311921953	0.325652374976147	-1.125295968151423	-0.7016584532506176	0.1416309012875537	-0.4040178571428571	0.6349206349206349
2169.952392578125	0.6591338249328197	-9.451035782693776	-1.627668207567687	0.07947454099542683	-2.101635050778665	1.461454762191005	0.1545064377682404	-0.4017857142857142	0.6462585034013606
2189.483642578125	0.1546499487201417	-9.557102055042758	-2.199688749565192	0.9262239674688437	4.265414917747263	-1.462978590691405	0.1287553648068669	-0.390625	0.6598639455782314
2209.014892578125	0.01100002477153598	-9.414251414389133	-2.120410640418903	0.9839450726329699	2.870274470238074	-0.3687360734655487	0.1459227467811159	-0.3995535714285714	0.6575963718820862
2228.546142578125	-0.4173658931873195	-9.420068765310551	-2.140961701676209	-0.05772110516412615	1.395140447509189	-1.094242517225857	0.1523605150214592	-0.3861607142857142	0.6394557823129252
2248.077392578125	-0.4965222535099383	-9.338469120899246	-2.388590975536783	-2.029380851594954	-3.98323681181734	-0.360467479129553	0.1459227467811159	-0.3839285714285714	0.6621315192743764
2267.608642578125	0.4350467248958926	-9.448794911693405	-1.667937795711705	-0.6278229718049394	-1.38897363422311	1.080469967553614	0.167381974248927	-0.3928571428571428	0.6621315192743764
2287.139892578125	0.2353800558589787	-9.568010366215157	-2.109434157326445	-0.7177421451370031	0.3326409763761723	-0.7371057130981565	0.1630901287553648	-0.3772321428571428	0.6439909297052154
2306.671142578125	0.466451077411886	-9.590523096632706	-1.747148557515134	-1.76231375294096	-2.246856848831333	-1.811338857649643	0.148068669527897	-0.4017857142857142	0.6485260770975056
2326.202392578125	0.2826552931282131	-9.891715441820171	-1.734917067923352	0.3021705968287923	2.514269602374533	-0.3788115143029969	0.1523605150214592	-0.390625	0.6507936507936508
2345.733642578125	0.3572721910460508	-9.650037368375108	-2.053749716849981	0.5947607324789748	3.181983280941445	-1.458773539023144	0.1459227467811159	-0.40625	0.6462585034013606
2365.264892578125	0.2222668046377274	-9.769899435723147	-1.818517198466621	0.2954955656570434	1.772077481045532	-0.7312353239289692	0.1587982832618026	-0.3973214285714285	0.6507936507936508
2384.796142578125	0.04268720726733761	-9.859012730658534	-2.227904400203149	0.007539202329775903	-0.7243433622992387	0.007394217669587907	0.1716738197424893	-0.3861607142857142	0.6417233560090703
2404.327392578125	0.5324699027146956	-10.00532469902715	-2.226582108204255	-1.379804443958714	-3.300757780863705	-1.073725201718019	0.148068669527897	-0.3816964285714285	0.6507936507936508
2423.858642578125	0.2363113745782042	-9.941757053139723	-2.202566029248989	1.97715768991177	2.083134610920429	-1.420137113174278	0.1459227467811159	-0.3995535714285714	0.6575963718820862
2443.389892578125	0.4185818971850546	-9.792064606850641	-2.062271351158513	-1.406191652112929	-0.7655560128163699	-1.099604963561577	0.1523605150214592	-0.390625	0.6303854875283447
2462.921142578125	0.2810633643847214	-9.427053057886273	-1.575724193574187	-3.171410835060751	-4.116776664126324	-3.259670522002398	0.1695278969957082	-0.3816964285714285	0.6621315192743764
2482.452392578125	0.150837804635156	-9.769185145723121	-1.81847434106662	-5.348431965151894	-4.983258417835192	-6.531956199009579	0.1523605150214592	-0.3973214285714285	0.6780045351473923
2501.983642578125	0.07078648944785856	-9.374445238631855	-1.976608128459326	-0.7394955809683037	1.039135579645648	-1.104317958063305	0.1587982832618026	-0.3973214285714285	0.6439909297052154
2521.514892578125	-0.09535658120978203	-9.797026232167703	-1.688831674940163	0.2482190928295541	3.547238368734103	-1.469356922694059	0.1587982832618026	-0.3794642857142857	0.653061224489796
2541.046142578125	0.07169356559738617	-9.707787642726684	-2.067315743412086	-3.179814208548553	-1.925897818198845	-2.922035147715602	0.1716738197424893	-0.3794642857142857	0.6326530612244898
2560.577392578125	0.4075858303840815	-9.650540504768488	-1.983072834326514	-1.401557879790015	-2.594263177594229	-1.440937446683167	0.1502145922746781	-0.3861607142857142	0.655328798185941
2580.108642578125	-0.04777027219161872	-9.969219266975054	-2.365829923695271	2.399404269391729	-0.02158384650127492	0.04820392385284734	0.148068669527897	-0.3995535714285714	0.6598639455782314
2599.639892578125	0.6582853349933951	-9.552037398804481	-1.542819213625239	-2.788901526078504	-5.170677596158695	-2.522056866070775	0.1695278969957082	-0.3794642857142857	0.6122448979591837
2619.171142578125	0.4044423771799279	-9.630307050034427	-1.668727513911157	-2.129744657263654	-2.641642641397439	-2.53416407824209	0.1630901287553648	-0.3861607142857142	0.6598639455782314
2638.702392578125	0.03058002268854677	-9.212427012348099	-2.037594105589371	-4.729012366834757	-1.403405937684603	-7.274790792276396	0.1459227467811159	-0.3839285714285714	0.6485260770975056
2658.233642578125	0.09337054579326035	-9.465580170104401	-2.19419743646889	1.710090591257776	0.346754647934423	0.03073426534581129	0.1566523605150215	-0.3816964285714285	0.6326530612244898
2677.764892578125	0.5606075689639047	-9.753080823164389	-1.979124243329258	0.01507840465955181	-1.448686724598477	0.01478843533917581	0.1437768240343348	-0.3883928571428571	0.6462585034013606
2697.296142578125	0.2143657059015123	-9.567800222715583	-2.04881548811041	-0.4602555076616189	0.2224650155545565	-2.889127602035397	0.148068669527897	-0.421875	0.6485260770975056
2716.827392578125	-0.1018677726166543	-9.55453687782939	-2.058120697518249	-0.3854147389891071	-0.05046287044624902	-1.086340356722802	0.1695278969957082	-0.3995535714285714	0.6439909297052154
2736.358642578125	0.07315418042168118	-10.12194366301634	-2.213377225841587	2.230659717557602	-5.670457266014043	2.979015608737911	0.1416309012875537	-0.375	0.63718820861678
2755.889892578125	0.5093545300500828	-9.702063242270199	-1.955861168273586	-2.13728385959343	-1.917299279098201	-2.541558295911678	0.1394849785407725	-0.390625	0.6621315192743764
2775.421142578125	0.3056454125160538	-9.144470595539303	-1.993112680176803	-2.894763275228147	-0.5338407773326955	-4.009391390105337	0.1695278969957082	-0.3839285714285714	0.6349206349206349
2794.952392578125	0.2606914425242478	-9.487455399273731	-1.579348334057434	0.3059401979936803	2.152097921224914	-0.3751144054682029	0.1587982832618026	-0.3928571428571428	0.6462585034013606
2814.483642578125	0.2345982329862233	-9.780123760107641	-2.031251870050903	0.02088926467327366	0.7600408803587642	0.7122418369215325	0.1587982832618026	-0.390625	0.6394557823129252
2834.014892578125	0.07144911968626626	-9.637078127560502	-2.042871152300095	0.2256014858402264	5.720268455631819	-1.491539575702823	0.167381974248927	-0.3861607142857142	0.6462585034013606
2853.546142578125	0.256123697121486	-9.790440024850005	-2.142981957046556	-1.855689610905132	5.34089969628091	-2.248796170475876	0.1587982832618026	-0.3794642857142857	0.655328798185941
2873.077392578125	-0.3360277015918949	-9.602700329044689	-2.111515555096217	-1.81218273924253	3.927910489741958	-1.51437168054558	0.1587982832618026	-0.3861607142857142	0.6507936507936508
2892.608642578125	0.07047133604178661	-9.859290571946278	-1.94509278785213	0.1455990196473559	-5.687654344215333	2.218061905130065	0.167381974248927	-0.390625	0.63718820861678
2912.139892578125	-0.0601461452512273	-9.716570255719207	-2.148650780999718	0.02348177814735473	-3.639565570525956	-0.3228469389476207	0.1566523605150215	-0.3839285714285714	0.6598639455782314
2931.671142578125	-0.05884916777239273	-9.352946861857632	-2.278348528883175	-2.485002586933657	-5.589478961040642	-3.59092756428654	0.1545064377682404	-0.3772321428571428	0.6575963718820862
2951.202392578125	-0.3473530632979304	-9.754102226942781	-1.999387547757981	-6.444362563481008	-10.92939392756785	-9.73182352782128	0.1781115879828326	-0.3772321428571428	0.6394557823129252
2970.733642578125	0.02360418202913258	-9.879023920608171	-2.360418202913258	1.128367004589519	-6.85481464371236	0.8105399469605687	0.1523605150214592	-0.3727678571428571	0.6507936507936508
2990.264892578125	0.1425084205009456	-9.526677609457536	-2.005944090910887	0.7771915926171832	-4.660852391141842	1.141289046411244	0.1416309012875537	-0.3839285714285714	0.6462585034013606
3009.796142578125	0.5210980760834061	-9.742584718134571	-2.1098076083406	0.02638720815421566	-2.535201768047335	0.02587976184355767	0.1394849785407725	-0.4040178571428571	0.6666666666666666
3029.327392578125	0.2794027071315592	-9.861379885657175	-2.430066631523269	-0.7612490167996044	1.745630182915124	-1.471530203028453	0.1587982832618026	-0.4017857142857142	0.6394557823129252
3048.858642578125	0.008195967543152202	-9.959677919271392	-1.840004917580526	-3.374081797378869	-6.506104953292518	-0.3621328166304796	0.167381974248927	-0.3861607142857142	0.6326530612244898
3068.389892578125	0.02438398468774651	-10.50529434489738	-2.438398468774651	-1.414595025600732	1.425322833111109	-0.7619695892747804	0.1824034334763948	-0.3973214285714285	0.6507936507936508
3087.921142578125	-0.2615501984498199	-9.63374813437914	-2.416408726446587	-5.020738331326912	-3.537655099879754	-6.539858359512634	0.1523605150214592	-0.3883928571428571	0.6507936507936508
3107.452392578125	0.006660604795622181	-9.252591858573211	-1.686468642827524	0.003769601164887951	-0.3621716811496193	0.003697108834793953	0.1630901287553648	-0.3883928571428571	0.6417233560090703
3126.983642578125	-0.2123557577461729	-9.452421896967994	-2.233811980484746	0.3314632349898689	1.083431636805819	-0.004205051668260811	0.1566523605150215	-0.3839285714285714	0.653061224489796
3146.514892578125	0.01814354320469358	-9.363817799068412	-1.814354320469358	1.037896576632208	1.837305703878505	0.7218093349255138	0.1587982832618026	-0.3883928571428571	0.6417233560090703
3166.046142578125	0.1848482333936675	-9.708919189404645	-2.158292727121855	-0.003769601164887951	0.3621716811496193	-0.003697108834793953	0.1587982832618026	-0.4196428571428571	0.673469387755102
3185.577392578125	-0.1405914021961147	-9.675361762745718	-2.26739039263343	-2.493405960421461	-3.398600115113164	-3.253292189999744	0.1416309012875537	-0.4040178571428571	0.655328798185941
3205.108642578125	0.2445316671487743	-10.00244531667149	-2.004187123040694	-2.563515048902941	-7.455996737789353	2.541275277910626	0.1695278969957082	-0.3772321428571428	0.6485260770975056
3224.639892578125	0.0106121436563705	-9.272833394163838	-2.081622528902356	-3.229996111382904	-1.255100732988895	-4.00888344727187	0.1652360515021459	-0.3660714285714285	0.6417233560090703
3244.171142578125	-0.1376378491212609	-10.22084584373101	-2.562745700118811	1.02164108428185	-0.7514423412581193	-0.3317649851176092	0.1373390557939914	-0.4017857142857142	0.6258503401360545
3263.702392578125	0.01052325423414507	-9.798085030522143	-2.072733586679814	-3.301931450048555	0.1221909554905314	-5.462943991793287	0.1351931330472103	-0.3928571428571428	0.655328798185941
3283.233642578125	0.02396580036045873	-9.808320466084414	-2.396580036045873	0.6553872676499619	2.891206635910876	-0.01580432100610953	0.1587982832618026	-0.3839285714285714	0.6439909297052154
3302.764892578125	0.08412600465295639	-9.718012977218248	-2.290151485703802	2.47133960805738	-1.398875534980701	1.502264468374264	0.1523605150214592	-0.3794642857142857	0.6598639455782314
3322.296142578125	-0.08900300773480584	-9.4435544143671	-2.324189022437784	0.6742352734744016	1.080348230162779	0.002681223167860238	0.1759656652360515	-0.4040178571428571	0.653061224489796
3341.827392578125	-0.2948979969699237	-9.451596474575757	-2.142853364232121	-1.631793137953156	-6.48582446844819	0.3919346121412461	0.1545064377682404	-0.3816964285714285	0.6394557823129252
3361.358642578125	0.7262476063003153	-9.502211971012498	-2.216597364725397	-1.067189214793285	-0.4064677383097898	-1.09641579756025	0.1394849785407725	-0.375	0.6417233560090703
3380.889892578125	-0.5086900445129737	-9.600973705615477	-2.192220038498545	-0.1020921479847545	4.274665137676381	-1.483637415199768	0.1566523605150215	-0.390625	0.6643990929705216
3400.421142578125	0.3928240844233769	-9.630190867106862	-1.527306401521361	-2.216758400588857	0.1843357716804646	-4.003013058102683	0.1502145922746781	-0.3883928571428571	0.6598639455782314
3419.952392578125	-0.1681856308412639	-9.654883800257245	-2.569192017914425	0.7055691704843121	2.220409550700926	1.071043978550159	0.1630901287553648	-0.375	0.6485260770975056
3439.483642578125	0.07483297837325677	-9.889637218672622	-2.381257020999145	0.07484076867251187	-0.2729278860008055	1.802787245312595	0.1587982832618026	-0.375	0.6757369614512472
3459.014892578125	0.02257589303111577	-9.84871060741516	-2.257589303111577	-0.254894124001303	-4.289430490063104	1.116933113068087	0.1394849785407725	-0.40625	0.6507936507936508
3478.546142578125	0.4404043327991158	-9.79228283120678	-2.203698586034023	0.02842846700304957	0.03569751805952553	0.7196360545911205	0.1566523605150215	-0.3794642857142857	0.655328798185941
3498.077392578125	0.1925311490026021	-10.05243036199508	-1.906176124750008	-0.7177421451370031	0.3326409763761723	-0.7371057130981565	0.1459227467811159	-0.3794642857142857	0.6621315192743764
3517.608642578125	0.0003756773725965008	-9.555559312329281	-2.078384063790262	0.9914842749627457	2.145931107938835	-0.3613418557959608	0.1587982832618026	-0.3839285714285714	0.6417233560090703
3537.139892578125	-0.2008667586946771	-9.57374890817063	-2.362303722369026	-0.02175343583130069	0.7064946032694759	-0.3672122449651481	0.1609442060085837	-0.375	0.6507936507936508
3556.671142578125	-0.04651369899561388	-9.706605570080752	-2.491487243295754	0.1942675888303159	4.580207135093673	-2.559902331085122	0.1502145922746781	-0.3772321428571428	0.6507936507936508
3576.202392578125	-0.4451156783213633	-9.308680156348101	-2.427207678067755	0.3891843401539951	-0.3117088107033704	1.090037465557596	0.1652360515021459	-0.375	0.63718820861678
3595.733642578125	0.3341305143687386	-10.316472618275	-2.800806538914682	0.3578504431440845	-1.451770131241517	0.02167471017529686	0.1695278969957082	-0.4084821428571428	0.655328798185941
3615.264892578125	0.05214791132078064	-9.798501277093008	-2.153566642282146	-1.181118091470147	-8.554845407810367	2.579911703759492	0.1587982832618026	-0.4084821428571428	0.6575963718820862
3634.796142578125	0.213796005513613	-9.12335008126726	-1.99184544932048	-0.656251438807989	-1.424671152282636	0.360833912962494	0.1394849785407725	-0.4040178571428571	0.6485260770975056
3654.327392578125	-0.1330680835043576	-9.584527905023544	-1.999314098543837	-1.403286222106068	0.3388077896622509	-0.7508782627703986	0.1394849785407725	-0.4017857142857142	0.655328798185941
3673.858642578125	0.1714824554047304	-10.16333098617021	-1.842123091493445	-7.029229918248594	-6.76085103133833	-6.188084001720654	0.1545064377682404	-0.3883928571428571	0.6417233560090703
3693.389892578125	-0.2753624437640256	-9.512397890713876	-2.055592358291318	-1.160877989290236	1.677318553439112	-2.917688587046815	0.1545064377682404	-0.4017857142857142	0.63718820861678
3712.921142578125	-0.09483536596127842	-9.150566797855541	-1.740953199790525	-1.120276547634496	-0.8400344555784602	-2.531990797907697	0.1394849785407725	-0.3883928571428571	0.6621315192743764
3732.452392578125	0.2330689308811178	-9.588189275167398	-1.878321659540347	0.03683184049085249	-2.155181327867953	0.3820006803043239	0.167381974248927	-0.3794642857142857	0.655328798185941
3751.983642578125	0.2952554099575268	-9.508003059150083	-1.974520587589409	-1.373993583944992	-1.092030175906463	-0.3762718001356626	0.1566523605150215	-0.3638392857142857	0.6303854875283447
3771.514892578125	0.2727319600363695	-9.51787883475188	-1.762991922004305	-0.3616200443089725	1.813941812391136	-0.02537181901009081	0.148068669527897	-0.4017857142857142	0.653061224489796
3791.046142578125	0.1048070192770775	-9.667714736859438	-2.317436621585304	-0.6411730341484372	-2.873357876881113	0.3756223483016697	0.148068669527897	-0.3928571428571428	0.6439909297052154
3810.577392578125	0.4969503739924934	-10.075676574447	-1.735853725779951	-2.113802081446075	-5.556864849624157	-2.864405234859299	0.1545064377682404	-0.4017857142857142	0.6462585034013606
3830.108642578125	0.4315395919174113	-10.00431539591917	-2.337632661128888	0.9479774033001445	3.558920314477787	-1.095766345726257	0.167381974248927	-0.3839285714285714	0.653061224489796
3849.639892578125	-0.08252211954005594	-9.635538415168238	-1.951869678647468	0	0	0	0.1437768240343348	-0.3861607142857142	0.653061224489796
3869.171142578125	0.5060029947893561	-9.671726696614561	-1.620707642200914	0.3047631103028733	-1.885336848510187	-1.41390029017215	0.1587982832618026	-0.390625	0.6507936507936508
3888.702392578125	0.2582570432548961	-9.810663378513357	-2.356316570387569	0.2043993046341729	-0.5437426780902863	-3.587596889284687	0.1545064377682404	-0.390625	0.6621315192743764
3908.233642578125	0.09823728288896223	-9.324214696061214	-1.660462982773774	2.085060697910246	0.01719707820128988	0.7609537036078468	0.1523605150214592	-0.4040178571428571	0.6485260770975056
3927.764892578125	0.4608813057949467	-10.07531588376502	-2.210579559086507	0.3372740950035907	3.29215924176306	0.6932483499140959	0.1523605150214592	-0.3794642857142857	0.6462585034013606
3947.296142578125	0.1985271445745352	-9.608045877506353	-2.505775681943311	-1.017007311958934	-1.07726482351974	-0.009567498003981286	0.1652360515021459	-0.3950892857142857	0.6507936507936508
3966.827392578125	0.2252102566418738	-9.96184806216238	-2.112862398881258	-0.3598917019929185	-1.119129154865344	-0.7154310029228597	0.1523605150214592	-0.4017857142857142	0.6439909297052154
3986.358642578125	-0.2187133716494321	-9.967509835980477	-1.598050590158829	-6.000913802794996	-6.770101251267448	-6.167425177212291	0.167381974248927	-0.3705357142857142	0.6485260770975056
4005.889892578125	0.2142182302691837	-9.65870783886835	-2.034067924877556	0.2499474351456082	0.6141674014776228	-2.159416106606828	0.1545064377682404	-0.3928571428571428	0.6598639455782314
4025.421142578125	-0.06948159602789816	-9.312436497171035	-2.235513866597939	-3.380541819885954	0.7572905226409563	-7.269428345940676	0.1566523605150215	-0.3839285714285714	0.6621315192743764
4044.952392578125	0.3789915957388962	-9.98358789575537	-2.184873859603908	-0.02175343583130069	0.7064946032694759	-0.3672122449651481	0.1416309012875537	-0.3839285714285714	0.6462585034013606
4064.483642578125	0.1331123633000302	-10.03163415393603	-2.086746534084647	0.02552303699618864	-1.068666284419095	0.3709093537999421	0.1566523605150215	-0.3816964285714285	0.6575963718820862
4084.014892578125	0.07486126137123758	-9.768425380290482	-2.384085320797227	-0.327693633824981	-1.445603317955438	0.007902160503054765	0.1738197424892704	-0.390625	0.6417233560090703
4103.546142578125	0.1557287430716957	-9.839941125814557	-2.307568184720591	-1.701687217769973	-2.537633493861902	-0.3683696396326078	0.167381974248927	-0.3995535714285714	0.6462585034013606
4123.077392578125	-0.4190749943510174	-10.1069203611676	-1.97005158530642	-5.582436824479924	-8.512648027539532	-4.702781249019959	0.1502145922746781	-0.4040178571428571	0.6303854875283447
4142.608642578125	0.1662540999777023	-9.870349409686648	-2.339695712055947	0.3465416396494207	-0.3652550877926586	0.010583383670915	0.1716738197424893	-0.3861607142857142	0.6507936507936508
4162.139892578125	0.327455726845266	-9.629537183531081	-2.133327786567421	0.2783759021486577	0.6498649195371483	-1.439780052015708	0.1566523605150215	-0.3816964285714285	0.6190476190476191
4181.671142578125	0.6118484865928779	-9.783896262643708	-2.001175189900037	0.2424082328158323	1.338510763776862	-2.166810324276416	0.1523605150214592	-0.3727678571428571	0.6621315192743764
4201.202392578125	0.4084666437497698	-10.27681193916477	-2.071154170895341	0.3021705968287923	2.514269602374533	-0.3788115143029969	0.1566523605150215	-0.3816964285714285	0.6439909297052154
4220.733642578125	0.2036585297227718	-10.24446082772147	-1.998506033501672	-3.881613777867977	-4.508479050049391	-3.989382017430966	0.1416309012875537	-0.3794642857142857	0.6598639455782314
4240.264892578125	0.2390386636692114	-9.941784326030632	-2.475294938349717	-0.6411730341484372	-2.873357876881113	0.3756223483016697	0.1630901287553648	-0.3928571428571428	0.6439909297052154
4259.796142578125	-0.0592855340269539	-9.635770781023369	-2.234711903427059	-1.408232910961763	-3.336455298923231	-1.79336125630914	0.1609442060085837	-0.3861607142857142	0.653061224489796
4279.327392578125	0.2616974679378482	-9.820798792861199	-2.700359038682783	-1.394882848618266	-1.852071056265228	-1.088513637057195	0.1759656652360515	-0.3772321428571428	0.6621315192743764
4298.858642578125	0.3290921002998704	-9.831573749285829	-2.296965132027857	-0.3030347679868193	-1.047734118746293	0.7238411062593813	0.148068669527897	-0.3928571428571428	0.6485260770975056
4318.389892578125	0.04030133436624161	-9.586261599202251	-1.989317110093549	-1.355145578120552	-2.90288858165456	-0.3577862559616928	0.1502145922746781	-0.3883928571428571	0.6485260770975056
4337.921142578125	0.03141841155726383	-9.767990951792342	-2.121432992461076	0.2925901356501825	0.6677136785669111	-1.079962024720148	0.1587982832618026	-0.3816964285714285	0.653061224489796
4357.452392578125	0.1044959062992886	-9.990943948961984	-2.286325323806406	0.3097097991585682	1.789926240075295	-0.3714172966334089	0.1459227467811159	-0.3772321428571428	0.6394557823129252
4376.983642578125	0.2076928973633211	-9.729349656246363	-2.4019427975566	-1.059650012463509	-1.130811100609028	-1.089021579890662	0.1545064377682404	-0.3861607142857142	0.6462585034013606
4396.514892578125	0.5528438447893107	-10.11663954955901	-2.223159989135157	-0.08237997100228778	0.9972712483000441	-1.810181462982183	0.1523605150214592	-0.3950892857142857	0.6326530612244898
4416.046142578125	-0.2926717209860052	-9.795053080769941	-2.365480962623975	-1.416636284449566	-1.145576452995752	-1.455725882022343	0.1523605150214592	-0.3816964285714285	0.6258503401360545
4435.577392578125	0.1365285454132844	-10.00136528545413	-2.428364745410077	-1.022818171972656	-3.285992428476982	-0.7070208995863381	0.1759656652360515	-0.390625	0.6507936507936508
4455.108642578125	0.6762753831521958	-10.23908598615476	-2.321415866239993	-0.6675602423026528	-0.3381561088337781	0.3497425864581121	0.1716738197424893	-0.4017857142857142	0.6394557823129252
4474.639892578125	0.1233203441273833	-9.708303910511983	-2.127952780085264	-0.4222465794799596	2.104718457421704	-1.468341037027126	0.1523605150214592	-0.390625	0.6598639455782314
4494.171142578125	0.3258516768169255	-9.649723163232817	-1.972922783733363	-0.01421423350152478	-0.01784875902976276	-0.3598180272955602	0.1630901287553648	-0.3950892857142857	0.655328798185941
4513.702392578125	0.390484635218675	-9.943298785746126	-2.313769644316485	0.03596766933282547	-0.6886458442397132	0.7270302722607084	0.1587982832618026	-0.3772321428571428	0.6507936507936508
4533.233642578125	0.2573883511740567	-9.70964459058245	-2.269447362303634	-1.034991146625347	-0.7329419013998837	-0.3730826341343355	0.1695278969957082	-0.3772321428571428	0.6417233560090703
4552.764892578125	0.2869664301061461	-9.669536330967729	-2.16603076571665	-4.605166783018703	-6.38456567863046	-5.42394113211148	0.1630901287553648	-0.3571428571428571	0.6394557823129252
4572.296142578125	-0.3345287026989117	-9.744129460447761	-2.261415444394542	-1.417500455607593	0.3209590306324882	-1.110696290065959	0.1587982832618026	-0.3883928571428571	0.63718820861678
4591.827392578125	0.07630773469654217	-9.485611562195453	-2.528732653327687	-1.019912741965795	-2.181628625998361	-0.3582941987951597	0.1545064377682404	-0.40625	0.6417233560090703
4611.358642578125	-0.008660781711134291	-9.313044705314203	-2.195146318682489	0.01044463233663683	0.3800204401793821	0.3561209184607663	0.1459227467811159	-0.3839285714285714	0.6303854875283447
4630.889892578125	-0.2024687885088762	-9.76565207979168	-2.202100740949117	-5.6903398324784	-6.446710494820392	-6.883872065802084	0.1609442060085837	-0.3950892857142857	0.6303854875283447
4650.421142578125	-0.02692966065032011	-9.343165046827842	-2.409074751294519	-0.7110671139652541	1.074833097705174	-0.3846819034721842	0.1545064377682404	-0.3883928571428571	0.6417233560090703
4669.952392578125	0.2718612065125287	-9.921910531257048	-2.696324732885524	-0.6771407034812625	-2.1847120326414	-0.3514079239590386	0.1695278969957082	-0.390625	0.6462585034013606
4689.483642578125	0.05124487559953602	-9.808593256836804	-2.063263070157683	-1.110696086455886	1.006521468229162	-1.830840287490546	0.1695278969957082	-0.3861607142857142	0.6621315192743764
4709.014892578125	-0.5394640902168233	-9.499655864148339	-2.176039957909507	-0.02929263816107659	1.430837965568715	-0.374606462634736	0.1523605150214592	-0.3683035714285714	0.6485260770975056
4728.546142578125	-0.476794779960599	-9.550787607755952	-2.320522003940105	0.3068043691517073	0.6855624375966739	-0.7201439974245873	0.1523605150214592	-0.3861607142857142	0.63718820861678
4748.077392578125	-0.1707472623726693	-9.59425212333587	-2.31302886477389	-1.01527896964288	-4.010335790776221	-0.6996266819167501	0.148068669527897	-0.390625	0.6598639455782314
4767.608642578125	0.2398103854712594	-9.881185982642593	-2.552467118554516	-0.6988941393125633	-1.478217429371924	-0.7186201689241868	0.1566523605150215	-0.3928571428571428	0.6439909297052154
4787.139892578125	0.1048575246306147	-9.920240494438227	-2.322487156939021	0.323924032660093	1.807774999105058	-0.01159926933784872	0.1566523605150215	-0.3816964285714285	0.6485260770975056
4806.671142578125	0.07411580235302893	-10.04114519842757	-2.309539418976362	0.1524890594837685	3.060125374376145	-3.984386004928187	0.1545064377682404	-0.3839285714285714	0.63718820861678
4826.202392578125	-0.02810744549480696	-9.232042157868285	-2.291296266845835	0.3314632349898689	1.083431636805819	-0.004205051668260811	0.1523605150214592	-0.3883928571428571	0.655328798185941
4845.733642578125	0.05190144519551924	-9.556074570007512	-2.128920029756006	-1.8597721286028	0.1991011240671881	-3.636308755971001	0.1545064377682404	-0.375	0.6621315192743764
4865.264892578125	0.07240468097518955	-9.546178592264299	-2.138427281192424	-5.646832960815798	-7.859699701359345	-6.149447575871788	0.167381974248927	-0.3883928571428571	0.6507936507936508
4884.796142578125	0.03141639134312234	-9.596273759873029	-2.121230971046927	0.2963597368150704	0.3055419974172918	-1.076264915885354	0.1502145922746781	-0.3616071428571428	0.63718820861678
4904.327392578125	0.04791354248022416	-9.475226610172278	-1.730129758226499	-2.500945162751236	-2.674256752813925	-3.260686407669332	0.1609442060085837	-0.375	0.6439909297052154
4923.858642578125	-0.01270120999410803	-9.81805480608188	-1.791103490385115	-4.957519282681845	-8.228038195795042	-6.131977917364751	0.1502145922746781	-0.3794642857142857	0.6439909297052154
4943.389892578125	-0.1129486884115697	-9.271597785843159	-1.970437281292004	-1.7811617587654	-0.4359984430832368	-1.829824401823613	0.1566523605150215	-0.375	0.6575963718820862
4962.921142578125	0.5924604090193084	-9.63218723035282	-2.103183759073695	-4.573832886008792	-5.244504358092313	-4.355578376729181	0.1545064377682404	-0.375	0.653061224489796
4982.452392578125	0.4490327086262662	-9.691359013954953	-2.046128005483762	-0.7415368398171376	-1.531763706461213	-1.798074250810867	0.1523605150214592	-0.4107142857142857	0.6575963718820862
5001.983642578125	0.06439449067533408	-9.667310611573422	-2.357816414472183	-0.9839450726329699	-2.870274470238074	0.3687360734655487	0.1502145922746781	-0.3794642857142857	0.6439909297052154
5021.514892578125	0.3687571496692637	-9.427929995739118	-2.181837415905964	-6.368344707117689	-7.164887043833553	-6.890250397804738	0.167381974248927	-0.3928571428571428	0.6326530612244898
5041.046142578125	0.2211577070740512	-9.436555011414177	-1.707607442098992	0.2264656569982534	4.253732972003578	-1.836569167659208	0.1738197424892704	-0.3861607142857142	0.6326530612244898
5060.577392578125	0.8025696061824279	-9.573682261718393	-1.685532046814215	-1.474357389613693	0.2495639945134371	-2.5499683992482	0.148068669527897	-0.3861607142857142	0.63718820861678
5080.108642578125	0.119817292806045	-9.425440597170486	-1.777647647951442	-0.3758342778104973	1.796093053361373	-0.3851898463056511	0.148068669527897	-0.3928571428571428	0.6462585034013606
5099.639892578125	0.4806633251261062	-9.873493501938132	-2.147965165671843	-2.872145668238819	-2.706870864230411	-3.987208737096573	0.1652360515021459	-0.3973214285714285	0.6394557823129252
5119.171142578125	-0.3558299230644693	-9.602502306829962	-2.172109734369394	0.3218827738112591	-0.7631242870018035	-0.7053555620854115	0.1545064377682404	-0.3839285714285714	0.655328798185941
5138.702392578125	0.2399174568207582	-9.891288063457097	-2.563174253504396	0.01217297465269088	-2.553050527077098	-0.3339382654520026	0.1609442060085837	-0.3816964285714285	0.6303854875283447
5158.233642578125	0.0729663005065229	-9.808810471085875	-2.194589234325759	-1.373129412786965	-2.558565659534703	-0.721301392092047	0.148068669527897	-0.3883928571428571	0.6303854875283447
5177.764892578125	0.6402245381107825	-9.08721032618919	-1.777555851894584	-6.426065812281816	-5.769746596324364	-7.984492915030595	0.1566523605150215	-0.3794642857142857	0.6598639455782314
5197.296142578125	0.3690803839319016	-10.13500393515245	-2.214160842169753	-0.7461706121400526	0.2969434583166468	-1.456741767689277	0.1566523605150215	-0.3883928571428571	0.6303854875283447
5216.827392578125	0.2755845024041491	-10.0633619056301	-2.048246158782251	-1.501921685458715	-1.252669007174328	-3.614634045795705	0.1630901287553648	-0.3883928571428571	0.6394557823129252
5236.358642578125	0.4233233810039843	-9.610293839870648	-1.516011569786178	0.392953941318883	-0.6738804918529897	1.09373457439239	0.1394849785407725	-0.3727678571428571	0.653061224489796
5255.889892578125	0.2243880294862886	-9.769920647971633	-2.030639683322743	0.3398666084776718	-1.10744720912166	-0.3418404259550573	0.1566523605150215	-0.3727678571428571	0.63718820861678
5275.421142578125	0.5498296852902123	-9.47014476149937	-1.921744039225316	0.71860631629503	-1.799176460004413	0.3920761211417721	0.1652360515021459	-0.4107142857142857	0.6326530612244898
5294.952392578125	0.4080019944972278	-9.67074668661164	-2.024689245641143	-2.468747094583299	-3.000730915904019	-2.537353244243417	0.1866952789699571	-0.375	0.6394557823129252
5314.483642578125	0.2852128842313355	-9.608912734902921	-1.99067617823559	-1.431714689109118	0.3031102716027254	-1.470514317361519	0.1502145922746781	-0.3950892857142857	0.6439909297052154
5334.014892578125	-0.1731897012697269	-10.06897517369437	-2.068784975068128	-7.106111945769938	-9.058822431444385	-8.684627539780811	0.1437768240343348	-0.3794642857142857	0.6417233560090703
5353.546142578125	0.2979624969071192	-9.811060433049882	-2.24522928254865	-1.412866683284678	-1.507748134145371	-1.452028773187549	0.1652360515021459	-0.3973214285714285	0.6417233560090703
5373.077392578125	0.202709029076273	-9.335360423624099	-1.90355596885179	-1.128679921122299	1.350844390349019	-2.1943554236209	0.1695278969957082	-0.4017857142857142	0.6666666666666666
5392.608642578125	0.1581005157026613	-9.244005247581272	-1.524337284551846	-0.03973727049771342	1.050817525389332	-0.7307273810955023	0.1738197424892704	-0.3839285714285714	0.6394557823129252
5412.139892578125	0.2926452932867257	-9.366562816569234	-1.713508920509305	-2.500945162751236	-2.674256752813925	-3.260686407669332	0.1566523605150215	-0.390625	0.6417233560090703
5431.671142578125	0.41867078660728	-9.771863475542844	-2.071160293381056	0.6704656723095137	1.442519911312399	-0.001015885666933716	0.1609442060085837	-0.3861607142857142	0.6394557823129252
5451.202392578125	0.5214192901319025	-9.772890960578088	-2.141929013190241	-2.527332370905452	-0.13905498476659	-3.28656616951289	0.167381974248927	-0.3973214285714285	0.6507936507936508
5470.733642578125	-0.1535349554294811	-9.655030307011364	-1.993443232562096	-0.05104607399237727	2.137332568838191	-0.7418187075998842	0.1566523605150215	-0.3950892857142857	0.6598639455782314
5490.264892578125	-0.5204012671200331	-9.782674775207589	-2.04150594105791	-9.915902736521716	-14.98954090796185	-11.91892624277312	0.1587982832618026	-0.3816964285714285	0.63718820861678
5509.796142578125	0.2554348040992389	-9.820736166222813	-2.074092654821854	1.757367064085265	-1.428406239754148	0.7688558641109016	0.1630901287553648	-0.3973214285714285	0.653061224489796
5529.327392578125	-0.001806153900209319	-9.959577898056958	-1.86020093650968	-1.397788278625127	-2.956434858743849	-1.437240337848374	0.1630901287553648	-0.3883928571428571	0.6303854875283447
5548.858642578125	0.2985907835051216	-10.18480408965323	-2.308057942348891	0.007539202329775903	-0.7243433622992387	0.007394217669587907	0.1545064377682404	-0.3794642857142857	0.6439909297052154
5568.389892578125	0.4089333132164532	-10.04449337353621	-2.117821117563688	0.3569862719860575	0.01476535238672349	0.3667043021316813	0.1523605150214592	-0.3727678571428571	0.6485260770975056
5587.921142578125	0.6842734521672025	-9.592701320380259	-2.100814604475341	0.003769601164887951	-0.3621716811496193	0.003697108834793953	0.1523605150214592	-0.390625	0.63718820861678
5607.452392578125	0.391874542548018	-9.90290864441538	-2.452760377250782	0.6713298434675408	-0.02401557231584131	-0.3460454776233181	0.1652360515021459	-0.3772321428571428	0.6394557823129252
5626.983642578125	0.3264375389179567	-9.952759324884131	-2.031508993836483	-2.47165252459016	-4.10509471838264	-2.886079945034596	0.1716738197424893	-0.390625	0.6258503401360545
5646.514892578125	0.2370709750954032	-9.355906063286309	-2.278526080968896	-4.364486892518924	-2.112983947597118	-6.900692272475127	0.148068669527897	-0.3973214285714285	0.655328798185941
5666.046142578125	0.3377265367694453	-10.24580150779194	-2.140000615720042	0.03423932701677142	2.244425123016767	1.417089456173477	0.1545064377682404	-0.3772321428571428	0.6598639455782314
5685.577392578125	0.1335568104111572	-9.930628497397043	-2.131191245197358	-0.01711966350838571	-1.122212561508384	-0.7085447280867386	0.1459227467811159	-0.3839285714285714	0.6507936507936508
5705.108642578125	0.08108558237001864	-9.86949772451057	-1.986109257410028	-6.355307561306971	-11.18447305453889	-7.569218255213125	0.1587982832618026	-0.3839285714285714	0.653061224489796
5724.639892578125	0.4847098552803644	-9.711917805623512	-1.53221001783236	-5.953637329967506	-8.545262138956019	-5.4293035784472	0.1587982832618026	-0.3794642857142857	0.6485260770975056
5744.171142578125	0.4701197862928262	-9.307731500893235	-2.11401944560915	-4.209307411692959	-5.954082368004829	-3.981479856927912	0.1502145922746781	-0.3705357142857142	0.6394557823129252
5763.702392578125	0.1768582864640869	-9.355303936399997	-1.359298034163798	0.2415440616578052	2.805046247405102	-1.821780732320032	0.1416309012875537	-0.390625	0.6349206349206349
5783.233642578125	0.4125151941181695	-9.276852424668457	-1.455601044470006	-1.394882848618266	-1.852071056265228	-1.088513637057195	0.1459227467811159	-0.390625	0.6462585034013606
5802.764892578125	0.7363770012345904	-10.21948498213356	-2.20912869488761	-0.3456774684913937	-1.101280395835581	-0.3556129756272994	0.1609442060085837	-0.3839285714285714	0.63718820861678
5822.296142578125	0.1555651057262352	-9.567212216713829	-2.291204450174547	-0.6913549369827874	-2.202560791671163	-0.7112259512545989	0.1738197424892704	-0.3839285714285714	0.63718820861678
5841.827392578125	0.04489530132398276	-10.17216612473041	-2.448713805867663	-2.107127050274327	-4.814672728295155	-2.511981425233326	0.1394849785407725	-0.3839285714285714	0.6439909297052154
5861.358642578125	-0.2417015120519913	-9.543037530334027	-2.36046103969883	-0.2992651668219314	-1.409905799895913	0.7275382150941753	0.1587982832618026	-0.3816964285714285	0.653061224489796
5880.889892578125	0.3994241240236144	-9.519145756391753	-2.187310361545121	-2.126839227256793	-1.537278838918818	-2.185437377450912	0.1587982832618026	-0.3928571428571428	0.63718820861678
5900.421142578125	-0.05996634619263497	-9.34283467997242	-2.166630686858952	0.7139725439721151	0.02953070477344698	0.7334086042633625	0.167381974248927	-0.4040178571428571	0.6258503401360545
5919.952392578125	0.7000291847143786	-9.582757867604723	-1.635571532662344	-2.567069641403165	0.9117625406227425	-4.017293550608391	0.1459227467811159	-0.3883928571428571	0.63718820861678
5939.483642578125	-0.4039496098448452	-9.72323323117428	-2.462181872658336	-1.856002527437911	-0.1630705570824313	-3.632611647136208	0.1716738197424893	-0.3727678571428571	0.6507936507936508
5959.014892578125	0.2012201312539972	-9.547466746767087	-1.754666186624207	0.3314632349898689	1.083431636805819	-0.004205051668260811	0.1609442060085837	-0.375	0.6417233560090703
5978.546142578125	0.1775915829685867	-9.739149653203425	-2.453035847879074	-0.7281867774736398	-0.04737946380320975	-1.093226631558923	0.1545064377682404	-0.3950892857142857	0.6666666666666666
5998.077392578125	0.1009968954062333	-10.05151501945911	-1.93642423450088	-1.325852939959476	-4.333726547223275	0.01682020667304324	0.148068669527897	-0.3816964285714285	0.6326530612244898
6017.608642578125	0.3479508817683704	-9.942873448211625	-2.142026952347243	-4.932860416843683	-7.830168996585898	-5.416038971608425	0.1759656652360515	-0.3683035714285714	0.6485260770975056
6037.139892578125	0.5806825193455799	-9.702776522163154	-1.945802954966153	-0.6855440769690655	0.00616681328607855	-0.0137725496722421	0.1630901287553648	-0.3861607142857142	0.63718820861678
6056.671142578125	0.6427801089997635	-9.642791437453635	-2.033112940792673	-0.3682950754807214	1.071749691062134	-0.3777956286360631	0.1652360515021459	-0.3794642857142857	0.6485260770975056
6076.202392578125	0.6079979584392039	-9.76365573716015	-1.616122374532639	1.618443075609658	5.001440225790186	-1.096782231393191	0.1802575107296137	-0.3839285714285714	0.6439909297052154
6095.733642578125	0.4692409931412794	-9.863278268517274	-2.026140130454471	-0.7641544468064653	0.6412663804365034	-1.820256903819631	0.1630901287553648	-0.3950892857142857	0.6417233560090703
6115.264892578125	0.2559014735659224	-9.588417600594246	-2.1207596014902	0.3097097991585682	1.789926240075295	-0.3714172966334089	0.1523605150214592	-0.3861607142857142	0.6575963718820862
6134.796142578125	0.06477227071979212	-9.455193177252655	-2.395594418917988	-0.6884495069759263	-1.098196989192542	-0.3624992504634205	0.1652360515021459	-0.3705357142857142	0.6462585034013606
6154.327392578125	0.4892876605249736	-9.429135300847674	-1.989990542293285	-0.6913549369827874	-2.202560791671163	-0.7112259512545989	0.1695278969957082	-0.3883928571428571	0.655328798185941
6173.858642578125	-0.07000483149054326	-9.787178739563883	-2.183190320333429	-5.376860432154944	-5.018955935894717	-7.251592253600699	0.1502145922746781	-0.4084821428571428	0.6485260770975056
6193.389892578125	0.3438437864187276	-9.326670761096512	-1.731317417382963	0.04350687166260137	-1.412989206538952	0.7344244899302963	0.1459227467811159	-0.3816964285714285	0.6575963718820862
6212.921142578125	0.4347901576999237	-9.357883255112355	-1.642281076114822	-1.0935764229475	2.128734029737545	-1.122295559403808	0.1523605150214592	-0.3794642857142857	0.655328798185941
6232.452392578125	0.1541065111160818	-9.829823893393991	-2.145344989159195	0.656251438807989	1.424671152282636	-0.360833912962494	0.148068669527897	-0.3705357142857142	0.6575963718820862
6251.983642578125	0.07045113390037175	-10.16232067295517	-1.943072573710643	-2.832408397741105	-3.757688389619744	-3.256481356001071	0.1652360515021459	-0.3727678571428571	0.6303854875283447
6271.514892578125	0.05024486959950002	-9.657068105261652	-1.963262470154083	0.1495836294769077	1.955761571897523	-4.333112705719365	0.1630901287553648	-0.390625	0.6575963718820862
6291.046142578125	0.04311549266533282	-9.899421053916555	-2.27073294000267	-0.6809103046461504	-1.822540351491781	-0.3551050327938325	0.1695278969957082	-0.3861607142857142	0.6507936507936508
6310.577392578125	-0.2316509054692341	-9.623946117207934	-2.345113534709244	-2.082468184436165	-4.41680352908601	-1.796042479477	0.1652360515021459	-0.390625	0.6643990929705216
6330.108642578125	0.1622379142644264	-9.40566278318305	-1.938077140728357	0.06235487748704113	-3.223847612287049	0.752910034104266	0.1695278969957082	-0.3705357142857142	0.6394557823129252
6349.639892578125	0.3081807812636198	-9.498031302762133	-2.246649554933405	0.9488415744581713	2.092384830849547	-1.440795937682642	0.1652360515021459	-0.3883928571428571	0.63718820861678
6369.171142578125	0.32422742464717	-9.467888738892938	-1.810497566757819	0.3305990638318419	2.549967120434059	0.3408245402881236	0.1695278969957082	-0.3928571428571428	0.6485260770975056
6388.702392578125	0.09706349724389833	-9.728243362245168	-2.56349258153269	-2.219663830595718	-0.9200280307981562	-4.351739758893861	0.148068669527897	-0.375	0.653061224489796
6408.233642578125	0.2120768032792076	-9.456666222578249	-1.819925225879948	-1.073864245965034	-1.148659859638791	-1.448839607186222	0.148068669527897	-0.3928571428571428	0.6394557823129252
6427.764892578125	-0.2891383252236846	-9.956704576343723	-1.698412375590725	1.713860192422664	-0.01541703321519637	0.03443137418060524	0.1566523605150215	-0.3839285714285714	0.655328798185941
6447.296142578125	0.2311618487315542	-9.608372224547923	-1.687613444583987	-0.713108372814088	-1.496066188401687	-1.078438196219747	0.1716738197424893	-0.3950892857142857	0.6394557823129252
6466.827392578125	0.2647520729486364	-10.19456671264868	-1.985411376496295	-2.029380851594954	-3.98323681181734	-0.360467479129553	0.1609442060085837	-0.3861607142857142	0.6439909297052154
6486.358642578125	0.6167010409607294	-10.12737913162173	-2.486430626685183	-0.6658318999865986	-3.271227076090259	-0.3403165974546568	0.1652360515021459	-0.3727678571428571	0.6462585034013606
6505.889892578125	0.5226900048268976	-9.702196597017966	-2.269000482689765	0.2783759021486577	0.6498649195371483	-1.439780052015708	0.1652360515021459	-0.3883928571428571	0.6258503401360545
6525.421142578125	0.5422093963196638	-9.904411992953097	-2.180123305435772	0.6742352734744016	1.080348230162779	0.002681223167860238	0.1566523605150215	-0.3839285714285714	0.6507936507936508
6544.952392578125	0.2145010602489919	-9.961740970198452	-2.062350922858372	-1.163783419297097	0.5729547509604916	-3.266415287837993	0.1609442060085837	-0.3973214285714285	0.653061224489796
6564.483642578125	-0.09224949186017523	-9.756653262657158	-1.999540609900844	-3.186489239720302	-2.668089939527847	-3.274458957341574	0.167381974248927	-0.3883928571428571	0.6281179138321996
6584.014892578125	0.2026746854358677	-9.95152169634931	-1.900121604811262	-6.375019738289438	-7.907079165162555	-7.24267420743071	0.1609442060085837	-0.3794642857142857	0.6621315192743764
6603.546142578125	0.1029686244083245	-9.970726655941055	-2.133597134709999	-1.369359811622077	-2.920737340684323	-0.717604283257253	0.1609442060085837	-0.3861607142857142	0.6575963718820862
6623.077392578125	0.08856243613652159	-9.869572493048235	-1.713386470795015	-4.108943606024257	-7.29567653842473	-1.807783257815375	0.1738197424892704	-0.3883928571428571	0.6258503401360545
6642.608642578125	0.1910725543924486	-9.809991533624734	-1.760316663734656	-6.375019738289438	-7.907079165162555	-7.24267420743071	0.1502145922746781	-0.390625	0.6462585034013606
6662.139892578125	0.07119457270443891	-9.717883662898762	-2.01741645411736	-1.431714689109118	0.3031102716027254	-1.470514317361519	0.1716738197424893	-0.3816964285714285	0.6326530612244898
6681.671142578125	-0.01009513375158997	-10.12111116987461	-2.051711114636921	0.2699725286608548	2.840743765464627	-1.102144677728911	0.1587982832618026	-0.3973214285714285	0.6575963718820862
6701.202392578125	0.05503479732896539	-9.727823075246018	-2.44225524310062	0.2925901356501825	0.6677136785669111	-1.079962024720148	0.1566523605150215	-0.40625	0.6485260770975056
6720.733642578125	-0.2330185904430207	-9.533023349449106	-2.208345037330583	-1.424175486779342	-0.4212330906965133	-1.463120099691931	0.1459227467811159	-0.3928571428571428	0.63718820861678
6740.264892578125	-0.06589369571261747	-9.231664295366107	-2.594303898126007	0.05104607399237727	-2.137332568838191	0.7418187075998842	0.1587982832618026	-0.3727678571428571	0.6303854875283447
6759.796142578125	0.2680510826416844	-9.800660308806219	-2.315312345801101	-0.3390024373196448	-0.35908827450658	-0.003189166001327095	0.1437768240343348	-0.3950892857142857	0.6281179138321996
6779.327392578125	0.2450023770437407	-9.608510629831045	-2.051258112537337	-2.822827936562496	-1.911132465812122	-2.55533084558392	0.1416309012875537	-0.4017857142857142	0.6507936507936508
6798.858642578125	0.4149939968697739	-9.367786303605063	-1.703481319630445	-0.03015680931910361	2.897373449196955	-0.02957687067835163	0.1738197424892704	-0.3727678571428571	0.655328798185941
6818.389892578125	0.1086111237343573	-9.607146717297951	-1.677438904047978	1.363548951608355	0.7120097357270816	0.02015088167489629	0.1587982832618026	-0.3883928571428571	0.6417233560090703
6837.921142578125	0.122360742410177	-9.455769061969558	-2.031992608364638	0.2917259644921555	2.134249162195151	-0.7349324327637631	0.1587982832618026	-0.3816964285714285	0.6666666666666666
6857.452392578125	0.3648439948772036	-9.640012076312411	-1.790521936699957	0.3210186026532321	0.7034111966264366	-0.3603259701290271	0.1652360515021459	-0.3995535714285714	0.6439909297052154
6876.983642578125	0.1284719314170348	-9.536638254667706	-1.622703345785113	-1.106926485290998	0.6443497870795426	-1.827143178655752	0.1587982832618026	-0.40625	0.6349206349206349
6896.514892578125	-0.05190767075338383	-9.807561731373275	-1.95209006751876	2.244873951059127	-5.65260850698428	3.338833636033471	0.1566523605150215	-0.4084821428571428	0.6485260770975056
6916.046142578125	-0.07209979355526513	-9.494228497013943	-1.973694113861241	-0.6988941393125633	-1.478217429371924	-0.7186201689241868	0.1587982832618026	-0.3973214285714285	0.653061224489796
6935.577392578125	0.0209556812896433	-9.0002095568129	-2.09556812896433	-3.946009914203852	-3.855530723869203	-5.436048344282796	0.1652360515021459	-0.40625	0.6462585034013606
6955.108642578125	-0.19180807725539	-9.179900101045629	-2.247763703032435	-1.807861883452395	-3.404766928399243	-3.239519640327502	0.1609442060085837	-0.3950892857142857	0.6303854875283447
6974.639892578125	0.1334780220596393	-9.799314578200397	-2.123312410045559	0.3181131726463711	-0.4009526058521842	-0.7090526709202054	0.1587982832618026	-0.3705357142857142	0.63718820861678
6994.171142578125	0.04938223816108512	-9.566150388038178	-1.876999326312594	1.698781787763112	1.433269691383281	0.01964293884142942	0.1609442060085837	-0.3995535714285714	0.6485260770975056
7013.702392578125	0.2672793608396365	-9.861258652194257	-2.238140165596302	0.3059401979936803	2.152097921224914	-0.3751144054682029	0.1609442060085837	-0.3638392857142857	0.6439909297052154
7033.233642578125	0.4207091826760402	-9.802186889806562	-2.274999900257081	-0.7754632503011292	1.727781423885361	-1.831348230324013	0.167381974248927	-0.3794642857142857	0.6281179138321996
7052.764892578125	0.3477367390693728	-9.922669286582614	-2.120612682447482	0.07947454099542683	-2.101635050778665	1.461454762191005	0.1716738197424893	-0.3928571428571428	0.653061224489796
7072.296142578125	0.1835653974138234	-9.759411411549896	-2.030009129137438	-0.647848065320186	-3.615549998210115	0.02319853867569743	0.1587982832618026	-0.3861607142857142	0.6417233560090703
7091.827392578125	0.315380865692739	-9.710224515727637	-1.946249834580022	-3.236671142554652	-1.997292854317896	-4.361307256897843	0.1373390557939914	-0.3883928571428571	0.63718820861678
7111.358642578125	-0.2144992049502905	-10.08876409885959	-2.019467260072989	-0.3891843401539951	0.3117088107033704	-1.090037465557596	0.1545064377682404	-0.3839285714285714	0.6394557823129252
7130.889892578125	0.1333184251424618	-9.870020052938294	-2.107352718327813	1.439253891438894	-1.027453633901964	1.477908535031107	0.1695278969957082	-0.4040178571428571	0.6485260770975056
7150.421142578125	0.355940869926811	-10.12477152991139	-1.920617604925997	0.7290509486316669	-1.41915601982503	0.7481970396025384	0.1630901287553648	-0.3995535714285714	0.6303854875283447
7169.952392578125	0.0536166070016416	-9.384374549908401	-2.300436210368242	0	0	0	0.1545064377682404	-0.3772321428571428	0.6281179138321996
7189.483642578125	0.4035251587308328	-10.12524737279943	-2.597413832266956	-0.7490760421469135	-0.8074203441619739	-1.805468468480455	0.1716738197424893	-0.359375	0.63718820861678
7209.014892578125	-0.1267730962394845	-9.806813077118415	-2.628812825031146	-0.02465886583816162	-0.3978691992091449	-0.7159389457563266	0.1545064377682404	-0.3839285714285714	0.63718820861678
7228.546142578125	0.2381497694469572	-9.638745134058107	-2.386405516124295	-0.3352328361547569	-0.7212599556561994	0.000507942833466858	0.1609442060085837	-0.3973214285714285	0.6235827664399093
7248.077392578125	0.7142818367114284	-9.764718575942872	-2.040428569102027	-2.469611265741326	-1.534195432275779	-2.192323652287033	0.1502145922746781	-0.3883928571428571	0.6349206349206349
7267.608642578125	-0.1736058653828732	-9.543718486800717	-2.027168563753498	-0.07570493983053889	1.739463369629046	-1.457757653356211	0.1695278969957082	-0.3816964285714285	0.6417233560090703
7287.139892578125	-0.5198679305866806	-9.661467987360801	-2.094839594393163	-1.295383214107592	-1.727129743056889	1.430212554011727	0.1652360515021459	-0.4017857142857142	0.6462585034013606
7306.671142578125	-0.03234585476364642	-10.08048462226045	-1.86745533996189	2.143645974232399	-2.844478852936139	1.510166628877319	0.148068669527897	-0.3883928571428571	0.6439909297052154
7326.202392578125	0.1237607508102274	-9.768914375184872	-2.171993448369678	0.6553872676499619	2.891206635910876	-0.01580432100610953	0.1630901287553648	-0.3928571428571428	0.6507936507936508
7345.733642578125	-0.03600652401688065	-9.706710641830542	-2.521796577903772	-0.3958593713257439	-0.4304833106256311	-1.442461275183568	0.184549356223176	-0.4040178571428571	0.6507936507936508
7365.264892578125	0.1554075290231993	-9.809634883371041	-2.27544677987095	-2.486081766756349	-12.12853107467488	3.308973747354068	0.1566523605150215	-0.3950892857142857	0.6598639455782314
7384.796142578125	0.3841875865108005	-9.721013593036826	-2.704472936794331	-3.160966202724114	-3.736756223946942	-2.903549603541632	0.148068669527897	-0.4107142857142857	0.6122448979591837
7404.327392578125	0.1657328847291987	-9.506707833897799	-2.287574187205585	-3.252613718372231	0.9179293539088211	-4.031066100280634	0.1523605150214592	-0.4084821428571428	0.653061224489796
7423.858642578125	-0.0328408072283107	-9.423914016170142	-1.817960093495461	-0.4431358441532333	1.34467757706294	-2.180582873948658	0.1695278969957082	-0.3928571428571428	0.6258503401360545
7443.389892578125	-0.1341226352862137	-9.342093117081482	-1.893858920358222	0.7754632503011292	-1.727781423885361	1.831348230324013	0.1545064377682404	-0.4040178571428571	0.6439909297052154
7462.921142578125	0.03760838891563962	-9.475123558636634	-1.72002256503335	-0.32478820381812	-0.3412395154768173	0.3566288612942332	0.1609442060085837	-0.3861607142857142	0.6326530612244898
7482.452392578125	-0.08232817898247319	-9.453722172755631	-1.971263734405742	-0.9972951349764676	-4.354658712896076	-0.336111545786396	0.1545064377682404	-0.3995535714285714	0.653061224489796
7501.983642578125	0.4807077698372189	-9.610867683758979	-2.152409636783115	-1.039073664323015	-5.874740473613605	-1.760595219629461	0.1609442060085837	-0.4017857142857142	0.653061224489796
7521.514892578125	-0.0690432095591955	-10.21143078002562	-2.279352513468204	-10.28506198316046	-12.45125573327147	-11.9516922794528	0.1652360515021459	-0.3705357142857142	0.6394557823129252
7541.046142578125	0.07187942529840297	-9.344153137687329	-2.085901713513765	-2.495134302737515	-0.4655291478566838	-2.563233006086975	0.167381974248927	-0.40625	0.6349206349206349
7560.577392578125	0.1227243809556446	-9.556782799365113	-2.068356462911402	-0.7424010109751646	-0.0652282228329725	-1.453044658854483	0.1545064377682404	-0.3772321428571428	0.6349206349206349
7580.108642578125	0.3978806804195185	-9.640342443167834	-2.032966001135525	0.3143435714814832	-0.03878092470256481	-0.7127497797549994	0.1587982832618026	-0.390625	0.6326530612244898
7599.639892578125	0.3157202616685088	-9.770833970293456	-1.980189432157001	0.009580461178609809	1.846555923807622	0.7011505104171507	0.1781115879828326	-0.3928571428571428	0.6190476190476191
7619.171142578125	0.1338840851020781	-9.971035810547992	-2.163918714289445	0.6809103046461504	1.822540351491781	0.3551050327938325	0.1587982832618026	-0.3861607142857142	0.6417233560090703
7638.702392578125	0.2779501731638301	-9.629042127994266	-2.284813234750363	1.34933471810683	0.6941609766973188	-0.3396671456206639	0.1502145922746781	-0.3861607142857142	0.6235827664399093
7658.233642578125	0.1310012395221764	-9.880097891183102	-1.875634156299269	-2.212124628265942	-1.644371393097395	-4.344345541224273	0.1695278969957082	-0.3973214285714285	0.655328798185941
7677.764892578125	-0.3975495302157548	-10.11723662590997	-2.081781672302073	-5.408096421296738	-8.660634600331997	-0.3812678126384421	0.1545064377682404	-0.4129464285714285	0.6485260770975056
7697.296142578125	-0.1111123137569582	-9.301919179892735	-2.15407474675316	-2.485866758091685	-4.122943477412403	-3.245897972330156	0.1781115879828326	-0.3973214285714285	0.6258503401360545
7716.827392578125	0.1516741732897315	-9.647981388197545	-1.902111206524176	-2.551127065585586	-2.003459667603975	-4.3475347072256	0.1695278969957082	-0.3973214285714285	0.63718820861678
7736.358642578125	0.06950567368215589	-9.59665465269642	-1.848526551889058	-2.579555532588636	-2.0391571856635	-5.067170761816721	0.1630901287553648	-0.4017857142857142	0.6394557823129252
7755.889892578125	0.1225203393273545	-9.385063587231659	-2.047952300082385	0.04350687166260137	-1.412989206538952	0.7344244899302963	0.1437768240343348	-0.3883928571428571	0.6439909297052154
7775.421142578125	0.3851088453881785	-9.569507654110449	-1.776190661266829	-0.02929263816107659	1.430837965568715	-0.374606462634736	0.167381974248927	-0.3861607142857142	0.6439909297052154
7794.952392578125	0.06668343452649873	-9.101676935355368	-1.566302636323342	-3.193164270892051	-3.410282060856848	-3.626882766967546	0.1716738197424893	-0.3995535714285714	0.63718820861678
7814.483642578125	0.1508761887038442	-9.496458256836535	-1.822312747935445	-0.3532166708211696	-0.3769370335363428	-0.3630071932968873	0.1394849785407725	-0.3794642857142857	0.6417233560090703
7834.014892578125	0.03071739725016788	-10.28313545680079	-2.051331561751482	-9.093714268018347	-11.5219774825442	-7.620611345067299	0.1502145922746781	-0.3861607142857142	0.6190476190476191
7853.546142578125	0.2753885416324248	-9.568410451072891	-2.028650081609828	-1.50655545778163	0.5760381576035309	-3.273301562674114	0.1609442060085837	-0.4040178571428571	0.6326530612244898
7873.077392578125	0.2687722990901953	-9.992586712889894	-2.387433990652182	-5.585991416980147	-0.1448887491274372	-11.26135007753898	0.1609442060085837	-0.375	0.6394557823129252
7892.608642578125	0.1366234954779343	-9.99126522485377	-2.437859751875065	-0.3172490014883441	-1.065582877776056	0.364023078963821	0.1652360515021459	-0.3950892857142857	0.6349206349206349
7912.139892578125	0.6360972406197248	-9.279088245133471	-1.364826102788816	-1.016143140800907	-2.54380030714798	-0.3545970899603657	0.1523605150214592	-0.3883928571428571	0.6417233560090703
7931.671142578125	-0.2224689909673162	-9.603835916150933	-2.242896821635723	-0.3720646766456093	1.433921372211754	-0.3814927374708571	0.167381974248927	-0.4107142857142857	0.6507936507936508
7951.202392578125	0.1025484198668952	-9.607086090259276	-2.091576680567072	-1.034991146625347	-0.7329419013998837	-0.3730826341343355	0.1695278969957082	-0.3839285714285714	0.6507936507936508
7970.733642578125	-0.3146133492344141	-9.764530634184426	-2.212134464313692	-3.210283934400437	-4.532494622365231	-4.335427495054285	0.1630901287553648	-0.4174107142857142	0.63718820861678
7990.264892578125	-0.1127022222863083	-10.01907499797916	-1.995083893818144	-7.021690715918817	-7.485194393637569	-6.180689784051066	0.1716738197424893	-0.3928571428571428	0.6394557823129252
8009.796142578125	0.2459922819730693	-9.911550831910644	-2.150248605470194	-2.767148090247204	-5.877172199428172	-2.154844621105627	0.1630901287553648	-0.3995535714285714	0.6439909297052154
8029.327392578125	-0.252293536024667	-9.401517468680158	-2.321666805696567	-0.784179540321712	-1.585309983550501	-2.877528332697548	0.1759656652360515	-0.3816964285714285	0.6281179138321996
8048.858642578125	0.2262850105651448	-9.396202244045048	-2.22033779120836	-1.494382483128939	-1.977012369473567	-3.607239828126117	0.1652360515021459	-0.4017857142857142	0.6507936507936508
8068.389892578125	0.1459448047556147	-9.698429145017254	-2.349582516377803	1.017007311958934	1.07726482351974	0.009567498003981286	0.1781115879828326	-0.3883928571428571	0.6349206349206349
8087.921142578125	0.001218106669596526	-9.949507130561647	-2.162626993490265	-3.739471442852729	-4.329991459751763	-0.3912017444753643	0.1738197424892704	-0.3839285714285714	0.63718820861678
8107.452392578125	-0.1858827891784089	-9.796120970088017	-2.840292510730534	-1.403286222106068	0.3388077896622509	-0.7508782627703986	0.1695278969957082	-0.3950892857142857	0.6507936507936508
8126.983642578125	-0.1072597653891427	-9.493876897295605	-2.539329583534706	-1.030357374302432	-2.561649066177743	-0.7144151172559259	0.1630901287553648	-0.3928571428571428	0.63718820861678
8146.514892578125	-0.3610239348510921	-9.703460467722199	-2.673116718972423	-1.038760747790235	-0.3707702202502642	-0.3767797429691294	0.1781115879828326	-0.4017857142857142	0.6213151927437642
8166.046142578125	0.02963254225618943	-9.485144810271048	-1.942846062353637	-0.4422716729952063	-0.1218579065653001	-2.525612465905043	0.1545064377682404	-0.3995535714285714	0.6235827664399093
8185.577392578125	-0.0885464393388298	-9.362750899242977	-2.369845862035387	-0.7235530051507248	-1.876086628581069	-1.434559114680513	0.1587982832618026	-0.4040178571428571	0.6326530612244898
8205.108642578125	0.316691984670564	-9.538520455200242	-2.07736173236252	-0.452716305331843	-0.5018783467446821	-2.881733384365809	0.1652360515021459	-0.3883928571428571	0.6235827664399093
8224.639892578125	-0.1515793881405218	-9.715655923290313	-2.188999961458025	1.690378414275309	3.62414853731076	0.3572783131282259	0.1587982832618026	-0.3839285714285714	0.6417233560090703
8244.171142578125	-0.07326949754318604	-10.06997437573164	-1.856723715069151	-2.605293578249489	-8.976078498506881	1.116791604067561	0.1652360515021459	-0.3861607142857142	0.63718820861678
8263.702392578125	-0.01970331343736155	-9.767479734542395	-2.111301309325069	-0.32478820381812	-0.3412395154768173	0.3566288612942332	0.167381974248927	-0.390625	0.6326530612244898
8283.233642578125	0.1143727744658779	-9.950638677239612	-2.253603977200033	-2.453668689923747	-4.449417640502496	-2.522564808904241	0.1587982832618026	-0.3883928571428571	0.6326530612244898
8302.764892578125	-0.02965896995546887	-10.18152159211863	-2.136143820779643	-6.068215369137731	-7.221516727565881	-7.962818204855298	0.167381974248927	-0.3883928571428571	0.6439909297052154
8322.296142578125	0.1343325726414882	-9.708414032797124	-2.208767468230454	-0.9935255338115796	-4.716830394045695	-0.332414436951602	0.1695278969957082	-0.3816964285714285	0.6598639455782314
8341.827392578125	0.7252940652255334	-9.764828698228014	-2.121243257247216	-0.03510349817479845	-0.777889639388527	-1.072059864217093	0.1416309012875537	-0.4040178571428571	0.6190476190476191
8361.358642578125	-0.03727319828359291	-9.615788884178784	-2.395129151232545	-0.3540808419791966	1.089598450091897	-0.01797760134050291	0.1695278969957082	-0.3928571428571428	0.6235827664399093
8380.889892578125	0.2647439920920704	-10.01274845002193	-1.9846032908397	-3.585254041052907	-4.202937052632099	-5.06564693331632	0.1437768240343348	-0.3950892857142857	0.6281179138321996
8400.421142578125	0.03314569464823509	-9.616493073108099	-2.294161301558204	0.3900485113120221	-1.77824429433161	0.7450078736012112	0.1716738197424893	-0.3616071428571428	0.6167800453514739
8419.952392578125	0.3442498494611664	-8.993341488393604	-1.771923721626849	-0.7528456433118014	-0.4452486630123546	-1.809165577315249	0.1781115879828326	-0.3950892857142857	0.6281179138321996
8439.483642578125	-0.2129092964209403	-9.876658785823672	-2.178458113008006	0.25575829515933	2.822895006434864	-1.461962705024471	0.1523605150214592	-0.3928571428571428	0.6213151927437642
8459.014892578125	-0.2747078943821839	-10.09826302206628	-2.121047296475492	-6.371250137124551	-8.269250846312174	-7.238977098595917	0.1652360515021459	-0.3995535714285714	0.6507936507936508
8478.546142578125	0.1147747970800338	-9.77892552574858	-2.293806238615622	-0.327693633824981	-1.445603317955438	0.007902160503054765	0.1609442060085837	-0.3794642857142857	0.6303854875283447
8498.077392578125	0.5808178736930596	-9.591666764595518	-1.959338389714115	-0.05685693400609913	-0.07139503611905106	-1.439272109182241	0.1909871244635193	-0.3950892857142857	0.6394557823129252
8517.608642578125	0.04719636645999633	-9.626734589927228	-1.658412156203715	-3.947738256519906	-0.9224597566127225	-4.745989160370026	0.1695278969957082	-0.3973214285714285	0.6326530612244898
8537.139892578125	0.04887112398328894	-9.556044266795389	-1.825887908532976	0.136331475001526	-2.030240014659614	2.900726871373246	0.1802575107296137	-0.3950892857142857	0.6099773242630385
8556.671142578125	0.4491943257575852	-9.792370731136366	-2.062289718615657	-3.175180436225638	-3.754604982976705	-3.263367630837192	0.1545064377682404	-0.3861607142857142	0.63718820861678
8576.202392578125	-0.2557380011359021	-9.552998175544197	-1.977220294573056	-0.7754632503011292	1.727781423885361	-1.831348230324013	0.1759656652360515	-0.3839285714285714	0.6462585034013606
8595.733642578125	-0.09620305093506504	-9.564694535147217	-1.604184702411863	-0.7093387716492	-1.858237869551306	-1.074741087384953	0.1437768240343348	-0.4017857142857142	0.6303854875283447
8615.264892578125	-0.06160271964723934	-10.15089912431868	-2.002993341398515	-7.052160441770701	-10.09179119780396	-7.594082131389749	0.1566523605150215	-0.3995535714285714	0.6439909297052154
8634.796142578125	0.1521953885382352	-9.506572458935889	-1.954232731374537	0.3465416396494207	-0.3652550877926586	0.010583383670915	0.1545064377682404	-0.390625	0.6575963718820862
8654.327392578125	0.1773794604837306	-9.385612178443223	-2.431823599393462	-1.379804443958714	-3.300757780863705	-1.073725201718019	0.1609442060085837	-0.4151785714285714	0.6417233560090703
8673.858642578125	0.1350174252354523	-9.839734012636194	-2.277252727626859	0.3682950754807214	-1.071749691062134	0.3777956286360631	0.1630901287553648	-0.3705357142857142	0.6394557823129252
8693.389892578125	0.5078716928702314	-9.924270636120623	-1.80757745028845	-0.6081107948224725	-4.666367523599447	0.7539259197711997	0.1695278969957082	-0.3772321428571428	0.6122448979591837
8712.921142578125	0.4509155482061319	-9.63077178174469	-2.234411963470338	-4.296321155018161	-3.128103954926925	-5.450328836788504	0.1545064377682404	-0.421875	0.6303854875283447
8732.452392578125	0.1021787206790031	-10.00102178720679	-2.054606761777862	0.1934034176722889	6.046742618721913	-2.214872739128737	0.1609442060085837	-0.3816964285714285	0.6349206349206349
8751.983642578125	-0.5268316499612459	-9.843216531985238	-2.418875820201943	-1.031221545460459	-1.095113582549503	-0.3693855252995415	0.1738197424892704	-0.3928571428571428	0.6258503401360545
8771.514892578125	0.6142040562818517	-10.00614204056282	-2.236732158797406	2.427832736394778	0.0141136715582506	0.7678399784439678	0.1716738197424893	-0.3973214285714285	0.6235827664399093
8791.046142578125	0.3478155274208908	-9.548932700728757	-2.128491517599281	-2.084196526752219	-1.48373256182953	-1.105983295564231	0.1566523605150215	-0.4040178571428571	0.6394557823129252
8810.577392578125	0.4487842222868633	-9.782265620000647	-2.021279371543474	-0.3532166708211696	-0.3769370335363428	-0.3630071932968873	0.1545064377682404	-0.4017857142857142	0.6258503401360545
8830.108642578125	-0.2615865623043666	-9.573141710134534	-2.412772340991911	0.01130880349466385	-1.086515043448858	0.01109132650438186	0.1716738197424893	-0.3794642857142857	0.6303854875283447
8849.639892578125	0.3987170490740941	-10.02418919069276	-2.116602866593081	-1.02454651428871	-0.3529214612205015	-0.01696171567356919	0.1566523605150215	-0.4017857142857142	0.6462585034013606
8869.171142578125	-0.01832754760700899	-9.535170259877466	-2.248877892360325	-0.05104607399237727	2.137332568838191	-0.7418187075998842	0.1652360515021459	-0.390625	0.655328798185941
8888.702392578125	-0.03860653961697424	-9.413755348745246	-2.261795017894412	-0.7461706121400526	0.2969434583166468	-1.456741767689277	0.1566523605150215	-0.3883928571428571	0.6213151927437642
8908.233642578125	-0.4254225484124292	-9.632109410879513	-2.355704342430549	-0.6553872676499619	-2.891206635910876	0.01580432100610953	0.1738197424892704	-0.3928571428571428	0.6439909297052154
8927.764892578125	0.2315618511315685	-9.769992386188084	-1.727613684585427	-7.369409443259045	-11.15737407558001	-7.230059052425928	0.1566523605150215	-0.375	0.63718820861678
8947.296142578125	0.154680251932264	-9.607607408579931	-2.202719070777422	0.02379469468013459	1.864404682837385	1.060968537712711	0.1523605150214592	-0.4017857142857142	0.6462585034013606
8966.827392578125	0.153522669229192	-9.698504923661989	-2.086960800470225	0.3030347679868193	1.047734118746293	-0.7238411062593813	0.1652360515021459	-0.3995535714285714	0.6303854875283447
8986.358642578125	-0.02029725639495869	-9.78767581531484	-2.051907013565355	-1.085173049459697	-0.06214481618993323	-1.459930933690604	0.1630901287553648	-0.4040178571428571	0.6417233560090703
9005.889892578125	-0.1116395896478863	-9.938277543497462	-2.101347157660353	-3.392065632045282	-6.161782031172662	-0.7256479527608337	0.1523605150214592	-0.3995535714285714	0.6485260770975056
9025.421142578125	0.4317900984709557	-9.580075476742287	-2.362683316483325	0.7386314098102766	0.4273999039825919	1.449347550019689	0.1609442060085837	-0.3883928571428571	0.6281179138321996
9044.952392578125	0.4485316955191774	-9.529737842207719	-1.996026694774887	-0.01507840465955181	1.448686724598477	-0.01478843533917581	0.148068669527897	-0.3973214285714285	0.6281179138321996
9064.483642578125	0.1079807756933534	-9.738453545130671	-2.634812263212891	-0.7943112561255689	3.538639829633458	-1.849833774497983	0.1630901287553648	-0.3683035714285714	0.6598639455782314
9084.014892578125	0.08155225183670212	-10.14222966393251	-2.032776204078375	0.01335006234349776	1.484384242658003	0.7048476192519446	0.1652360515021459	-0.3950892857142857	0.6507936507936508
9103.546142578125	-0.1121062591145697	-9.665545604075522	-2.054680210992006	-4.298362413866995	-5.699003241033786	-6.144085129536067	0.1545064377682404	-0.390625	0.6258503401360545
9123.077392578125	-0.03597016016233388	-9.767317066075147	-2.525432963358448	0.01798383466641273	-0.3443229221198566	0.3635151361303542	0.1609442060085837	-0.3705357142857142	0.6598639455782314
9142.608642578125	-0.3529410168421431	-9.703541296902287	-2.461000356602016	-0.3456774684913937	-1.101280395835581	-0.3556129756272994	0.167381974248927	-0.3995535714285714	0.6303854875283447
9162.139892578125	0.1307628542534809	-9.314438941673847	-1.851795629429724	-0.6838157346530115	-2.926904153970402	-0.7038317335850109	0.1652360515021459	-0.3950892857142857	0.6349206349206349
9181.671142578125	0.164153077270556	-10.07234860147978	-2.129593441341312	-7.13744584277985	-10.19888375198253	-9.75299029516311	0.1652360515021459	-0.3950892857142857	0.6235827664399093
9201.202392578125	0.2222789259225764	-9.28505107208751	-1.819729326951513	0.6118803959873605	4.304195842449827	-0.7502288109364058	0.1824034334763948	-0.3816964285714285	0.6485260770975056
9220.733642578125	-0.05504506331511294	-9.797429347346648	-1.63835081134585	-0.7641544468064653	0.6412663804365034	-1.820256903819631	0.1630901287553648	-0.3772321428571428	0.63718820861678
9240.264892578125	-0.2860979029407469	-10.31027033410191	-2.002454603884499	-8.539003722569865	-12.79314692957676	-11.19392774184628	0.1609442060085837	-0.4017857142857142	0.63718820861678
9259.796142578125	0.3989554343427895	-9.579747130101007	-2.140441393462626	0.3682950754807214	-1.071749691062134	0.3777956286360631	0.1781115879828326	-0.3928571428571428	0.6394557823129252
9279.327392578125	-0.3357933567514825	-9.824924894715314	-2.134950039137465	-5.414771452468487	-9.402826721660999	-0.7336916222644144	0.167381974248927	-0.3883928571428571	0.63718820861678
9298.858642578125	0.0006686084231120985	-9.70707739315494	-2.107677168841822	-1.397788278625127	-2.956434858743849	-1.437240337848374	0.1587982832618026	-0.4017857142857142	0.6417233560090703
9318.389892578125	0.4392689724516001	-9.751867437199264	-2.090162551282461	-0.6771407034812625	-2.1847120326414	-0.3514079239590386	0.1587982832618026	-0.4017857142857142	0.6326530612244898
9337.921142578125	0.4803966568594299	-9.42904639081102	-2.121298339004217	-7.115379490415768	-5.401408101888665	-8.001962573537631	0.1695278969957082	-0.3794642857142857	0.673469387755102
9357.452392578125	0.2023534713873713	-9.921215453905795	-1.86800019996162	0.584316100142338	2.801962840762063	-1.814894457483911	0.1888412017167382	-0.3816964285714285	0.6439909297052154
9376.983642578125	0.234650758553902	-10.20436670960574	-2.036504426818769	-1.462184414961001	-2.303486532563661	-2.883906664700203	0.1824034334763948	-0.3883928571428571	0.6462585034013606
9396.514892578125	0.05185296005612356	-9.980316509398541	-2.124071515816438	-6.02761392748199	-9.738869736583453	-7.57712041571618	0.1459227467811159	-0.3883928571428571	0.6575963718820862
9416.046142578125	0.08626541142879099	-9.748337401589037	-2.504092163287261	-0.392953941318883	0.6738804918529897	-1.09373457439239	0.1545064377682404	-0.3883928571428571	0.6417233560090703
9435.577392578125	0.01375761707466555	-9.464784040817214	-2.396169870731861	-0.02842846700304957	-0.03569751805952553	-0.7196360545911205	0.1738197424892704	-0.3995535714285714	0.6462585034013606
9455.108642578125	-0.3751008282178327	-9.309380304849135	-2.285835545563676	-1.059650012463509	-1.130811100609028	-1.089021579890662	0.1652360515021459	-0.3816964285714285	0.6349206349206349
9474.639892578125	0.1748966173038432	-9.456294420718494	-2.183539281404726	-1.034991146625347	-0.7329419013998837	-0.3730826341343355	0.1866952789699571	-0.4084821428571428	0.6190476190476191
9494.171142578125	0.5163546132791949	-9.58092112189037	-1.635461327919483	0.6930832792988414	-0.7305101755853173	0.02116676734183	0.1695278969957082	-0.3928571428571428	0.6145124716553289
9513.702392578125	0.6601621139308365	-9.481349095886785	-1.730497107369369	0.259527896324218	2.460723325285245	-1.458265596189678	0.1459227467811159	-0.3973214285714285	0.6462585034013606
9533.233642578125	0.1186799122443879	-9.718358516294163	-1.663909591785731	1.326717111117503	2.867191063595035	-0.3618497986294277	0.1652360515021459	-0.4040178571428571	0.653061224489796
9552.764892578125	-0.3079466013386474	-10.09793063499672	-1.858401090625056	-5.763452258834858	-9.106853576076066	-9.376718495027449	0.1502145922746781	-0.3995535714285714	0.6190476190476191
9572.296142578125	0.3893795780832817	-9.448338240225279	-2.203263930777153	0.2223831393005856	-0.8880656002101428	-3.224081753154333	0.148068669527897	-0.3816964285714285	0.6326530612244898
9591.827392578125	-0.1400661465193281	-9.877387217322688	-2.319915960312088	3.388847285505641	-0.4465520246693004	-1.006894224690676	0.1802575107296137	-0.3883928571428571	0.6077097505668935
9611.358642578125	-0.07209373291284067	-9.504329567721378	-1.974300178103687	-0.7560639898514423	-7.053582718854316	-3.541707754766759	0.1566523605150215	-0.3950892857142857	0.6349206349206349
9630.889892578125	-0.1868403706814737	-9.715303313464904	-2.744534360424056	0.3514883285051155	3.310008000792823	1.053066377209656	0.1695278969957082	-0.3973214285714285	0.6009070294784581
9650.421142578125	-0.01154766771931903	-9.888773412211696	-1.906457717864015	2.832408397741105	3.757688389619744	3.256481356001071	0.1759656652360515	-0.3816964285714285	0.6190476190476191
9669.952392578125	-0.2874615474862505	-9.552680940080693	-1.866090149334135	6.523426280075538	5.825405967324977	1.870775617007398	0.167381974248927	-0.3794642857142857	0.6190476190476191
9689.483642578125	-0.04996216330627194	-9.847985226851788	-1.126232648964643	5.054566833942788	2.779727313432315	-1.365554857318777	0.1609442060085837	-0.4129464285714285	0.6213151927437642
9709.014892578125	-0.009495088922708344	-9.939298988504714	-1.091307434259778	2.108444568189485	-1.120751148425532	-7.500580431684329	0.1652360515021459	-0.3861607142857142	0.6190476190476191
9728.546142578125	-0.1319347021421234	-9.786559440857367	-1.092244071501947	10.59027844022047	6.097030491668837	0.8702597243193757	0.1738197424892704	-0.3950892857142857	0.6213151927437642
9748.077392578125	-0.3027606704085906	-10.32020471652824	-1.356586020365432	12.42335044413627	2.929160882285643	3.096873241786488	0.1652360515021459	-0.40625	0.6258503401360545
9767.608642578125	0.3037262090816412	-10.15455241360597	-1.80119233673555	12.85486456826206	-2.83297190469178	3.882549312570433	0.1759656652360515	-0.4084821428571428	0.6190476190476191
9787.139892578125	0.320692049899568	-9.972903890195967	-1.456960091997617	12.46104645578515	-0.6925559292105504	3.133844330134428	0.167381974248927	-0.4330357142857142	0.5714285714285714
9806.671142578125	0.2253294905050816	-9.315384608036364	-1.104377621936727	9.065426231239648	1.513421318028883	-4.150372451145424	0.184549356223176	-0.453125	0.5600907029478458
9826.202392578125	-0.1201244890421311	-9.433142189453015	-1.252857218235868	15.47696489348716	1.761348901960143	2.090486959929279	0.1888412017167382	-0.4508928571428571	0.5759637188208617
9845.733642578125	-0.1789149881467007	-10.29114014304783	-1.496256287370749	14.86885409866469	-2.905018621639304	2.844412879700478	0.1759656652360515	-0.4575892857142857	0.562358276643991
9865.264892578125	-0.06074004697996443	-10.07009967023727	-1.068852444860701	8.838021824643054	-19.25222241406472	-6.465249713467212	0.1974248927038627	-0.4575892857142857	0.5487528344671202
9884.796142578125	0.8644753167220303	-10.20056394508641	-0.733245957917306	12.77735670767516	-16.13888381152452	-1.381625178810388	0.184549356223176	-0.4888392857142857	0.5532879818594104
9904.327392578125	0.3055969686055181	-9.396995363625452	-0.9678601258579311	16.60986776253148	-4.420555562630941	-5.378992772576299	0.1824034334763948	-0.4776785714285714	0.5351473922902494
9923.858642578125	0.1546318080217284	-9.860132176666079	-1.17746651645855	20.5488897290308	-6.811187213454081	-1.679183714579807	0.2017167381974249	-0.5223214285714285	0.5192743764172336
9943.389892578125	0.6128828774621793	-10.15764398028977	-1.084206113564861	22.54026165244409	-4.710203843503889	-2.739502800458526	0.1995708154506438	-0.5245535714285714	0.5192743764172336
9962.921142578125	0.5064070788465136	-10.00506407078847	-0.6407078846513483	23.38905233776634	4.227745411128899	-4.970179860593372	0.203862660944206	-0.5290178571428571	0.5079365079365079
9982.452392578125	0.4125111949187465	-9.771801879625958	-0.4347929612624057	27.40409216062899	5.601620644040056	1.571202327419661	0.2145922746781116	-0.5580357142857143	0.4988662131519275
10001.98364257812	-0.009141510219088112	-9.515060100049325	-0.1062571413564948	27.9341438402393	3.932581997798347	-2.718053015115643	0.2210300429184549	-0.5691964285714285	0.4807256235827664
10021.51489257812	0.2912413269161124	-9.376649787006539	0.4677040430826384	32.77268964952048	2.838596779406464	-1.890917786314446	0.2317596566523605	-0.5803571428571428	0.4829931972789116
10041.04614257812	0.2113011235065967	-9.840496849618907	0.2984590779117547	33.61040986944053	0.3885850871331888	-7.245346718230723	0.2360515021459227	-0.5848214285714285	0.4829931972789116
10060.57739257812	0.2550874097246232	-10.24497511652149	0.001463109170326864	37.47867358496502	3.412679894524576	-3.960812320051701	0.2446351931330472	-0.6205357142857143	0.4875283446712018
10080.10864257812	-0.2757057977103584	-10.28007122485118	0.01955936287256569	36.7295975428181	2.605259550362603	-5.766280788532156	0.259656652360515	-0.6205357142857143	0.4580498866213152
10099.63989257812	0.3124051727200489	-10.46777051637367	0.3921357892196004	41.69434311129694	4.604984130495065	-1.010724130158148	0.259656652360515	-0.6272321428571428	0.4829931972789116
10119.17114257812	-0.0364003420878905	-10.55519155213468	0.5788097189931317	40.12511985949549	2.900899647022304	-6.42075120359686	0.2746781115879828	-0.6651785714285714	0.4648526077097506
10138.70239257812	0.05760665361765826	-10.63693970289981	0.3617836178260114	48.96166040657123	20.03702334375145	4.735697507068011	0.2532188841201717	-0.6919642857142857	0.4467120181405896
10158.23364257812	-1.1310396042133	-10.26141687668514	0.8590624621463666	49.34416971555348	18.98312241171908	5.473311162999634	0.2746781115879828	-0.703125	0.4716553287981859
10177.76489257812	-1.521629373025053	-10.41912714061319	1.142529139239977	42.01473588088461	-5.69954517960518	-4.138681053607839	0.2832618025751073	-0.7232142857142857	0.4693877551020408
10197.29614257812	-0.23557201743128	-10.14915943134084	1.108222151291267	51.03394562619103	-8.880733145314235	6.505169697214374	0.2896995708154507	-0.734375	0.4875283446712018
10216.82739257812	-0.4451175748489247	-9.631912460615149	0.6342064644843035	53.07549945243867	-7.450546860573994	6.531698910891924	0.2768240343347639	-0.7366071428571428	0.4829931972789116
10236.35864257812	-0.1288436508190684	-9.372448937229185	1.659875285988472	54.25544045621802	-2.933136222498727	2.913001322428484	0.2832618025751073	-0.7767857142857142	0.5102040816326531
10255.88989257812	-1.18237139024978	-9.907368205289423	1.91060841273314	54.76414952439793	-0.8933273560067535	7.579036407932919	0.2875536480686695	-0.7901785714285714	0.5147392290249433
10275.42114257812	-0.8157131606158015	-10.27467115122213	1.979479326886269	58.33338641119295	-11.7536143388662	8.478448475929069	0.2939914163090129	-0.7767857142857142	0.5056689342403629
10294.95239257812	-0.1086535482313286	-10.01911548471971	1.681681353745101	59.22429187182232	-16.27167665776994	12.49828174070479	0.278969957081545	-0.8013392857142857	0.5396825396825397
10314.48364257812	0.1026415146328437	-10.25355166767158	1.980746495899302	60.87870261676481	-11.95888227621947	12.12852978157231	0.296137339055794	-0.8303571428571428	0.5306122448979592
10334.01489257812	0.0277316856644904	-10.34371166029099	2.328872249877491	59.86104614231252	-3.564024018848492	5.909120155840491	0.3004291845493562	-0.84375	0.562358276643991
10353.54614257812	-0.3178192641615137	-9.794801605338185	2.190089681457487	66.4202017536284	14.04721209459169	11.61958659038564	0.2918454935622318	-0.8816964285714285	0.5827664399092971
10373.07739257812	-0.6551276990613912	-10.18536791492858	2.247463783690145	69.02496740668046	9.513732742472758	15.67385122934198	0.2660944206008584	-0.859375	0.5759637188208617
10392.60864257812	-1.243139637770006	-9.654235270288968	2.885392348429127	65.6288192569375	-1.789847860913625	13.56069069108602	0.2746781115879828	-0.8705357142857142	0.6077097505668935
10412.13989257812	-0.7309163211812914	-9.820973665071017	2.683468852823012	65.47743270670423	-18.79098470927293	14.08738655878077	0.2982832618025751	-0.8816964285714285	0.6303854875283447
10431.67114257812	-1.05611959171652	-9.676307490951524	2.55073468185604	69.83814999805826	-16.31582908052619	20.98438172242111	0.2725321888412017	-0.8638392857142857	0.6575963718820862
10451.20239257812	-0.7007887440027176	-10.02329514286301	2.731935624761554	66.44812562486182	-19.90671182559199	20.95249006240783	0.2682403433476395	-0.8727678571428571	0.671201814058957
10470.73364257812	-1.010197897922081	-10.10100913213189	3.060606118738754	66.58532127102137	-23.40348732387985	23.50818734182469	0.278969957081545	-0.8950892857142857	0.6984126984126985
10490.26489257812	-1.101081642564891	-9.332423527008695	2.965307113632004	67.313508048495	-23.35610786007664	24.60141397338362	0.2832618025751073	-0.8794642857142857	0.7097505668934241
10509.79614257812	-0.6963826157312748	-9.619298800105314	3.311730960882571	66.38641990986814	-26.15498729419566	26.40942215603141	0.2746781115879828	-0.875	0.7210884353741497
10529.32739257812	-1.064210549353174	-9.82774173289031	3.359830445521532	66.0123139743737	-27.29196520809077	25.33417312581299	0.2639484978540773	-0.8727678571428571	0.7369614512471655
10548.85864257812	-0.5135322916658176	-9.76254144476011	3.394045493112374	66.72510943065502	-31.29986927305242	25.0287958453724	0.2746781115879828	-0.8705357142857142	0.7732426303854876
10568.38989257812	-0.7940785224591784	-9.113271335987532	3.897648164285194	64.86478604742696	-24.13026241199366	23.12133215801812	0.2575107296137339	-0.8526785714285714	0.7845804988662132
10587.92114257812	-1.004591721221735	-9.000055092888795	4.540804775234754	66.76278211287608	-14.44152249693122	21.62355575931317	0.2446351931330472	-0.875	0.7868480725623583
10607.45239257812	-1.055190210753715	-9.029852138296507	4.498612912106251	64.59447727280552	-11.99491284320423	19.39745018467952	0.2768240343347639	-0.8415178571428571	0.8276643990929705
10626.98364257812	-1.362251875840671	-8.642943137807253	4.592534522842677	63.15404629367582	-15.00489397903736	16.88075576494447	0.2746781115879828	-0.828125	0.854875283446712
10646.51489257812	-0.776520717668936	-8.567992368580889	5.203092175056865	62.52581249746998	-19.39622052272468	8.638723059493195	0.2660944206008584	-0.8504464285714285	0.8798185941043084
10666.04614257812	-0.6519699806716672	-8.367217673930659	4.992916434513656	68.51368915445427	-8.606533260751892	15.48511609411387	0.2424892703862661	-0.8035714285714285	0.8843537414965986
10685.57739257812	-0.574342922454154	-8.256882833401724	5.393475918884787	70.66830768622073	2.438566177117167	12.18034739842807	0.2618025751072962	-0.8035714285714285	0.8934240362811792
10705.10864257812	-0.538011226418214	-8.358256251372183	5.841938968352014	72.70059396782256	7.526166791413128	12.8895415783488	0.2446351931330472	-0.7834821428571428	0.9251700680272109
10724.63989257812	-1.171393340460641	-8.32161939992873	5.914844250145691	67.65229134065061	2.486278689845608	5.285017572288657	0.2339055793991416	-0.7790178571428571	0.9478458049886621
10744.17114257812	-1.143017288942736	-7.624933463474211	6.138463588151144	70.88432871088236	6.312278708941363	9.987657312308091	0.2274678111587983	-0.7433035714285714	0.9750566893424036
10763.70239257812	-0.861628587623515	-7.991383714123767	6.571022027657626	69.86904974123946	2.301942918165143	9.28803063039134	0.2360515021459227	-0.734375	1.002267573696145
10783.23364257812	-0.5756115757061477	-7.822526712525768	6.540749407349465	71.20707565585164	4.08261893831132	8.937272158266294	0.2188841201716738	-0.7142857142857142	1.034013605442177
10802.76489257812	-1.32045541809429	-7.239320698344311	6.535337727796312	68.63246681211871	5.718724841233301	4.912584389988314	0.2253218884120172	-0.7232142857142857	1.058956916099773
10822.29614257812	-1.243167755852546	-7.068376403249556	6.969836809744422	71.62790680954834	10.41494170150944	12.47948785586652	0.2103004291845494	-0.6919642857142857	1.056689342403628
10841.82739257812	-1.614563387648312	-7.559611941881093	7.374706111769964	72.73452037830654	4.266621661066553	12.92281555786194	0.2210300429184549	-0.6517857142857143	1.086167800453515
10861.35864257812	-1.029505002014551	-7.545260505535411	7.032132854516362	72.78815896577301	-2.270317358656357	12.62954548959267	0.2231759656652361	-0.6138392857142857	1.08843537414966
10880.88989257812	-1.323548365944906	-6.461511991088027	6.844632512857951	71.69371837166749	1.324952154709429	11.85227952214525	0.2210300429184549	-0.5870535714285714	1.111111111111111
10900.42114257812	-1.781262017194861	-7.224611622252294	7.718038454180015	71.22311613953734	-1.334220613814532	16.54571819799364	0.2017167381974249	-0.5848214285714285	1.129251700680272
10919.95239257812	-1.493588429681475	-6.449710580349652	7.522108274269931	70.7594039472436	4.754386336252985	15.03670896378378	0.1931330472103004	-0.5558035714285714	1.158730158730159
10939.48364257812	-1.594369244632289	-6.024460347957718	7.396108136698296	69.07829307761413	-2.527176530613493	13.99676568441238	0.1909871244635193	-0.5267857142857143	1.170068027210884
10959.01489257812	-2.087778265692476	-5.898314136534996	6.737010242716993	69.87087599142365	-3.132745392990472	16.53665864282313	0.1931330472103004	-0.484375	1.192743764172336
10978.54614257812	-1.637246434486647	-5.619991172018771	7.602194469072814	68.11115475195676	-9.779208692706526	13.69023100930433	0.1738197424892704	-0.4754464285714285	1.183673469387755
10998.07739257812	-1.249066781145688	-5.65417599885521	7.559739339058588	68.13871904780179	-8.276975691018761	14.75489665585184	0.1695278969957082	-0.4598214285714285	1.210884353741497
11017.60864257812	-1.58594693064757	-5.075049621602616	7.574284901491724	67.42851610499456	-8.668678076941825	14.02518516042327	0.1738197424892704	-0.4084821428571428	1.231292517006803
11037.13989257812	-1.170880123610983	-5.129705340178033	7.904338891710531	63.48800413427166	-15.81945144921713	7.902774741062497	0.1781115879828326	-0.4151785714285714	1.249433106575964
11056.67114257812	-1.708538059927597	-4.669783306269412	7.588499870310706	66.65101159584459	-9.511795939163324	11.50008063735169	0.1931330472103004	-0.3772321428571428	1.263038548752835
11076.20239257812	-0.9452233171861204	-4.717820494100867	7.78763784106102	65.53104796474288	-4.847860141378445	10.35190531610433	0.2017167381974249	-0.3571428571428571	1.258503401360544
11095.73364257812	-1.142437405026409	-4.039080676454787	8.121291523049077	60.25572842594745	-7.170975477957962	6.312795546320112	0.1652360515021459	-0.328125	1.260770975056689
11115.26489257812	-1.808714830850106	-4.072821942600591	7.402095329908613	62.77292908104904	-1.907970680007413	10.62705627403257	0.1781115879828326	-0.296875	1.27437641723356
11134.79614257812	-1.491036899220777	-4.136604782522944	7.26695522820014	60.78446258764261	-2.904590247478985	12.03610206070246	0.184549356223176	-0.2678571428571428	1.283446712018141
11154.32739257812	-1.585896425294033	-3.307373358979383	7.569234366138006	58.28759994258905	-0.4370484280791878	10.16292823852826	0.1824034334763948	-0.2410714285714285	1.306122448979592
11173.85864257812	-1.218601828205486	-3.220137214041178	7.574468534834298	54.02002017110671	1.974515388416754	6.816050932991205	0.1738197424892704	-0.2254464285714285	1.292517006802721
11193.38989257812	-1.490218712493475	-2.974996802774056	7.185136555469922	50.58766601393847	3.834056619625007	7.088520667751585	0.1630901287553648	-0.1941964285714285	1.306122448979592
11212.92114257812	-1.27580843819427	-2.674110602486745	8.19308871738615	47.46588582708682	6.016988607280313	6.644543513922171	0.1738197424892704	-0.1495535714285714	1.321995464852608
11232.45239257812	-1.540227258267281	-2.469446212265812	8.104358479789305	45.72359716766111	5.996708122435984	5.890476085150445	0.167381974248927	-0.1540178571428571	1.337868480725624
11251.98364257812	-1.197054100485807	-2.422372893338577	8.480920252662314	40.77974086385554	4.757024422662285	1.84716126369797	0.1502145922746781	-0.1517857142857143	1.324263038548753
11271.51489257812	-1.026464497273894	-2.504886870178777	8.768898706981194	42.53859793216439	12.87002320600658	5.03861848917315	0.1566523605150215	-0.1026785714285714	1.326530612244898
11291.04614257812	-1.600906616365281	-2.196112145957559	9.070253473262751	41.27541278622474	10.8164192998596	7.192164206610792	0.1652360515021459	-0.09151785714285714	1.337868480725624
11310.57739257812	-1.928776569567272	-1.647378900970994	9.204187568972046	37.48371818168883	4.586325639210924	5.020357869831596	0.1502145922746781	-0.05580357142857142	1.346938775510204
11330.10864257812	-1.894160076566314	-2.092169510345448	8.803762758672203	35.18609314374907	-5.170725905327523	5.071975884518185	0.1309012875536481	-0.04241071428571428	1.353741496598639
11349.63989257812	-1.577738718132989	-1.9135155421116	8.794279976564214	33.5279127976417	-9.121348605728379	5.438030734815873	0.148068669527897	-0.02678571428571428	1.340136054421769
11369.17114257812	-1.681481167015223	-1.771063976208636	8.964443232134554	33.42560564099227	-12.85227106531447	10.50926503930033	0.1566523605150215	-0.02901785714285714	1.349206349206349
11388.70239257812	-1.681398338235422	-1.235711269142898	8.956160354154457	28.71575419651474	-10.56256515538383	4.636775267858234	0.1609442060085837	0.002232142857142857	1.344671201814059
11408.23364257812	-1.586441841883375	-1.216458813904399	8.644184188337455	26.5822399380862	-12.84203611563165	2.09891408078135	0.1609442060085837	0.004464285714285714	1.344671201814059
11427.76489257812	-0.8992652183082754	-1.496057852867423	9.31427693286836	28.77928616169259	-9.748977997935778	6.428471186666448	0.1587982832618026	0.03348214285714286	1.342403628117914
11447.29614257812	-1.224397781348552	-1.300887335317828	9.174472012406184	23.06836998107369	-11.45175911975159	0.2161727606031626	0.1716738197424893	0.02901785714285714	1.335600907029479
11466.82739257812	-0.957441572313833	-1.020728614579892	9.009463353832279	26.31202907133288	-3.208303890741355	6.313719303787309	0.184549356223176	0.03571428571428571	1.342403628117914
11486.35864257812	-0.8636749820911213	-1.375201634017473	8.816477800948853	25.23643648305179	-1.423892783123666	5.554938880513856	0.1609442060085837	0.06026785714285714	1.36281179138322
11505.88989257812	-0.9221745703593167	-1.202899466417619	8.543987648176561	23.07857627531787	1.402737310782711	3.684954224340976	0.1738197424892704	0.06919642857142856	1.349206349206349
11525.42114257812	-1.722204808594755	-1.083788052924154	8.955174737026573	20.84566029024677	-3.503292306572583	6.567054042539726	0.1759656652360515	0.07142857142857142	1.35827664399093
11544.95239257812	-1.070751796599009	-0.4236359163774444	9.115995986431496	18.38874992435558	5.919019584700357	-1.130264118223201	0.1630901287553648	0.08482142857142856	1.360544217687075
11564.48364257812	-1.343752527573916	-0.2289867171485033	8.86504867575897	17.36915009892256	9.241361212065337	-0.1047428403580295	0.167381974248927	0.08705357142857142	1.360544217687075
11584.01489257812	-1.511069342647761	0.1262218045375887	9.270199570898519	17.14009192845023	9.387234690946478	2.766915103170331	0.1630901287553648	0.08928571428571427	1.365079365079365
11603.54614257812	-1.938534245099513	-0.2028368797712271	9.1595469589309	13.90901663724463	1.593081844323348	5.65793296753907	0.148068669527897	0.125	1.3718820861678
11623.07739257812	-2.129928095998178	-0.3019330422723415	8.911176946756591	11.09836167533483	-2.871101148565872	2.768663856503147	0.1587982832618026	0.09375	1.36281179138322
11642.60864257812	-1.405724863951327	-0.3293770947948302	8.939833333908272	8.671393110098073	-4.351750303752363	1.655794286102795	0.1523605150214592	0.1316964285714286	1.340136054421769
11662.13989257812	-1.411852214671317	-0.894972386944196	8.532160242641936	5.546707493239565	-3.273182118575677	0.8630904314822028	0.167381974248927	0.1428571428571428	1.360544217687075
11681.67114257812	-1.620862374112608	-0.2565186489861467	9.025012921464873	5.196396252425256	-2.545755349633399	0.8488099389764938	0.1523605150214592	0.1272321428571428	1.346938775510204
11701.20239257812	-1.387062043254552	-0.4507758442139192	9.114367590761308	6.217173165549079	-1.830662207263278	0.8620745458152691	0.1394849785407725	0.1316964285714286	1.374149659863946
11720.73364257812	-1.569237615796752	-0.08531772485213351	8.964577906205843	4.352767264623365	0.1971460815817694	-2.432901727034142	0.1459227467811159	0.1316964285714286	1.333333333333333
11740.26489257812	-1.839163539619457	-0.4664568494522904	9.42655804357832	2.881315305016533	1.551073878573827	-4.634143425491163	0.1802575107296137	0.1495535714285714	1.342403628117914
11759.79614257812	-1.406056137841672	-0.2788687315508763	9.993368886207959	2.743040479034289	-1.491202736772554	-0.289939393267416	0.1394849785407725	0.1473214285714286	1.36734693877551
11779.32739257812	-1.9110975931574	-0.465737508916911	9.477106254515492	5.581810991414363	-2.49529247918715	1.935150295699296	0.1566523605150215	0.1450892857142857	1.349206349206349
11798.85864257812	-1.548671712149836	-0.1764324747976936	9.96921203131012	5.173778645435928	-0.3727252627356829	0.8266272859677302	0.1609442060085837	0.171875	1.344671201814059
11818.38989257812	-1.780490212935093	-0.2549223705979218	9.681674354733824	3.418139923666718	-1.877389990238015	-0.6322877620559402	0.1781115879828326	0.1495535714285714	1.365079365079365
11837.92114257812	-2.13925138426114	-0.7563852639351665	9.843505773052781	-0.5715918708643999	-12.32551910483074	-0.2478888765848079	0.1652360515021459	0.1339285714285714	1.351473922902494
11857.45239257812	-1.967976969684123	-0.6368858868688155	9.042594927595953	2.948303954826489	-3.501480898491081	-4.222565874508487	0.1566523605150215	0.1383928571428571	1.349206349206349
11876.98364257812	-1.327718005475215	-0.683692516914945	9.302412792419448	4.696403474265924	-1.27247280868951	-2.771045044154405	0.167381974248927	0.1584821428571428	1.369614512471655
11896.51489257812	-1.993320638546796	-0.3235011370488756	9.536145487332625	2.107580397031457	0.3457843352027085	-7.155550839727945	0.1566523605150215	0.1607142857142857	1.346938775510204
11916.04614257812	-1.953898014874381	-0.5259155653058017	9.675515773152361	8.627334983810224	4.031744639778171	2.650214864789215	0.1609442060085837	0.1674107142857143	1.342403628117914
11935.57739257812	-1.995698430591326	-0.7376187732698445	9.773924691785629	5.788036546232707	-8.47372346843305	5.596181418846395	0.1695278969957082	0.1584821428571428	1.353741496598639
11955.10864257812	-1.146059607753235	-0.523892939276003	9.503919958996978	8.455372085436457	-8.225462835576559	3.848484372222768	0.167381974248927	0.1763392857142857	1.353741496598639
11974.63989257812	-0.9904721972137234	-0.5254488133813983	9.251301354025401	8.057784371794659	-5.722875178945711	3.096082280951969	0.1802575107296137	0.1785714285714285	1.349206349206349
11994.17114257812	-1.438741347352228	-0.5310671319810233	9.180257184202352	0.7522198102462417	-10.56269184371433	-0.9584653760054139	0.1545064377682404	0.1629464285714286	1.376417233560091
12013.70239257812	-1.177120523865176	-0.2811580876906413	9.54878708039513	6.984233042362405	-1.367564785221161	3.031058150426079	0.1609442060085837	0.1763392857142857	1.337868480725624
12033.23364257812	-1.419733070037258	0.2869246034276454	9.320245779235963	5.940525605716475	-5.413598094056907	1.611795413918208	0.1738197424892704	0.1897321428571428	1.333333333333333
12052.76489257812	-1.470703278971272	0.03490905299173291	9.315225856310819	4.521848062418075	-9.130073833159519	-0.537686760851698	0.1716738197424893	0.1919642857142857	1.374149659863946
12072.29614257812	-1.612130967364242	0.1777374712898041	9.172280409893551	4.296559493110628	-9.346372035427997	2.337668291511457	0.1609442060085837	0.1785714285714285	1.344671201814059
12091.82739257812	-1.587791344929888	0.3593122568836424	8.779134492988778	5.215244258249696	-4.356613755381495	0.8672954831504636	0.1652360515021459	0.203125	1.344671201814059
12111.35864257812	-1.029805931463913	0.2022172512338311	9.103042125983123	4.064810901296097	-2.299274761763001	-1.694272185435585	0.1716738197424893	0.2120535714285714	1.378684807256236
12130.88989257812	-1.17538718013178	-0.1397612797138337	9.375452707055555	0.789266659401758	-4.712285574319806	-7.131336415385314	0.1931330472103004	0.1875	1.340136054421769
12150.42114257812	-1.378005382029406	0.1147901548303951	9.229109631512047	3.237437405844564	3.032374714588791	-3.922409531403098	0.1630901287553648	0.1964285714285714	1.333333333333333
12169.95239257812	-1.301083378547272	0.05341487418951313	9.700174589421069	2.571605505857965	-0.2388523615014674	-4.262726128857754	0.1695278969957082	0.2053571428571428	1.340136054421769
12189.48364257812	-1.299574278583581	0.06350079329088633	9.549264593051999	5.268546599755571	4.08254055914965	-4.252001236186313	0.1974248927038627	0.2053571428571428	1.360544217687075
12209.01489257812	-1.188963060391432	0.5977482164625003	9.712632569755428	3.992324308005199	6.048522663708007	-1.419487661340286	0.1716738197424893	0.2388392857142857	1.326530612244898
12228.54614257812	-1.96050011591762	0.3731403546945298	9.315317714210966	-0.1166192980190592	-1.247153874716723	-3.22727091915566	0.1502145922746781	0.2098214285714285	1.351473922902494
12248.07739257812	-1.445543408366614	0.3679907876190197	9.860463285640982	2.39272923821998	-0.7637759678302763	-0.304219885773125	0.167381974248927	0.2232142857142857	1.319727891156463
12267.60864257812	-1.202876357641572	0.04233179387944603	9.063145968238828	-0.01916092235721962	-3.693111847615245	-1.402301020834301	0.1738197424892704	0.21875	1.326530612244898
12287.13989257812	-1.677081099386205	0.1581849524080035	9.544844632498018	-0.3401795250104517	-4.396523044241681	-1.041975050705274	0.1802575107296137	0.2165178571428571	1.340136054421769
12306.67114257812	-1.585165025317095	0.5310031654046862	9.536910694974788	-0.3372740950035907	-3.29215924176306	-0.6932483499140959	0.1866952789699571	0.2209821428571428	1.353741496598639
12326.20239257812	-1.320443173122861	0.3263357448625419	9.595337720449329	-0.4271932683356545	-1.570544631163778	-2.510824030565867	0.184549356223176	0.2276785714285714	1.36281179138322
12345.73364257812	-1.279658925119084	0.04309961955422115	9.598545573132851	-4.002866848209951	-3.926925759988254	-6.875320453465037	0.1888412017167382	0.2232142857142857	1.351473922902494
12365.26489257812	-1.092980295255509	-0.2516964596737075	9.298029525550893	0.2783759021486577	0.6498649195371483	-1.439780052015708	0.1952789699570815	0.2276785714285714	1.326530612244898
12384.79614257812	-1.489291310515952	0.03509493330717973	10.15362084751358	1.42794508794423	0.05906140954689396	1.466817208526725	0.1630901287553648	0.21875	1.340136054421769
12404.32739257812	-1.273438644548585	0.2854616591727586	9.996925679348347	-0.3862789101471341	1.416072613181991	-0.7413107647664173	0.1759656652360515	0.2321428571428571	1.342403628117914
12423.85864257812	-1.429494785997782	0.05469898826401823	9.276009212023116	-1.064283784786424	0.697896064168831	-0.7476890967690715	0.1587982832618026	0.2053571428571428	1.36281179138322
12443.38989257812	-1.437581703206154	0.06488086753711206	10.08470093286031	-6.007588833966744	-7.512293372596449	-6.519848986838263	0.167381974248927	0.2053571428571428	1.346938775510204
12462.92114257812	-1.761035468294855	-0.01269267562008176	9.777016217240575	-5.319139326990817	-6.414096383403907	-6.157349736374842	0.1866952789699571	0.2165178571428571	1.344671201814059
12482.45239257812	-1.281440753991875	-0.01748862276311156	9.776728460411993	-1.073864245965034	-1.148659859638791	-1.448839607186222	0.1995708154506438	0.2142857142857143	1.344671201814059
12501.98364257812	-1.282687226117172	0.3764632358975354	9.901375672941732	0.003769601164887951	-0.3621716811496193	0.003697108834793953	0.1587982832618026	0.2098214285714285	1.376417233560091
12521.51489257812	-1.718087570945545	0.1383929969215767	9.563859135370851	-1.017007311958934	-1.07726482351974	-0.009567498003981286	0.1609442060085837	0.2120535714285714	1.335600907029479
12541.04614257812	-1.860440517415316	0.1398165263862744	9.513439496633683	0.1287922726717501	-1.305896652360375	2.893332653703657	0.184549356223176	0.2098214285714285	1.340136054421769
12560.57739257812	-1.139594881271617	0.1528100902268576	9.877855474100482	0.721511746301891	-0.6948126575257918	0.7408028219329504	0.1738197424892704	0.234375	1.351473922902494
12580.10864257812	-1.216654259315372	-0.2302576998310887	9.42052797235357	-0.6875853358178994	-2.564732472820782	-0.7075288424198048	0.1888412017167382	0.2276785714285714	1.349206349206349
12599.63989257812	-1.355207141756147	0.1751682330337231	10.01051009398203	-0.005810860013721858	-2.208727604957241	-0.6974534015823567	0.1716738197424893	0.2165178571428571	1.328798185941043
12619.17114257812	-1.151978835187792	0.5872773641094539	10.09584270245263	1.060514183621536	-0.3357243830192116	0.7439919879342776	0.1781115879828326	0.2254464285714285	1.346938775510204
12638.70239257812	-1.383312484579092	0.2057523167649829	9.759819886480647	-1.057921670147455	-4.063882067865509	-1.779080763803431	0.2017167381974249	0.21875	1.36734693877551
12658.23364257812	-1.476416444563396	0.2975924472739169	9.886542415523305	1.003657249615437	-0.4071194191382627	-0.6952801212479633	0.1802575107296137	0.21875	1.351473922902494
12677.76489257812	-1.398045988770676	-0.3294538835466367	9.192353979108416	-0.05222316168318416	-1.900102200896911	-1.780604592303831	0.1759656652360515	0.2232142857142857	1.346938775510204
12697.29614257812	-1.65166672302858	-0.1046954539818354	9.044223323266142	1.128679921122299	-1.350844390349019	2.1943554236209	0.1695278969957082	0.2209821428571428	1.360544217687075
12716.82739257812	-1.393142887820428	-0.2486948337480584	9.722452047348856	-9.266326328885476	-14.30706187700821	-12.63218396536159	0.1652360515021459	0.2477678571428571	1.346938775510204
12736.35864257812	-1.062814334008247	0.3237594564713956	9.342657890620609	0.2972239079730974	-1.160993486210948	-1.421294507841738	0.1695278969957082	0.1897321428571428	1.351473922902494
12755.88989257812	-1.796189379486308	-0.02244214660917733	9.210774683324663	-2.189507021276614	-3.817401479995111	-4.32216288821551	0.1802575107296137	0.2254464285714285	1.353741496598639
12775.42114257812	-1.566488063121328	-0.2873654223990898	9.710030801928784	-6.823966442456394	-8.771129193056856	-10.12071048296172	0.1909871244635193	0.2209821428571428	1.349206349206349
12794.95239257812	-1.65445259832969	0.3296758391146101	9.322810853377181	-0.4318270406585694	0.258162533614082	-2.169491547444276	0.1759656652360515	0.2165178571428571	1.346938775510204
12814.48364257812	-1.509713778958823	0.05550117819362865	9.134643202004751	-0.09659420450381255	0.9794224892702814	-2.169999490277743	0.1716738197424893	0.2165178571428571	1.353741496598639
12834.01489257812	-1.949047480720671	0.3124197677364997	9.190462357781364	-0.1003638056687005	1.341594170419901	-2.173696599112537	0.1759656652360515	0.2299107142857143	1.344671201814059
12853.54614257812	-1.724986643467583	0.01724986643467583	9.233358224309315	-2.943216835746443	-2.796114659379225	-5.786298873574374	0.1630901287553648	0.2388392857142857	1.317460317460317
12873.07739257812	-1.898964145794769	0.1907068131751194	9.284169681517781	0.9233185374619828	3.161051115268643	-1.811705291482584	0.1824034334763948	0.2254464285714285	1.346938775510204
12892.60864257812	-0.8531273616006981	0.4125716776564111	9.802532078437164	-0.8398593866370042	2.380729750065549	-3.278014557175842	0.1824034334763948	0.2254464285714285	1.319727891156463
12912.13989257812	-2.084519536595677	-0.03976086524010383	9.47236182283307	-1.520769691283155	0.5581893985737681	-3.633119589969674	0.1824034334763948	0.2209821428571428	1.342403628117914
12931.67114257812	-1.55628594047796	-0.1157502719083517	9.710226700857218	-5.057883088350545	-6.886444025375142	-8.305674516477289	0.1888412017167382	0.2209821428571428	1.349206349206349
12951.20239257812	-1.406197552831576	0.1251730866394269	10.00751038519837	-3.531302537053669	-5.235905818991669	-3.975101524925257	0.1695278969957082	0.203125	1.356009070294785
12970.73364257812	-2.150388907280878	0.1225139900829098	8.916441748495885	-0.01421423350152478	-0.01784875902976276	-0.3598180272955602	0.1652360515021459	0.2120535714285714	1.356009070294785
12990.26489257812	-1.936766557725712	0.5547212009307926	8.982778221550799	-0.6809103046461504	-1.822540351491781	-0.3551050327938325	0.1759656652360515	0.234375	1.340136054421769
13009.79614257812	-2.001322747990085	0.3836495911162646	9.315948268396271	-2.126839227256793	-1.537278838918818	-2.185437377450912	0.1802575107296137	0.2053571428571428	1.346938775510204
13029.32739257812	-2.006514739562566	0.1109742383047166	8.814739262379092	-0.3569862719860575	-0.01476535238672349	-0.3667043021316813	0.1695278969957082	0.234375	1.356009070294785
13048.85864257812	-1.31940882348242	0.285921360962097	9.491902756405203	-0.6959887093057022	-0.3738536268933035	-0.3698934681330084	0.1437768240343348	0.2254464285714285	1.340136054421769
13068.38989257812	-1.981932650202374	0.06022336690606415	9.41775481615578	-1.84092412277836	-1.611757281680909	-3.617823211797032	0.1759656652360515	0.2299107142857143	1.319727891156463
13087.92114257812	-1.639137272465358	-0.1048207484874677	9.832094593474592	-7.451789414261333	-10.16010282727997	-9.040240515408112	0.184549356223176	0.2075892857142857	1.36281179138322
13107.45239257812	-1.163288076409555	-0.09947823034701557	9.185950498098373	1.035855317783374	-0.7335935822283565	0.02805304217795105	0.1738197424892704	0.2299107142857143	1.346938775510204
13126.98364257812	-1.096067182463701	0.5160111768751422	9.606718246370086	0.3001293379799584	-0.05662968373232757	-1.07256780705056	0.167381974248927	0.234375	1.35827664399093
13146.51489257812	-1.314859301235791	-0.562608982745218	9.03695053174236	0.6553872676499619	2.891206635910876	-0.01580432100610953	0.1652360515021459	0.2321428571428571	1.335600907029479
13166.04614257812	-1.837177669118375	-0.07253731421790718	9.22797099347016	-6.104183038470556	-6.532870883326168	-8.689848477116007	0.1566523605150215	0.2455357142857143	1.351473922902494
13185.57739257812	-1.40229045868194	0.3473562379201528	9.616800970234808	-6.054001135636206	-7.203667968536118	-7.603000177559737	0.167381974248927	0.2120535714285714	1.365079365079365
13205.10864257812	-1.53667967977711	0.3790031604341348	9.790416957302817	1.97715768991177	2.083134610920429	-1.420137113174278	0.1566523605150215	0.2299107142857143	1.342403628117914
13224.63989257812	-1.921394665865418	-0.1424022149575075	9.486405362052047	-0.7348618086453887	-0.7895715851322112	-1.445650441184895	0.1652360515021459	0.21875	1.331065759637188
13244.17114257812	-1.801243955268308	-0.184007762467519	9.716232261524677	-6.763339907285405	-9.061905838087423	-8.677741264944691	0.1931330472103004	0.2209821428571428	1.365079365079365
13263.70239257812	-1.59193884456236	0.3694547419809772	9.193884456236033	-3.242482002568375	-4.206020459275138	-5.058760658480199	0.1566523605150215	0.2120535714285714	1.353741496598639
13283.23364257812	-1.796074227280243	0.2906880150000752	9.199259462718189	0.3494470696562816	0.7391087146859622	0.3593100844620934	0.1866952789699571	0.2232142857142857	1.356009070294785
13302.76489257812	-1.501063180776116	0.287737904535034	9.289991546999376	-2.536048660926035	-3.452146392202452	-4.332746271886425	0.167381974248927	0.2321428571428571	1.351473922902494
13322.29614257812	-1.479317513299431	-0.2579340975942785	9.156241125861516	-1.419541714456427	-2.249940255474372	-1.804452582813522	0.1716738197424893	0.1986607142857143	1.36734693877551
13341.82739257812	-1.590880252352221	-0.2164144297997102	9.088025235222119	-1.038760747790235	-0.3707702202502642	-0.3767797429691294	0.167381974248927	0.2276785714285714	1.351473922902494
13361.35864257812	-1.389108520179878	0.2664163377270514	9.319015283293927	-0.7139725439721151	-0.02953070477344698	-0.7334086042633625	0.1802575107296137	0.234375	1.335600907029479
13380.88989257812	-1.154318284392493	-0.2308810595803175	9.309379459657507	-1.135354952294048	0.6086522690200171	-2.546779233246873	0.167381974248927	0.2299107142857143	1.349206349206349
13400.42114257812	-1.402193488403148	0.1857391066012032	9.607103942355669	-0.7374543221194697	3.610034865752509	-0.4105616653157418	0.1652360515021459	0.2142857142857143	1.353741496598639
13419.95239257812	-1.270432565906053	0.3258356387903737	9.696317815095101	-5.000713237811666	-1.31107873589275	-5.482586930634716	0.1716738197424893	0.2142857142857143	1.342403628117914
13439.48364257812	-1.550304086405017	0.01550304086405017	9.112041293562955	-0.7629773591156584	4.678701150171604	-0.781471019115684	0.1802575107296137	0.2388392857142857	1.337868480725624
13459.01489257812	-1.770896174748312	0.593466537505059	9.742678699321011	-0.06408321980309517	6.156918579543529	-0.06285085019149721	0.1695278969957082	0.2254464285714285	1.344671201814059
13478.54614257812	-2.069371929733949	-0.02981133120771103	8.978009299925519	-4.624878960001169	-3.107171789254123	-5.097397084329065	0.1566523605150215	0.2366071428571428	1.342403628117914
13498.07739257812	-1.575676038265671	0.2076759523018487	9.608420153097709	0.009580461178609809	1.846555923807622	0.7011505104171507	0.1652360515021459	0.2165178571428571	1.340136054421769
13517.60864257812	-1.278574070125105	0.2552099831254935	9.490060073735005	-0.7043920827935053	1.817025219034175	-0.03225809384621187	0.1695278969957082	0.2299107142857143	1.353741496598639
13537.13989257812	-1.93233416667043	0.2415455638889266	9.559947279287883	-1.792470562260064	0.6505166003656212	-1.840915728327994	0.1695278969957082	0.2299107142857143	1.36734693877551
13556.67114257812	-1.617951204305865	-0.05452755866401206	9.754304104055919	-7.09943691459819	-8.316630310115384	-8.33220373015484	0.1373390557939914	0.2053571428571428	1.337868480725624
13576.20239257812	-1.543124204117313	0.005330231940163026	9.414461228057826	-0.6997583104705902	-0.01168194574368421	-0.3735905769678023	0.1630901287553648	0.2254464285714285	1.342403628117914
13595.73364257812	-1.27860841376551	-0.3609512895997187	9.493494437775533	0.721511746301891	-0.6948126575257918	0.7408028219329504	0.1781115879828326	0.234375	1.351473922902494
13615.26489257812	-1.186688299268117	-0.3315674604416624	9.485156457424006	0.2954955656570434	1.772077481045532	-0.7312353239289692	0.1630901287553648	0.2120535714285714	1.376417233560091
13634.79614257812	-1.107107693975787	-0.1101410442723634	9.690361234313357	-1.06255544247037	-2.235174903087649	-1.43774828068184	0.1437768240343348	0.234375	1.344671201814059
13654.32739257812	-1.848703032024418	0.1093961212293351	9.360099120809116	0.03683184049085249	-2.155181327867953	0.3820006803043239	0.1394849785407725	0.2299107142857143	1.346938775510204
13673.85864257812	-1.539477676363069	0.3285260898949439	10.07021661589875	2.064171433236972	-0.7428438021574744	0.0487118666863142	0.148068669527897	0.2410714285714285	1.351473922902494
13693.38989257812	-1.630129096379608	0.03650331116581629	9.9516851481649	-0.7415368398171376	-1.531763706461213	-1.798074250810867	0.167381974248927	0.2366071428571428	1.3718820861678
13712.92114257812	-1.621288598067602	0.7939906637584538	10.08804348022955	-0.002905430006860929	-1.104363802478621	-0.3487267007911783	0.1738197424892704	0.234375	1.353741496598639
13732.45239257812	-1.615737049606796	0.6323189866576842	9.532888634148957	-2.561571697922224	-2.383480107783357	-4.703655625686366	0.1587982832618026	0.2321428571428571	1.340136054421769
13751.98364257812	-1.749273740334258	0.4215331414437467	9.621251584446222	0.0008641711580270224	-1.46653548362824	-0.3450295919563844	0.1716738197424893	0.2299107142857143	1.356009070294785
13771.51489257812	-1.290263070376608	0.204821822622958	9.638551935620006	-2.463249151102357	-6.295973564310119	-3.223715319321392	0.167381974248927	0.1964285714285714	1.337868480725624
13791.04614257812	-1.567433523339544	0.2783005978596581	9.804576823750368	-0.04554813051143528	-1.157910079567909	-1.428180782677859	0.167381974248927	0.2209821428571428	1.356009070294785
