Time Stamp	Accelerometer X	Accelerometer Y	Accelerometer Z	Gyroscope X	Gyroscope Y	Gyroscope Z	Magnetometer X	Magnetometer Y	Magnetometer Z
1140.655517578125	-1.342916365063641	-9.047176896955426	3.679391608404897	-30.62664697755023	-5.079447395429054	-13.5113787533665	0.1351931330472103	-0.3928571428571428	0.6961451247165533
1160.186767578125	-0.09026362135909363	-9.362733727422775	-2.198127660009003	2.259303193225315	2.370827849307958	-2.856220056355192	0.1309012875536481	-0.3995535714285714	0.6643990929705216
1179.718017578125	0.06215609340656663	-9.808702369014876	-2.133976687595438	-2.525604028589398	-3.07212595202307	-3.976625353425658	0.1309012875536481	-0.3883928571428571	0.653061224489796
1199.249267578125	0.4379134087626624	-9.681146810855305	-1.954606182388692	0.03769601164887951	-3.621716811496194	0.03697108834793953	0.1394849785407725	-0.4129464285714285	0.6598639455782314
1218.780517578125	-0.09427172621580358	-9.584915868596429	-1.797317174338008	0.1287922726717501	-1.305896652360375	2.893332653703657	0.1309012875536481	-0.3995535714285714	0.653061224489796
1238.311767578125	-0.09981725526304508	-9.605062433507976	-2.263172432879166	0.7139725439721151	0.02953070477344698	0.7334086042633625	0.148068669527897	-0.3950892857142857	0.6666666666666666
1257.843017578125	-0.1868342688101892	-9.04863670781695	-1.724736384287199	-0.05018190283435026	0.6707970852099504	-1.086848299556268	0.1459227467811159	-0.4017857142857142	0.6643990929705216
1277.374267578125	-0.3398721691031444	-9.087510369218061	-1.727068803971266	0.3068043691517073	0.6855624375966739	-0.7201439974245873	0.1373390557939914	-0.40625	0.6689342403628118
1296.905517578125	-0.2245740541027455	-9.462400724105439	-2.032390508092791	0.2992651668219314	1.409905799895913	-0.7275382150941753	0.111587982832618	-0.40625	0.6870748299319728
1316.436767578125	-0.7625047193284603	-9.558031518463283	-2.320956638582545	-0.6704656723095137	-1.442519911312399	0.001015885666933716	0.1416309012875537	-0.3950892857142857	0.6825396825396826
1335.968017578125	0.5599388780830726	-9.480346863528307	-1.912255155246042	-0.6687373299934597	-4.375590878568879	-0.6890432982458351	0.1351931330472103	-0.40625	0.671201814058957
1355.499267578125	-0.06320272924729695	-9.504418477758035	-1.842992381392755	-1.081403448294809	-0.4243164973395526	-1.45623382485581	0.1566523605150215	-0.4129464285714285	0.6666666666666666
1375.030517578125	0.1959675332572713	-9.719131392504291	-2.249814550216924	0.06816573750076299	-1.015120007329807	1.450363435686623	0.1351931330472103	-0.4084821428571428	0.6666666666666666
1394.561767578125	0.1100333544899641	-9.78897912142369	-1.819661979608654	0.02175343583130069	-0.7064946032694759	0.3672122449651481	0.1266094420600858	-0.40625	0.673469387755102
1414.093017578125	0.2795784657618686	-10.15431093617277	-2.447642494554205	-0.4498108753249822	0.6024854557339386	-2.533006683574631	0.1394849785407725	-0.3883928571428571	0.6643990929705216
1433.624267578125	-0.6710128902290626	-9.488239366047205	-2.28646607913455	-0.06149070632901411	1.757312128658808	-1.09793962606065	0.1437768240343348	-0.3950892857142857	0.6757369614512472
1453.155517578125	-0.4160769965650509	-9.88472811892324	-2.269851363903071	-0.6043411936575847	-5.028539204749066	0.7576230286059937	0.1309012875536481	-0.4040178571428571	0.6621315192743764
1472.686767578125	0.4276042147697949	-9.842659880531539	-1.944094946367246	0.3540808419791966	-1.089598450091897	0.01797760134050291	0.1523605150214592	-0.40625	0.671201814058957
1492.218017578125	0.2615823569606435	-9.457161278115063	-1.668439777697005	0.2917259644921555	2.134249162195151	-0.7349324327637631	0.1394849785407725	-0.4040178571428571	0.6666666666666666
1511.749267578125	-0.2343862754168073	-9.442100581690278	-2.071576539951922	-0.7612490167996044	1.745630182915124	-1.471530203028453	0.1566523605150215	-0.4196428571428571	0.6507936507936508
1531.280517578125	-0.03075796644843773	-9.696662117305214	-2.026244171482757	1.385302387439656	0.005515132457605664	0.3873631266400444	0.1244635193133047	-0.390625	0.6848072562358277
1550.811767578125	0.1540398440494127	-9.718712115612213	-2.138678282492288	-1.031221545460459	-1.095113582549503	-0.3693855252995415	0.1695278969957082	-0.4107142857142857	0.6666666666666666
1570.343017578125	0.2166687500228073	-9.870853556187098	-2.279119900239913	-1.10315688412611	0.2821781059299234	-1.823446069820958	0.1416309012875537	-0.390625	0.6507936507936508
1589.874267578125	-0.008058757896971205	-9.979717392219012	-2.255348700098797	0.2954955656570434	1.772077481045532	-0.7312353239289692	0.1545064377682404	-0.3995535714285714	0.6757369614512472
1609.405517578125	0.2723380182787796	-9.871410248869658	-1.723597746245311	0.6968528804637294	-1.092681856734937	0.02486387617662396	0.1351931330472103	-0.4084821428571428	0.6825396825396826
1628.936767578125	0.0118727572806583	-9.353654081108163	-2.207683891331136	0.9413023721283955	2.816728193148786	-1.448190155352229	0.1502145922746781	-0.40625	0.6507936507936508
1648.468017578125	-0.2640290012014243	-10.04786476049304	-2.168528451286148	0.2424082328158323	1.338510763776862	-2.166810324276416	0.1394849785407725	-0.4107142857142857	0.655328798185941
1667.999267578125	-0.2347882980309632	-9.613813733181308	-2.031374278536333	0.08787791448322976	-4.292513896706144	1.123819387904208	0.1459227467811159	-0.4017857142857142	0.6575963718820862
1687.530517578125	0.06234801375000788	-9.960219439733462	-2.153168721939563	-4.3609323000187	-10.48074322600921	-0.3421234439561092	0.1309012875536481	-0.4129464285714285	0.671201814058957
1707.061767578125	0.3009564954936628	-9.578767140712515	-1.524220977937701	-0.3862789101471341	1.416072613181991	-0.7413107647664173	0.1223175965665236	-0.4107142857142857	0.6802721088435374
1726.593017578125	0.1165344035972688	-9.849650192520823	-2.469766890339129	-1.467682358441943	0.9917561158424386	-2.197544589622227	0.1330472103004292	-0.4129464285714285	0.6893424036281179
1746.124267578125	-0.26145524838517	-9.623648073778776	-2.425903732911575	1.013237710794046	1.43943650466936	0.005870389169187333	0.1330472103004292	-0.40625	0.671201814058957
1765.655517578125	0.08645127112980777	-9.889753401600187	-2.522678133388941	0.01711966350838571	1.122212561508384	0.7085447280867386	0.1244635193133047	-0.40625	0.673469387755102
1785.186767578125	-0.2841483962942121	-9.350693869572414	-2.197405268537981	-0.003769601164887951	0.3621716811496193	-0.003697108834793953	0.1459227467811159	-0.4084821428571428	0.6984126984126985
1804.718017578125	-0.02381040878700436	-9.656327552477787	-1.700591774360789	-0.3645254743158334	0.7095780099125152	-0.3740985198012692	0.1373390557939914	-0.4040178571428571	0.671201814058957
1824.249267578125	-0.2889605463792338	-9.411251808677624	-1.716190260035809	-0.6449426353133251	-2.511186195731494	0.3719252394668758	0.1287553648068669	-0.40625	0.6621315192743764
1843.780517578125	0.3231082260127863	-9.791109870138918	-1.698577703319446	-3.437613762556717	-7.319692110740571	-2.153828735438693	0.1266094420600858	-0.3928571428571428	0.655328798185941
1863.311767578125	0.07394610436514404	-9.75831521861941	-2.292569620187872	-0.8056200596202328	4.625154873082316	-1.860925101002365	0.1373390557939914	-0.4174107142857142	0.6689342403628118
1882.843017578125	-0.4914474343576632	-9.207206737777637	-1.875664727498982	-1.059650012463509	-1.130811100609028	-1.089021579890662	0.1309012875536481	-0.3995535714285714	0.673469387755102
1902.374267578125	-0.07178464014919318	-10.01948417380053	-2.005209454468436	-3.540882998232279	-7.082461742799291	-4.676252035342408	0.1437768240343348	-0.4040178571428571	0.655328798185941
1921.905517578125	0.05475196734915722	-9.424789943915917	-2.413972245119804	0.6487122364782131	2.149014514581875	-0.3682281306320819	0.1266094420600858	-0.4174107142857142	0.671201814058957
1941.436767578125	-0.1538299066941382	-9.331795034266394	-1.963948106096388	-0.3465416396494207	0.3652550877926586	-0.010583383670915	0.1330472103004292	-0.3973214285714285	0.6802721088435374
1960.968017578125	0.05863283994381353	-9.323818651631763	-1.781651341320128	-0.652481837643101	-1.786842833432255	0.3645310217972879	0.1330472103004292	-0.3995535714285714	0.6598639455782314
1980.499267578125	0.6911563629761082	-9.612972169690368	-1.768697522100614	-0.3088456280005412	-3.256461723703535	0.02638770467702453	0.1373390557939914	-0.3928571428571428	0.6621315192743764
2000.06103515625	0.4405295860758879	-9.832688124143589	-2.216223913711242	-0.3900485113120221	1.77824429433161	-0.7450078736012112	0.1266094420600858	-0.3995535714285714	0.6757369614512472
2019.561767578125	-0.1408742321759228	-9.877379136466121	-2.239107394652614	-0.7650186179644923	2.107801864064743	-1.475227311863247	0.1373390557939914	-0.4040178571428571	0.6689342403628118
2039.093017578125	-0.3134436452464932	-9.693835260517234	-2.329104863105782	-1.10315688412611	0.2821781059299234	-1.823446069820958	0.148068669527897	-0.390625	0.6598639455782314
2058.624267578125	-0.1326115151083815	-9.503724389899423	-2.04497093814144	0.3900485113120221	-1.77824429433161	0.7450078736012112	0.1244635193133047	-0.3883928571428571	0.6598639455782314
2078.155517578125	0.326310265427043	-9.740636840028008	-2.018781644745115	-0.6733711023163745	-2.54688371379102	-0.3477108151242447	0.148068669527897	-0.3950892857142857	0.6598639455782314
2097.686767578125	0.2231334765044253	-9.699201031734743	-1.905184385136408	0.6893136781339535	-0.3683384944356979	0.01746965850703605	0.1330472103004292	-0.3928571428571428	0.6394557823129252
2117.218017578125	-0.05661885136019123	-9.534787346839934	-2.501380170103326	-0.3201544314952051	-2.169946680254677	0.01529637817264267	0.1351931330472103	-0.3995535714285714	0.6575963718820862
2136.749267578125	0.3669086537298032	-9.882456965325179	-1.996987821959915	-0.7035279116354782	0.3504897354059351	-0.3772876858025963	0.1416309012875537	-0.4017857142857142	0.6598639455782314
2156.280517578125	-0.4179840787146145	-9.399860563253259	-2.079143148946711	0.652481837643101	1.786842833432255	-0.3645310217972879	0.1223175965665236	-0.3995535714285714	0.671201814058957
2175.811767578125	-0.4362367959406684	-9.793617430020394	-2.294687752871931	0.2670670986539939	1.736379962986007	-1.45087137852009	0.1287553648068669	-0.3973214285714285	0.6757369614512472
2195.343017578125	0.05085093384194608	-9.657074165904078	-2.023868894398689	-1.406191652112929	-0.7655560128163699	-1.099604963561577	0.1266094420600858	-0.4196428571428571	0.6621315192743764
2214.874267578125	-0.4162668966943507	-9.904928240123969	-2.250861350973095	-3.907136814864166	-3.439812765630295	-4.360291371230908	0.1287553648068669	-0.4196428571428571	0.6757369614512472
2234.405517578125	0.09808980725663369	-9.415122312213983	-1.64571541954092	0.32478820381812	0.3412395154768173	-0.3566288612942332	0.1394849785407725	-0.3794642857142857	0.6666666666666666
2253.936767578125	0.470139988434241	-10.01480240998536	-2.116039659750637	0.3674309043226944	0.3947857925661056	0.7228252205924476	0.1373390557939914	-0.4017857142857142	0.6666666666666666
2273.468017578125	0.04366297069767577	-9.970133599403949	-2.325480743236964	0.6959887093057022	0.3738536268933035	0.3698934681330084	0.1437768240343348	-0.4174107142857142	0.6689342403628118
2292.999267578125	0.2578408791417498	-9.790457196670207	-2.31470015907294	-0.392953941318883	0.6738804918529897	-1.09373457439239	0.148068669527897	-0.3950892857142857	0.655328798185941
2312.530517578125	-0.3456338610635251	-9.420786085631791	-2.171307771198514	0.6344980029766882	2.131165755552112	-0.728046157927642	0.1351931330472103	-0.4151785714285714	0.6666666666666666
2332.061767578125	-0.3538642547048026	-9.511612872604468	-2.368676570336066	-0.3314632349898689	-1.083431636805819	0.004205051668260811	0.1309012875536481	-0.4017857142857142	0.6757369614512472
2351.593017578125	-0.01047897443847248	-9.818077028437436	-2.013327045948671	-1.059650012463509	-1.130811100609028	-1.089021579890662	0.1523605150214592	-0.390625	0.6825396825396826
2371.124267578125	0.1937432774874942	-10.05244248327993	-2.02738897323922	-0.3172490014883441	-1.065582877776056	0.364023078963821	0.1180257510729614	-0.3883928571428571	0.6598639455782314
2390.655517578125	0.4285638164870011	-9.590144224023458	-2.040055118087872	-2.116394594920157	-1.157258398739436	-1.829316458990146	0.1437768240343348	-0.4084821428571428	0.6621315192743764
2410.186767578125	-0.05194605482207208	-9.575238115209357	-1.948251660649935	0.2992651668219314	1.409905799895913	-0.7275382150941753	0.1201716738197425	-0.3973214285714285	0.6439909297052154
2429.718017578125	-0.06102897883105706	-9.423632134454115	-2.060367423016742	-1.334256313447278	-2.142847701295796	0.3544555809598398	0.1266094420600858	-0.4174107142857142	0.673469387755102
2449.249267578125	0.4586812925948675	-9.94398075231989	-1.990578239078588	-1.373129412786965	-2.558565659534703	-0.721301392092047	0.1309012875536481	-0.4084821428571428	0.673469387755102
2468.780517578125	0.2126040791701357	-9.830408869074532	-1.872652814972755	-2.878820699410568	-3.449062985559413	-4.339632546722545	0.1416309012875537	-0.4040178571428571	0.6598639455782314
2488.311767578125	-0.499728333352478	-9.550558272222032	-2.067982991282817	0.9772700414612209	2.128082348909073	-0.721159883091521	0.1287553648068669	-0.4151785714285714	0.6485260770975056
2507.843017578125	-0.3062334597466665	-9.754513422978292	-2.029715249823142	-0.7026637404774512	-1.116045748222305	-0.7223172777589807	0.1394849785407725	-0.4084821428571428	0.6575963718820862
2527.374267578125	0.001953464617097745	-9.828302362929	-2.236162788240387	-3.523763334723893	-5.960249181290908	-3.96770730725567	0.1244635193133047	-0.4241071428571428	0.6666666666666666
2546.905517578125	0.1138838826436381	-9.304169141856741	-2.204714794976051	-3.647608918539948	-0.9790894403450501	-5.818556967420586	0.1351931330472103	-0.4241071428571428	0.63718820861678
2566.436767578125	-0.3159143671415316	-9.784719644207375	-2.082032673601938	0.3540808419791966	-1.089598450091897	0.01797760134050291	0.1266094420600858	-0.3973214285714285	0.6575963718820862
2585.968017578125	0.183389638783514	-9.971530866084807	-2.012433266106503	-2.090007386765941	-3.692460166786772	-1.803436697146588	0.1351931330472103	-0.3995535714285714	0.6417233560090703
2605.499267578125	0.5411790871075055	-9.702381487840773	-2.077092384219942	-0.7508043844629675	2.125650623094506	-1.115409284567686	0.1201716738197425	-0.4084821428571428	0.6689342403628118
2625.030517578125	-0.6641643230605622	-9.619620983032021	-1.950914632719295	-1.406191652112929	-0.7655560128163699	-1.099604963561577	0.1201716738197425	-0.4040178571428571	0.6598639455782314
2644.561767578125	0.07041881047410795	-9.940098127498683	-1.939840231084264	-0.3343686649967298	-2.187795439284439	-0.3445216491229176	0.1244635193133047	-0.4084821428571428	0.6757369614512472
2664.093017578125	0.0629156939237657	-9.727901884211969	-2.209936739315344	0.3218827738112591	-0.7631242870018035	-0.7053555620854115	0.111587982832618	-0.4151785714285714	0.6485260770975056
2683.624267578125	-0.1712502956938995	-9.260913759669325	-2.262725532650867	0.3201544314952051	2.169946680254677	-0.01529637817264267	0.1545064377682404	-0.3995535714285714	0.6757369614512472
2703.155517578125	-0.3252275955626461	-9.249272976569626	-2.171117994755794	1.313367048774005	1.382806820937032	-1.066697417881372	0.1437768240343348	-0.3973214285714285	0.671201814058957
2722.686767578125	0.1318436688191764	-9.263944699314456	-1.959877085999272	-0.01421423350152478	-0.01784875902976276	-0.3598180272955602	0.1502145922746781	-0.4017857142857142	0.6666666666666666
2742.218017578125	0.3191990704201492	-10.01329300080521	-2.32807030732104	0.01421423350152478	0.01784875902976276	0.3598180272955602	0.1394849785407725	-0.4017857142857142	0.6621315192743764
2761.749267578125	0.02202845622763286	-8.596179880521873	-1.182437459497979	-1.803779365754727	1.737031643814479	-1.852007054832376	0.1201716738197425	-0.3995535714285714	0.6689342403628118
2781.280517578125	0.3568317843632067	-9.589426903702218	-2.009709048565568	-6.127664816617911	-2.893305312800211	-8.367001538168385	0.1094420600858369	-0.4017857142857142	0.6893424036281179
2800.811767578125	-0.2404025143590152	-9.856181833442271	-2.490360808996436	-0.7206475751438639	-0.7717228261024484	-1.085832413889335	0.1266094420600858	-0.4084821428571428	0.6666666666666666
2820.343017578125	-0.05119453516143897	-8.807568862729195	-2.023403626713247	-0.6988941393125633	-1.478217429371924	-0.7186201689241868	0.111587982832618	-0.3950892857142857	0.6666666666666666
2839.874267578125	0.2450468217548535	-9.850935316702399	-2.055702583648609	-3.250885376056178	-2.015141613347659	-4.721125284193403	0.1309012875536481	-0.4151785714285714	0.6870748299319728
2859.405517578125	-0.448927822406349	-9.520763247028464	-2.045993269569183	0.2879563633272675	2.496420843344771	-0.7386295415985571	0.1287553648068669	-0.421875	0.671201814058957
2878.936767578125	-0.2113678730309858	-10.08879541217878	-2.332600452003454	-0.3059401979936803	-2.152097921224914	0.3751144054682029	0.1437768240343348	-0.4017857142857142	0.6643990929705216
2898.468017578125	-0.03780249438866247	-9.575379550813691	-2.34219954072559	-3.106150527566849	-6.236260473934752	-2.158033787106953	0.1394849785407725	-0.4040178571428571	0.655328798185941
2917.999267578125	0.2658510694416052	-9.669325177361085	-2.09531102579318	-1.388207817446517	-1.109878934936226	-0.7360898274312228	0.1330472103004292	-0.3995535714285714	0.6598639455782314
2937.530517578125	-0.3030758650435226	-9.461615705996032	-2.34547472013754	-0.01507840465955181	1.448686724598477	-0.01478843533917581	0.1459227467811159	-0.4040178571428571	0.671201814058957
2957.061767578125	-0.1932323282251382	-9.83645151510159	-2.10533860605761	-0.3561221008280305	-1.481300836014964	-0.7117338940880656	0.1309012875536481	-0.3973214285714285	0.6757369614512472
2976.593017578125	0.009733350504823709	-9.828380161787878	-1.993743213747677	0.02261760698932771	-2.173030086897716	0.02218265300876372	0.1416309012875537	-0.3973214285714285	0.6621315192743764
2996.124267578125	0.234576010630667	-9.911436669197217	-2.029029634495267	-0.7177421451370031	0.3326409763761723	-0.7371057130981565	0.1287553648068669	-0.3861607142857142	0.6643990929705216
3015.655517578125	0.05590550962394622	-10.00055905509624	-2.529326472598704	-1.138260382300909	-0.4957115334586036	-2.895505934038051	0.148068669527897	-0.40625	0.6621315192743764
3035.186767578125	0.07281478444591138	-9.556283703400016	-2.179437628264607	-0.656251438807989	-1.424671152282636	0.360833912962494	0.1459227467811159	-0.4017857142857142	0.6575963718820862
3054.718017578125	0.4016968649327872	-9.771693736326098	-2.414584452462394	-0.3390024373196448	-0.35908827450658	-0.003189166001327095	0.1437768240343348	-0.3995535714285714	0.6689342403628118
3074.249267578125	0.6343476939443372	-10.23866670926268	-2.210279598515357	-0.7963525149744028	0.9677405435265972	-2.543590067245546	0.1330472103004292	-0.40625	0.6621315192743764
3093.780517578125	-0.1758220402960843	-9.553797335152595	-1.805551072432388	-0.03510349817479845	-0.777889639388527	-1.072059864217093	0.1244635193133047	-0.4129464285714285	0.6689342403628118
3113.311767578125	-0.08399283543505838	-9.372897445383025	-1.804798089147224	0.05685693400609913	0.07139503611905106	1.439272109182241	0.1309012875536481	-0.3928571428571428	0.673469387755102
3132.843017578125	0.04563878135690995	-9.556011943369125	-1.502653645895077	-0.01335006234349776	-1.484384242658003	-0.7048476192519446	0.1459227467811159	-0.4263392857142857	0.6621315192743764
3152.374267578125	0.09338266707810926	-9.990832816569773	-2.195409564953783	0.6487122364782131	2.149014514581875	-0.3682281306320819	0.1373390557939914	-0.40625	0.653061224489796
3171.905517578125	0.155443892877746	-9.870241307615647	-2.279083165325626	-1.130721179971133	-1.220054895757842	-2.888111716368463	0.1373390557939914	-0.3995535714285714	0.6598639455782314
3191.436767578125	0.07420671198939584	-9.687610753988583	-2.318630382613053	-0.2699725286608548	-2.840743765464627	1.102144677728911	0.1244635193133047	-0.4107142857142857	0.6643990929705216
3210.968017578125	0.04792360232207158	-10.00047923602322	-2.751543905676545	0.2302352581631414	3.89156129085396	-1.832872058824414	0.1180257510729614	-0.3973214285714285	0.671201814058957
3230.499267578125	-0.02653369867858869	-9.666401329679882	-2.448670948467662	-0.7386314098102766	-0.4273999039825919	-1.449347550019689	0.1266094420600858	-0.4107142857142857	0.6689342403628118
3250.030517578125	-0.06401283511803318	-9.83774371003266	-1.761981794319131	0.01421423350152478	0.01784875902976276	0.3598180272955602	0.1287553648068669	-0.4107142857142857	0.6802721088435374
3269.561767578125	0.008202028185576662	-9.464728484928324	-1.840610981822972	-0.6411730341484372	-2.873357876881113	0.3756223483016697	0.1502145922746781	-0.3883928571428571	0.6575963718820862
3289.093017578125	0.1215223535414599	-9.405255627575819	-1.948153721492933	-0.392089770160856	-0.7926549917752505	-1.438764166348774	0.1309012875536481	-0.4040178571428571	0.6643990929705216
3308.624267578125	-0.03136605090502528	-10.02998936979398	-1.965435725824003	-0.392953941318883	0.6738804918529897	-1.09373457439239	0.1373390557939914	-0.390625	0.6643990929705216
3328.155517578125	0.2243940901287131	-9.780021718679066	-2.031245747565189	-0.3816451378242192	-0.4126345515958683	-1.082643247888008	0.1394849785407725	-0.4040178571428571	0.6643990929705216
3347.686767578125	-0.2944454690022306	-9.532409080663514	-2.188106161001427	0.7139725439721151	0.02953070477344698	0.7334086042633625	0.1330472103004292	-0.4129464285714285	0.6598639455782314
3367.218017578125	0.06340862617428848	-9.707704793332454	-2.259229964367624	-2.486730929249712	-2.656407993784162	-2.900868380373772	0.1523605150214592	-0.4107142857142857	0.671201814058957
3386.749267578125	0.07079255009028303	-9.384546309339289	-1.977214192701771	-0.7574794156347164	1.383458501765505	-1.467833094193659	0.1309012875536481	-0.3995535714285714	0.6598639455782314
3406.280517578125	-0.2833867755628715	-9.946661081739324	-2.273567341672036	-5.329583959327454	-6.794116823583289	-6.513470654835609	0.1330472103004292	-0.4129464285714285	0.6598639455782314
3425.811767578125	0.3756723839044333	-9.670423390505713	-1.852952676157616	0.3323274061478959	-0.3831038468224214	-0.3492346436246452	0.1266094420600858	-0.3973214285714285	0.63718820861678
3445.343017578125	-0.1418621168911099	-9.74605612630584	-2.140318923133906	-1.380668615116741	-1.834222297235465	-0.7286956097616348	0.1330472103004292	-0.3950892857142857	0.6621315192743764
3464.874267578125	-0.04009947786753305	-9.787477793100114	-2.112501192838532	-3.553055972884969	-4.529411215722193	-4.342313769890406	0.1416309012875537	-0.3950892857142857	0.6643990929705216
3484.405517578125	0.07527742548438388	-9.788631562133633	-2.425701732111857	-0.6420372053064641	-1.406822393252873	0.7206519402580541	0.1394849785407725	-0.3794642857142857	0.6485260770975056
3503.936767578125	-0.04533995457941001	-9.474294075201682	-2.608861684916142	-1.362684780450328	-2.178545219355322	-0.3651804736312807	0.1351931330472103	-0.4151785714285714	0.6825396825396826
3523.468017578125	-0.06290979819678136	-9.65593655858369	-1.872285486444314	-0.06439613633587504	0.6529483261801876	-1.446666326851829	0.1287553648068669	-0.3973214285714285	0.6757369614512472
3542.999267578125	-0.09307979987232634	-9.382907585839662	-1.916509808685734	-1.79074221994401	-2.282554366890859	-2.530974912240763	0.1266094420600858	-0.40625	0.6643990929705216
3562.530517578125	0.1526236739362304	-9.546980782193909	-1.997061271174059	0.6922191081408143	0.7360253080429229	0.3661963592982144	0.1330472103004292	-0.3883928571428571	0.671201814058957
3582.061767578125	0.157837846635408	-9.819760196648174	-2.51847854109182	-0.6742352734744016	-1.080348230162779	-0.002681223167860238	0.1201716738197425	-0.4151785714285714	0.6666666666666666
3601.593017578125	0.2557196542931886	-9.790435984421721	-2.102577674216819	-0.323924032660093	-1.807774999105058	0.01159926933784872	0.1502145922746781	-0.4040178571428571	0.6666666666666666
3621.124267578125	-0.3867494241865059	-9.2587587683844	-2.14138411196165	-5.055841829501711	-4.315544739268281	-7.611918223729726	0.1437768240343348	-0.3928571428571428	0.6575963718820862
3640.655517578125	0.0770430926440434	-9.869457299613311	-2.602268448077809	0.7064333416423392	0.7538740670726856	0.7260143865937746	0.1309012875536481	-0.3883928571428571	0.6485260770975056
3660.186767578125	-0.004583989573613789	-9.878742038892145	-2.602825532434539	0.03877519147157028	2.917335302138042	-6.862930223292669	0.1502145922746781	-0.3973214285714285	0.6643990929705216
3679.718017578125	0.3159041011553841	-9.740532778385294	-1.998573380844532	-1.827574060434862	-0.1273730390229057	-2.912975592545087	0.1351931330472103	-0.3839285714285714	0.655328798185941
3699.249267578125	-0.1341064735730818	-9.705729642334978	-1.895475091671412	-1.067189214793285	-0.4064677383097898	-1.09641579756025	0.1351931330472103	-0.3995535714285714	0.6802721088435374
3718.780517578125	-0.2643825386761844	-9.795335972593039	-2.133174703810128	1.626846449097461	2.810561379862707	-1.434417605679987	0.1394849785407725	-0.3883928571428571	0.6689342403628118
3738.311767578125	0.2938089366322222	-9.790816877245112	-1.829873255058949	-0.3390024373196448	-0.35908827450658	-0.003189166001327095	0.1523605150214592	-0.3928571428571428	0.6598639455782314
3757.843017578125	0.2591863417599801	-10.01269287351861	-2.449246420895965	-2.76801226140523	-4.410636715799932	-1.809815029149242	0.1394849785407725	-0.3995535714285714	0.6689342403628118
3777.374267578125	-0.01080826934353483	-9.605952523367172	-1.980397555442434	-4.959247624997898	-5.294967228538562	-5.441918733451983	0.1330472103004292	-0.40625	0.671201814058957
3796.905517578125	-0.03565500675626193	-9.787522237811228	-2.556948303965644	0.02929263816107659	-1.430837965568715	0.374606462634736	0.1394849785407725	-0.4129464285714285	0.655328798185941
3816.436767578125	0.1716359916794834	-9.577473935674373	-1.857476718968745	0.04350687166260137	-1.412989206538952	0.7344244899302963	0.1652360515021459	-0.3928571428571428	0.6462585034013606
3835.968017578125	0.2593317971781671	-9.750068065446531	-2.463791962714671	-1.13158535112916	0.2464805878703978	-2.543082124412078	0.1394849785407725	-0.421875	0.6598639455782314
3855.499267578125	0.1101161832697651	-9.253626414357953	-1.82794485758875	-1.445928922610643	0.2852615125729626	-1.830332344657079	0.1459227467811159	-0.4040178571428571	0.653061224489796
3875.030517578125	0.1432761018747106	-9.627695387281374	-2.082712228287388	0.6922191081408143	0.7360253080429229	0.3661963592982144	0.1566523605150215	-0.3950892857142857	0.6621315192743764
3894.561767578125	-0.3104456474605267	-9.471643018272871	-2.628904641702433	-0.7168779739789759	-1.133894507252068	-1.082135305054541	0.1137339055793991	-0.4017857142857142	0.6621315192743764
3914.093017578125	-0.0006930159082500536	-9.626255696103545	-1.971514735705607	-4.225249987510537	-3.038860159778111	-3.651238700310703	0.1287553648068669	-0.3883928571428571	0.6689342403628118
3933.624267578125	-0.01706289355443821	-9.959425330660416	-2.375343297617403	0.3456774684913937	1.101280395835581	0.3556129756272994	0.1309012875536481	-0.3973214285714285	0.6621315192743764
3953.155517578125	-0.09406768458751343	-9.251584575679379	-1.817721337167026	1.020776913123822	0.7150931423701209	0.01326460683877524	0.1416309012875537	-0.4017857142857142	0.6689342403628118
3972.686767578125	-0.007784008773728993	-9.595881755871861	-2.282823612423019	-1.089806821782612	1.766562348587926	-1.118598450569014	0.1437768240343348	-0.3950892857142857	0.6848072562358277
3992.218017578125	-0.02226494496876691	-9.706848057621022	-1.855138156184534	-0.456485906496731	-0.1397066655950628	-2.885430493200603	0.148068669527897	-0.3995535714285714	0.6643990929705216
4011.749267578125	-0.07155837616534666	-9.554839971793902	-2.027835852853089	-0.7244171763087518	-0.4095511449528291	-1.089529522724129	0.1394849785407725	-0.4040178571428571	0.673469387755102
4031.280517578125	-0.211804239285547	-9.866568826294014	-2.288963826547338	2.785683179538863	-1.437656459683266	0.7895146886192647	0.148068669527897	-0.4017857142857142	0.673469387755102
4050.811767578125	0.1524660972331944	-9.789403448851122	-1.981303600870461	-1.394882848618266	-1.852071056265228	-1.088513637057195	0.1223175965665236	-0.3995535714285714	0.6802721088435374
4070.343017578125	-0.1759149701465927	-8.725513577571263	-1.796258087381549	-1.045435778961984	-1.112962341579266	-0.7292035525951017	0.148068669527897	-0.3883928571428571	0.6575963718820862
4089.874267578125	0.206323192175393	-9.971760201618725	-2.26497227876379	-1.780297587607373	-1.902533926711477	-2.174853993779997	0.1266094420600858	-0.40625	0.655328798185941
4109.405517578125	0.08789576546983092	-9.263505220280964	-1.646719404125949	1.042530348955123	0.008598539100644939	0.3804768518039234	0.1351931330472103	-0.4040178571428571	0.6666666666666666
4128.936767578125	0.1869472358866724	-9.840253310742707	-2.36819297642234	-0.3674309043226944	-0.3947857925661056	-0.7228252205924476	0.1394849785407725	-0.40625	0.6802721088435374
4148.468017578125	0.2519075102082028	-9.497468570051579	-1.721363265718246	0.3134794003234562	1.427754558925675	-0.367720187798615	0.1244635193133047	-0.3973214285714285	0.6621315192743764
4167.999267578125	0.2302103278709138	-9.537655638632245	-1.592461358519955	-1.077633847129921	-0.786488178489172	-1.452536716021016	0.1309012875536481	-0.4107142857142857	0.6643990929705216
4187.530517578125	-0.05931785745321769	-9.918598740617389	-2.23147956080068	1.017007311958934	1.07726482351974	0.009567498003981286	0.1223175965665236	-0.40625	0.6666666666666666
4207.061767578125	0.2338386324690243	-9.860924244910549	-1.955291818330997	-2.561571697922224	-2.383480107783357	-4.703655625686366	0.1394849785407725	-0.3973214285714285	0.6621315192743764
4226.593017578125	0.1548903542029786	-9.789427691420819	-2.223729297848886	-2.500945162751236	-2.674256752813925	-3.260686407669332	0.1137339055793991	-0.3973214285714285	0.6621315192743764
4246.124267578125	-0.205194057385742	-9.432291493769577	-1.929573853262539	0.3720646766456093	-1.433921372211754	0.3814927374708571	0.1437768240343348	-0.421875	0.6485260770975056
4265.655517578125	-0.1094335158053826	-9.574663240599525	-2.321954541910719	0.02842846700304957	0.03569751805952553	0.7196360545911205	0.148068669527897	-0.4174107142857142	0.6394557823129252
4285.186767578125	0.335542685282498	-9.468001891499291	-1.921615467025311	0.9801754714680819	3.232446151387693	-0.3724331823003427	0.1394849785407725	-0.4017857142857142	0.6802721088435374
4304.718017578125	-0.1468359253363106	-9.877319519534517	-2.663346241879142	-1.852232926273023	-0.5252422382320506	-3.628914538301414	0.1437768240343348	-0.3995535714285714	0.6598639455782314
4324.249267578125	0.1148596460739762	-9.920340515652661	-2.302291138009867	-1.048341208968845	-2.217326144057886	-1.07793025338628	0.1201716738197425	-0.4040178571428571	0.6598639455782314
4343.780517578125	-0.06052594550982684	-9.75697049812066	-2.110670755139765	0.13805981731758	-4.963310981916094	2.210667687460477	0.1287553648068669	-0.421875	0.6439909297052154
4363.311767578125	0.014688935793891	-9.83853072774178	-2.489301742654406	-2.480055898077963	-1.914215872455161	-2.548444570747799	0.1416309012875537	-0.3973214285714285	0.6848072562358277
4382.843017578125	0.01855162646127392	-9.707256223335323	-1.855162646127392	-3.903367213699278	-3.801984446779914	-4.356594262396115	0.1351931330472103	-0.3883928571428571	0.6643990929705216
4402.374267578125	0.3364356199330352	-9.609424962259936	-2.010908932079031	-2.485866758091685	-4.122943477412403	-3.245897972330156	0.1459227467811159	-0.40625	0.6825396825396826
4421.905517578125	0.1132313534759378	-9.395071707474155	-2.139461878206026	-1.174228051633734	0.1929343107811095	-3.622536206298759	0.1158798283261803	-0.421875	0.6643990929705216
4441.436767578125	-0.09169595318540784	-9.837466878851988	-2.054894477377584	1.465856108257773	4.442932195313176	-5.051083422809559	0.1244635193133047	-0.3928571428571428	0.6757369614512472
4460.968017578125	0.0965342423676888	-9.516116857575193	-1.490158930646431	-0.2963597368150704	-0.3055419974172918	1.076264915885354	0.1309012875536481	-0.3950892857142857	0.6825396825396826
4480.499267578125	0.125439548761803	-10.04165843589166	-2.339873243527237	-0.6951245381476753	-1.840389110521544	-0.7149230600893928	0.1351931330472103	-0.3861607142857142	0.673469387755102
4500.030517578125	0.1375952184799895	-9.758951709760558	-2.535032052080583	0.3134794003234562	1.427754558925675	-0.367720187798615	0.1201716738197425	-0.3816964285714285	0.6598639455782314
4519.561767578125	-0.1490925045323515	-9.988408064853667	-2.437688322275059	-1.853097097431051	0.9412932453961895	-3.283884946345029	0.1502145922746781	-0.4107142857142857	0.6643990929705216
4539.093017578125	-0.1903454422169535	-9.7657733132546	-2.394027206876084	-2.093776987930829	-3.330288485637152	-1.807133805981382	0.1330472103004292	-0.4129464285714285	0.6575963718820862
4558.624267578125	0.2836916629827959	-9.598796512589425	-1.838554053381628	0.396723542483771	-1.036052173002609	1.097431683227184	0.1223175965665236	-0.4129464285714285	0.6507936507936508
4578.155517578125	-0.01420424931537426	-9.333191290840183	-1.640799558258492	0.3485828984982546	2.205644198314202	0.7043396764184778	0.1330472103004292	-0.3995535714285714	0.6439909297052154
4597.686767578125	-0.1721088867040314	-10.01848093133498	-2.176866431637675	-0.06149070632901411	1.757312128658808	-1.09793962606065	0.1373390557939914	-0.4017857142857142	0.671201814058957
4617.218017578125	-0.008872904195990416	-9.464557735604508	-2.173934070196877	-1.344700945783915	-2.522868141475178	-0.001665337500926522	0.148068669527897	-0.3928571428571428	0.6643990929705216
4636.749267578125	0.2633035794091903	-9.800612833773894	-1.840562022551686	-0.323924032660093	-1.807774999105058	0.01159926933784872	0.1351931330472103	-0.3861607142857142	0.6666666666666666
4656.280517578125	0.3135626729654009	-9.710206333800365	-1.764430561846204	-1.215908673112165	-3.828764793835554	2.891667316202731	0.1394849785407725	-0.3950892857142857	0.6643990929705216
4675.811767578125	-0.2306812026813204	-9.724965915245916	-2.442083813500614	-2.484689670400878	-0.08550870767730166	-2.207112087626209	0.1394849785407725	-0.4017857142857142	0.6689342403628118
4695.343017578125	-0.03119433270299889	-9.97948603647095	-1.982607546026641	0.07366368098170498	-4.310362655735906	0.7640013606086479	0.1523605150214592	-0.3950892857142857	0.655328798185941
4714.874267578125	0.400339281029708	-9.529255918062825	-2.278826062154477	-3.344574150553129	0.06864467840124305	-6.542398073679967	0.1373390557939914	-0.3995535714285714	0.6802721088435374
4734.405517578125	-0.2440631423833894	-9.310690681707481	-2.124298006559015	0.2728779586677157	3.945107567943248	-0.7534179769377329	0.1566523605150215	-0.3950892857142857	0.6643990929705216
4753.936767578125	-0.258459229584485	-10.06812247841123	-1.705097449714775	1.757367064085265	-1.428406239754148	0.7688558641109016	0.1330472103004292	-0.3995535714285714	0.6643990929705216
4773.468017578125	0.3284860360574243	-9.831567688643403	-2.236358707783251	0.7102029428072271	0.3917023859230663	0.7297114954285686	0.1266094420600858	-0.4084821428571428	0.6870748299319728
4792.999267578125	0.1807391178298833	-9.931100320471231	-1.747381170743425	-0.4004931436486589	1.398223854152228	-1.101128792061977	0.1394849785407725	-0.3928571428571428	0.653061224489796
4812.530517578125	-0.426915486662988	-9.500781350183876	-2.206410517374669	1.049205380126872	0.7507906604296464	0.7329006614298957	0.1587982832618026	-0.3772321428571428	0.653061224489796
4832.061767578125	-0.2418085834014901	-10.03798595457003	-2.349753904748949	-0.3636613031578064	-0.7569574737157249	-0.7191281117576536	0.1502145922746781	-0.4017857142857142	0.6666666666666666
4851.593017578125	0.1305406306979174	-9.617467022468597	-1.829573273873369	-1.148705014637545	-0.8757319736379857	-3.251626852498817	0.1330472103004292	-0.4040178571428571	0.6598639455782314
4871.124267578125	-0.1434803084184409	-9.574322772673394	-1.978499770400808	-2.605078569584825	-0.9704909012444053	-5.438080115616663	0.1459227467811159	-0.4285714285714285	0.6643990929705216
4890.655517578125	0.06209346676818053	-9.53597447002122	-2.127714023756829	0.2624333263310789	3.565087127763866	-1.109538895398499	0.1223175965665236	-0.3973214285714285	0.6825396825396826
4910.186767578125	-0.3571935676099729	-9.855013922909761	-2.03574527981903	0.04727647282748933	-1.775160887688571	0.7381215987650902	0.1437768240343348	-0.3995535714285714	0.6666666666666666
4929.718017578125	0.4279981565273849	-9.994178971464265	-1.98348912212624	0.3210186026532321	0.7034111966264366	-0.3603259701290271	0.1437768240343348	-0.4017857142857142	0.6485260770975056
4949.249267578125	-0.3933717273711599	-9.672833959493968	-2.499561956761557	-0.7026637404774512	-1.116045748222305	-0.7223172777589807	0.1416309012875537	-0.3950892857142857	0.6485260770975056
4968.780517578125	-0.3240679926454327	-9.330092653406881	-2.28707828647714	0.02175343583130069	-0.7064946032694759	0.3672122449651481	0.1287553648068669	-0.4151785714285714	0.6643990929705216
4988.311767578125	-0.229584226402493	-10.03810819814002	-2.551781441383351	-0.02842846700304957	-0.03569751805952553	-0.7196360545911205	0.1416309012875537	-0.3883928571428571	0.6802721088435374
5007.843017578125	0.1721551867138455	-9.769398319543908	-1.909396222404958	0.2545812074685231	-1.214539763300237	-2.500748589728419	0.1416309012875537	-0.4129464285714285	0.6507936507936508
5027.374267578125	0.3137768156643984	-9.730410495429375	-1.785844831745965	-0.03219806816793752	0.3264741630900938	-0.7233331634259144	0.148068669527897	-0.4084821428571428	0.6598639455782314
5046.905517578125	0.1624904410321123	-9.65819056097598	-1.963329817496943	-0.6533460088011279	-0.3203073498040153	0.7095606137536723	0.1437768240343348	-0.4017857142857142	0.6643990929705216
5066.436767578125	0.07851789019618884	-9.798764976881762	-1.729340040027047	0.02842846700304957	0.03569751805952553	0.7196360545911205	0.1223175965665236	-0.40625	0.6666666666666666
5085.968017578125	0.3082514887585718	-9.952577464382538	-2.253720304428609	-0.3741059354944433	-1.136977913895107	-1.07524903021842	0.1244635193133047	-0.3995535714285714	0.6893424036281179
5105.499267578125	0.1645369179574385	-9.870332237866444	-2.167977510029563	-1.037896576632208	-1.837305703878505	-0.7218093349255138	0.1287553648068669	-0.4017857142857142	0.6643990929705216
5125.030517578125	-0.2325721231177521	-9.60373488482943	-2.252991769857443	-0.3503112408143086	0.727426768942278	-0.01428049250570896	0.1351931330472103	-0.4017857142857142	0.6439909297052154
5144.561767578125	-0.4479298366204545	-10.00562171173481	-2.145791848158634	0.3134794003234562	1.427754558925675	-0.367720187798615	0.1351931330472103	-0.3928571428571428	0.6643990929705216
5164.093017578125	-0.2098668539238611	-9.391840725400158	-2.482702362715929	-1.134490781136021	-0.857883214608223	-2.891808825203257	0.1394849785407725	-0.4040178571428571	0.6621315192743764
5183.624267578125	0.1819674080279073	-9.789698461959068	-1.870210190545827	0.02552303699618864	-1.068666284419095	0.3709093537999421	0.1437768240343348	-0.3928571428571428	0.6598639455782314
5203.155517578125	0.6171031048037453	-9.783948808825816	-1.506228847721468	-0.6666960711446257	-1.804691592462018	0.004712994501727668	0.1330472103004292	-0.4040178571428571	0.6485260770975056
5222.686767578125	0.07942294613157495	-9.960390189057275	-1.819845633565659	0.08905500217403665	-0.2550791269710427	2.162605272608155	0.1266094420600858	-0.3995535714285714	0.655328798185941
5242.218017578125	0.1960301598956574	-9.991859291497949	-2.256077214055534	0.02929263816107659	-1.430837965568715	0.374606462634736	0.1437768240343348	-0.40625	0.6575963718820862
5261.749267578125	0.05390751783801571	-9.869225943865249	-2.329527294005653	-0.7102029428072271	-0.3917023859230663	-0.7297114954285686	0.1309012875536481	-0.40625	0.6757369614512472
5281.280517578125	-0.1022920175863665	-9.857562938409997	-2.015696200547024	-2.069118122092667	-2.932419286428007	-1.091194860225055	0.1330472103004292	-0.4151785714285714	0.6643990929705216
5300.811767578125	0.03286488488256843	-9.485177133697311	-2.266080324991536	0.2461778339807202	0.9763390826272422	-2.163113215441622	0.1351931330472103	-0.3928571428571428	0.6621315192743764
5320.343017578125	0.09001699031839214	-9.263526432529449	-1.85884188898207	-0.4184769783150716	1.742546776272085	-1.464643928192332	0.1394849785407725	-0.40625	0.6666666666666666
5339.874267578125	0.2636571168839505	-9.548091116623388	-1.875915770027706	-0.07570493983053889	1.739463369629046	-1.457757653356211	0.1459227467811159	-0.3928571428571428	0.671201814058957
5359.405517578125	-0.2554612317985184	-9.845930236166865	-2.004897228311426	-0.714836715130142	1.437004778854793	-0.3883790123069781	0.1244635193133047	-0.3950892857142857	0.655328798185941
5378.936767578125	-0.267140130979314	-9.744803346164957	-1.85741547349717	-1.896818977758316	-5.651305145327335	2.536562283408899	0.1180257510729614	-0.421875	0.6780045351473923
5398.468017578125	0.2142444930530231	-9.365778808566896	-2.036694203261489	-0.6194195983171364	-3.57985248015059	0.7428345932668179	0.1394849785407725	-0.3950892857142857	0.6462585034013606
5417.999267578125	0.008387887886593455	-9.101093979888969	-1.859196951924651	-1.070094644800146	-1.510831540788411	-1.445142498351428	0.1266094420600858	-0.4040178571428571	0.6643990929705216
5437.530517578125	-0.07057251166430106	-10.01949629508538	-2.126422302957648	0.2586637251661909	3.927258808913485	-1.113236004233293	0.1394849785407725	-0.4241071428571428	0.6643990929705216
5457.061767578125	0.2448973259083834	-9.770125740935853	-2.040752999001606	0.6893136781339535	-0.3683384944356979	0.01746965850703605	0.1201716738197425	-0.4017857142857142	0.673469387755102
5476.593017578125	-0.0001657400173219802	-8.989897332498819	-2.024242324798414	-0.07570493983053889	1.739463369629046	-1.457757653356211	0.1523605150214592	-0.4040178571428571	0.673469387755102
5496.124267578125	-0.08952624319745094	-9.918296656759948	-2.271865476173274	-0.3532166708211696	-0.3769370335363428	-0.3630071932968873	0.1330472103004292	-0.3861607142857142	0.655328798185941
5515.655517578125	0.2361760202307246	-9.547816305656854	-2.189030594501028	-0.6942603669896482	-3.306924594149784	-1.059952652045777	0.1416309012875537	-0.4330357142857142	0.673469387755102
5535.186767578125	-0.0519723176059114	-9.363116640460305	-1.945625382266002	0.02465886583816162	0.3978691992091449	0.7159389457563266	0.1394849785407725	-0.390625	0.6621315192743764
5554.718017578125	-0.07964331438843715	-9.888092455745005	-2.239750193809347	-0.01421423350152478	-0.01784875902976276	-0.3598180272955602	0.148068669527897	-0.4017857142857142	0.6575963718820862
5574.249267578125	-0.2217760575167862	-9.411923653566248	-2.312190166688723	-1.06255544247037	-2.235174903087649	-1.43774828068184	0.1351931330472103	-0.375	0.671201814058957
5593.780517578125	0.2936574205716107	-9.538290109559252	-1.814721648997798	0.7168779739789759	1.133894507252068	1.082135305054541	0.1523605150214592	-0.3928571428571428	0.6575963718820862
5613.311767578125	-0.1233568728973701	-9.604827037331633	-1.950026995977272	-0.3390024373196448	-0.35908827450658	-0.003189166001327095	0.1502145922746781	-0.4084821428571428	0.6802721088435374
5632.843017578125	-0.1625673740849289	-9.755950083834909	-2.11060953028262	0.6666960711446257	1.804691592462018	-0.004712994501727668	0.1351931330472103	-0.3995535714285714	0.6507936507936508
5652.374267578125	-0.2331882884309056	-9.75524387469145	-2.191375238542093	-0.3958593713257439	-0.4304833106256311	-1.442461275183568	0.1502145922746781	-0.4040178571428571	0.6598639455782314
5671.905517578125	0.1015403330102933	-9.778793181107881	-1.990767994906877	0.07193533866565094	-1.377291688479426	1.454060544521417	0.1416309012875537	-0.3928571428571428	0.6666666666666666
5691.436767578125	0.5599974642931758	-9.914690883733844	-1.918113776256354	-3.523763334723893	-5.960249181290908	-3.96770730725567	0.148068669527897	-0.3973214285714285	0.6621315192743764
5710.968017578125	0.3583530056117463	-10.10459363106622	-2.161831173419529	-1.092712251789473	0.6621985461093054	-1.467325151360192	0.1373390557939914	-0.3950892857142857	0.63718820861678
5730.499267578125	-0.1283751260536836	-9.493665743688959	-2.468609843611237	-0.7055691704843121	-2.220409550700926	-1.071043978550159	0.1373390557939914	-0.4084821428571428	0.6802721088435374
5750.030517578125	-0.06949977795517154	-9.787183790099236	-2.233695673870601	-1.016143140800907	-2.54380030714798	-0.3545970899603657	0.1223175965665236	-0.40625	0.6643990929705216
5769.561767578125	0.1203021442000019	-9.223425243664225	-1.826132787347126	0.6855440769690655	-0.00616681328607855	0.0137725496722421	0.1351931330472103	-0.4174107142857142	0.6485260770975056
5789.093017578125	0.1104293164616955	-9.607164899225225	-1.859258176781796	0.6211479406331905	0.646781512894109	-1.432893777179587	0.148068669527897	-0.4196428571428571	0.6598639455782314
5808.624267578125	0.03100830808654199	-9.757885840656623	-2.080422645388893	0.656251438807989	1.424671152282636	-0.360833912962494	0.1416309012875537	-0.3928571428571428	0.673469387755102
5828.155517578125	0.114128328554758	-9.879929162073429	-2.229159386088042	0.05308733284121119	0.4335667172686704	1.435575000347447	0.148068669527897	-0.3928571428571428	0.6621315192743764
5847.686767578125	0.08183306160236879	-9.768495098292792	-2.060857180645042	-3.813448040367214	-5.523599057379197	-2.539018581744344	0.1223175965665236	-0.4017857142857142	0.6689342403628118
5867.218017578125	0.1346537866899846	-9.738720275240638	-2.240888873080095	-0.6809103046461504	-1.822540351491781	-0.3551050327938325	0.1394849785407725	-0.4017857142857142	0.6666666666666666
5886.749267578125	-0.4164567968236504	-9.420077856274188	-2.231871338043118	-0.849439847815614	0.5341738262579269	-3.979165067592993	0.1459227467811159	-0.4017857142857142	0.6643990929705216
5906.280517578125	0.09053820556689575	-9.627168008318296	-1.910963413832431	0.6846799058110384	1.460368670342161	0.3588021416286265	0.1330472103004292	-0.4040178571428571	0.6666666666666666
5925.811767578125	-0.1841413233595872	-9.664825253433072	-1.994030929347399	-1.370223982780104	-1.454201857056083	-0.3725746913008686	0.1244635193133047	-0.40625	0.6575963718820862
5945.343017578125	0.07326529219946296	-9.970429622618967	-2.224488403619764	0.323924032660093	1.807774999105058	-0.01159926933784872	0.1394849785407725	-0.4017857142857142	0.6575963718820862
5964.874267578125	-0.2004243317976915	-9.806076564762833	-2.406546412067589	-0.007539202329775903	0.7243433622992387	-0.007394217669587907	0.1266094420600858	-0.3861607142857142	0.6507936507936508
5984.405517578125	-0.1017869640509948	-9.85756798894535	-2.066201554084196	-0.3201544314952051	-2.169946680254677	0.01529637817264267	0.1502145922746781	-0.3973214285714285	0.6621315192743764
6003.936767578125	0.2443761106598798	-9.911534670197511	-1.988631474151245	-3.103245097559988	-5.131896671456131	-1.809307086315775	0.1158798283261803	-0.40625	0.6598639455782314
6023.468017578125	0.3160798597856935	-9.528413323850385	-2.016149243875468	-0.7168779739789759	-1.133894507252068	-1.082135305054541	0.1351931330472103	-0.4107142857142857	0.6689342403628118
6042.999267578125	0.1428498366908569	-9.759004255942667	-2.040085709902015	-1.445928922610643	0.2852615125729626	-1.830332344657079	0.1351931330472103	-0.40625	0.6689342403628118
6062.530517578125	-0.165937091272929	-9.695310326056969	-1.77363781148261	-4.944169220338347	-6.74365395313704	-5.427130298112807	0.1330472103004292	-0.4040178571428571	0.655328798185941
6082.061767578125	0.1692804219905097	-9.860278662805765	-1.621919750071376	-1.686608813110421	-3.98632021846038	-0.353581204293432	0.1266094420600858	-0.4107142857142857	0.6621315192743764
6101.593017578125	0.08142093791750547	-9.586672795237762	-2.019644812158711	-4.173339742360134	-6.642728212244542	-3.254449584667204	0.1523605150214592	-0.4040178571428571	0.6507936507936508
6121.124267578125	0.3941655066133242	-9.508992160116641	-1.661448620516089	0.02175343583130069	-0.7064946032694759	0.3672122449651481	0.148068669527897	-0.3883928571428571	0.6689342403628118
6140.655517578125	-0.1093466465972987	-9.887795422422917	-2.330641462719113	-0.7206475751438639	-0.7717228261024484	-1.085832413889335	0.1223175965665236	-0.40625	0.6689342403628118
6160.186767578125	0.4691056387937998	-9.469337521034406	-2.012604695706509	-4.969692257334535	-5.674987668717944	-5.798039651912749	0.1394849785407725	-0.421875	0.671201814058957
6179.718017578125	-0.3919797998276755	-9.804161010082533	-2.638754711110003	-0.7043920827935053	1.817025219034175	-0.03225809384621187	0.1416309012875537	-0.3995535714285714	0.6780045351473923
6199.249267578125	-0.3116900993716826	-9.754458856582042	-2.504459450586842	-2.447857829910026	-2.240690035545255	-1.825111407321885	0.1330472103004292	-0.3883928571428571	0.6575963718820862
6218.780517578125	0.2830977200251987	-9.61899259336187	-1.779159757621914	-0.3314632349898689	-1.083431636805819	0.004205051668260811	0.1459227467811159	-0.3928571428571428	0.653061224489796
6238.311767578125	0.03830738300859408	-9.29331236675938	-1.789921974328795	-1.694148015440197	-3.261976856161141	-0.3609754219630199	0.1351931330472103	-0.40625	0.6689342403628118
6257.843017578125	0.2572772393962749	-9.861158630979823	-2.258336184525456	0.6704656723095137	1.442519911312399	-0.001015885666933716	0.1416309012875537	-0.390625	0.6666666666666666
6277.374267578125	-0.1344216269791537	-9.685524470598898	-1.863959751064217	-0.3712005054875823	-0.03261411141648625	-0.7265223294272415	0.1459227467811159	-0.3928571428571428	0.671201814058957
6296.905517578125	0.09316448395082867	-10.13224477615264	-2.173591252225724	-0.7102029428072271	-0.3917023859230663	-0.7297114954285686	0.1201716738197425	-0.4017857142857142	0.6621315192743764
6316.436767578125	-0.2715664613921718	-9.441728779830525	-2.4351905954767	0.6922191081408143	0.7360253080429229	0.3661963592982144	0.1351931330472103	-0.4040178571428571	0.6439909297052154
6335.968017578125	-0.04767734234111033	-9.787402014455377	-2.375122908746111	-1.045435778961984	-1.112962341579266	-0.7292035525951017	0.1437768240343348	-0.4017857142857142	0.6666666666666666
6355.499267578125	0.009826280355332105	-9.646562909268201	-2.003036198798517	-1.759408322934099	-1.142493046352713	-1.462612156858464	0.1416309012875537	-0.3839285714285714	0.6621315192743764
6375.030517578125	-0.2235942502441244	-9.916955976689479	-2.130370893954904	-2.11843585376899	-3.728157684846297	-2.523072751737709	0.1437768240343348	-0.4040178571428571	0.6598639455782314
6394.561767578125	-0.002579895916398788	-9.34340854447518	-1.782826734890733	-0.3314632349898689	-1.083431636805819	0.004205051668260811	0.1201716738197425	-0.3950892857142857	0.6462585034013606
6414.093017578125	0.2747218709657341	-9.467393683356125	-1.961983014940762	-6.383423111777241	-5.716200319235075	-6.905038833143914	0.1502145922746781	-0.4040178571428571	0.6507936507936508
6433.624267578125	-0.04229141021104629	-9.837960924281731	-1.893307958487207	0.6307284018118002	2.493337436701732	-0.7317432667624361	0.1266094420600858	-0.4151785714285714	0.6643990929705216
6453.155517578125	-0.4162668966943507	-9.399877735073462	-2.250861350973095	-0.6771407034812625	-2.1847120326414	-0.3514079239590386	0.1394849785407725	-0.3928571428571428	0.6666666666666666
6472.686767578125	-0.3866160900531678	-9.480982323947956	-2.154717525295463	0.32478820381812	0.3412395154768173	-0.3566288612942332	0.1223175965665236	-0.40625	0.6598639455782314
6492.218017578125	-0.4398166153993832	-9.551157389401562	-1.936705807000458	0.2992651668219314	1.409905799895913	-0.7275382150941753	0.1416309012875537	-0.3883928571428571	0.6507936507936508
6511.749267578125	-0.1738785942919739	-9.594220810016678	-1.999895672843425	-1.088078479466558	-1.166508618668554	-1.808657634481782	0.1223175965665236	-0.4017857142857142	0.6598639455782314
6531.280517578125	-0.1619552492000584	-9.76605721518477	-2.171822018769672	-4.529461843188164	-8.124029048259505	-3.966183478755269	0.1566523605150215	-0.4017857142857142	0.6598639455782314
6550.811767578125	0.2614389217565979	-9.386452773055952	-1.654096257292448	-0.3314632349898689	-1.083431636805819	0.004205051668260811	0.1309012875536481	-0.4151785714285714	0.6439909297052154
6570.343017578125	0.3246799526148631	-9.548701344980696	-1.855750363527125	-0.7235530051507248	-1.876086628581069	-1.434559114680513	0.1523605150214592	-0.390625	0.6507936507936508
6589.874267578125	0.1349265155990854	-9.688217952024679	-2.268161763990168	-1.419541714456427	-2.249940255474372	-1.804452582813522	0.1244635193133047	-0.4174107142857142	0.6598639455782314
6609.405517578125	0.2215819520437634	-9.638579455884075	-1.750031939070216	-0.392953941318883	0.6738804918529897	-1.09373457439239	0.1266094420600858	-0.390625	0.6689342403628118
6628.936767578125	0.07291781536712721	-9.222951400375896	-2.18974072038619	-6.040651073292708	-5.719283725878115	-6.898152558307793	0.1351931330472103	-0.4263392857142857	0.671201814058957
6648.468017578125	0.4699521085190828	-10.2067197231054	-2.097251668234809	-1.784067188772261	-1.540362245561858	-2.178551102614791	0.1502145922746781	-0.4263392857142857	0.6666666666666666
6667.999267578125	-0.2740291024306443	-9.714431426147412	-2.188926491629451	-1.099387282961222	-0.07999357521969599	-1.819748960986164	0.1545064377682404	-0.3950892857142857	0.6439909297052154
6687.530517578125	-0.02210534805158944	-10.14119308793363	-1.87109784790228	-3.902503042541251	-5.268519930408154	-4.7016238543525	0.1180257510729614	-0.4107142857142857	0.6689342403628118
6707.061767578125	0.03188508102394729	-9.535672386163775	-2.168099939129423	0.6666960711446257	1.804691592462018	-0.004712994501727668	0.1523605150214592	-0.390625	0.6643990929705216
6726.593017578125	-0.001743527261823225	-9.222204786949606	-1.86646360034829	0.2917259644921555	2.134249162195151	-0.7349324327637631	0.1416309012875537	-0.4040178571428571	0.6575963718820862
6746.124267578125	0.07162487831657562	-9.930009178076098	-2.060447015331031	-0.3532166708211696	-0.3769370335363428	-0.3630071932968873	0.1652360515021459	-0.40625	0.671201814058957
6765.655517578125	0.3290678577301726	-9.791169466456092	-2.294540875058073	-0.7055691704843121	-2.220409550700926	-1.071043978550159	0.1416309012875537	-0.3883928571428571	0.653061224489796
6785.186767578125	0.1380457262335411	-9.668047123929002	-2.58008282743574	-0.6809103046461504	-1.822540351491781	-0.3551050327938325	0.1351931330472103	-0.4017857142857142	0.6621315192743764
6804.718017578125	0.2456387444983091	-9.659022044010642	-2.114894857994174	-0.7244171763087518	-0.4095511449528291	-1.089529522724129	0.1223175965665236	-0.40625	0.653061224489796
6824.249267578125	-0.114136574326764	-9.817040452438553	-1.851648689772576	-0.4326912118165964	1.724698017242322	-1.824461955487892	0.1459227467811159	-0.3973214285714285	0.6258503401360545
6843.780517578125	-0.3345287026989117	-9.239078955397256	-2.261415444394542	0.6959887093057022	0.3738536268933035	0.3698934681330084	0.1502145922746781	-0.3928571428571428	0.6621315192743764
6863.311767578125	0.01458590487267517	-9.666812525715395	-2.478998650532823	-2.105085791425493	-2.243773442188294	-1.818225132485764	0.1394849785407725	-0.3839285714285714	0.673469387755102
6882.843017578125	0.05269134892484062	-9.525779438741775	-2.207910402688143	-0.392953941318883	0.6738804918529897	-1.09373457439239	0.1394849785407725	-0.3973214285714285	0.6666666666666666
6902.374267578125	-0.02193969049198751	-9.575538178852657	-1.887663603862473	-0.3653896454738604	2.176113493540755	-0.02906892784488477	0.1416309012875537	-0.3816964285714285	0.655328798185941
6921.905517578125	0.1061444422676019	-9.536414979776213	-1.430770757372432	-1.01527896964288	-4.010335790776221	-0.6996266819167501	0.1416309012875537	-0.3973214285714285	0.6666666666666666
6941.436767578125	-0.008256738882836918	-9.313048745742487	-2.235550601512226	-5.369321229825167	-5.743299298193956	-7.244198035931111	0.1094420600858369	-0.4084821428571428	0.6689342403628118
6960.968017578125	0.3729248926720111	-9.468375713573188	-1.578203552915401	-0.3854147389891071	-0.05046287044624902	-1.086340356722802	0.1545064377682404	-0.3995535714285714	0.6643990929705216
6980.499267578125	0.2987847240627043	-10.00298784724063	-2.327451998107165	0.2490832639875812	2.080702885105863	-1.814386514650444	0.1373390557939914	-0.4174107142857142	0.673469387755102
7000.030517578125	0.002668620423184099	-10.01012769630524	-2.307678368849022	0.00667503117174888	0.7421921213290015	0.3524238096259723	0.1394849785407725	-0.40625	0.6643990929705216
7019.561767578125	0.1824946839188353	-9.658390603404847	-1.922937779638634	-0.3314632349898689	-1.083431636805819	0.004205051668260811	0.1502145922746781	-0.3883928571428571	0.673469387755102
7039.093017578125	-0.09106766658740541	-9.706160030404837	-2.117723137177826	0	0	0	0.1287553648068669	-0.4017857142857142	0.6666666666666666
7058.624267578125	-0.1626017177253342	-9.362010346459112	-2.107175166242092	0.003769601164887951	-0.3621716811496193	0.003697108834793953	0.1502145922746781	-0.4017857142857142	0.6666666666666666
7078.155517578125	-0.02629127298161027	-9.565393652926751	-2.472913518165504	-1.063419613628397	-0.7686394194594092	-1.092718688725456	0.1351931330472103	-0.4129464285714285	0.6643990929705216
7097.686767578125	0.04927718702572781	-9.727765499142986	-1.866494212776862	-0.01798383466641273	0.3443229221198566	-0.3635151361303542	0.1545064377682404	-0.3727678571428571	0.6643990929705216
7117.218017578125	0.3684662388328896	-9.953179611883282	-2.152746332268552	-1.027451944295571	-1.457285263699122	-0.3656884164647475	0.1373390557939914	-0.3973214285714285	0.6485260770975056
7136.749267578125	0.08440883463276455	-10.02104610854835	-2.318434483684618	0.7006224816286173	-1.454853537884556	0.02856098501141791	0.1416309012875537	-0.4040178571428571	0.6575963718820862
7156.280517578125	-0.2258144655856185	-10.08865094625324	-1.908349359805497	-7.12119035042949	-7.610135706845908	-8.699415975119987	0.1566523605150215	-0.4196428571428571	0.63718820861678
7175.811767578125	0.1848987387472047	-9.961444946983432	-2.163343262475572	-0.3758342778104973	1.796093053361373	-0.3851898463056511	0.1566523605150215	-0.4196428571428571	0.6643990929705216
7195.343017578125	-0.2806473651870153	-9.461839990994596	-2.547508379257656	0.03306223932596454	-1.793009646718334	0.37830357146953	0.1351931330472103	-0.3883928571428571	0.6598639455782314
7214.874267578125	0.04205892066933519	-9.48526907405518	-2.165075740402907	-0.3105739703165952	-0.3233907564470545	0.7164468885897933	0.1309012875536481	-0.4084821428571428	0.673469387755102
7234.405517578125	0.1731895363542868	-9.304762198393847	-2.012831186449086	-0.7244171763087518	-0.4095511449528291	-1.089529522724129	0.1244635193133047	-0.3973214285714285	0.6439909297052154
7253.936767578125	0.2428023638436615	-9.477175498385913	-1.831256792529417	0.9981593061344947	2.888123229267837	-0.008918046169988481	0.1502145922746781	-0.4196428571428571	0.6394557823129252
7273.468017578125	0.01719202234405326	-9.798151718203242	-1.719202234405326	0.4025344024974928	1.172675431954633	1.79488508480954	0.1394849785407725	-0.3883928571428571	0.653061224489796
7292.999267578125	0.09282912840334186	-9.910019200374945	-2.140055697477042	-1.041666177797096	-1.475134022728885	-0.7255064437603078	0.1351931330472103	-0.40625	0.6757369614512472
7312.530517578125	-0.08195645958043961	-9.736554172777934	-2.008435674609101	-3.163007461572948	-6.307655510053802	-3.597305896289194	0.1437768240343348	-0.4040178571428571	0.673469387755102
7332.061767578125	0.09340488943366562	-9.859519907480198	-2.197631800509418	-0.02756429584502254	-1.502233001687766	-1.064665646547505	0.1587982832618026	-0.3928571428571428	0.6598639455782314
7351.593017578125	-0.2523440413782042	-9.14899171110137	-2.31661627034285	-0.2925901356501825	-0.6677136785669111	1.079962024720148	0.1523605150214592	-0.4129464285714285	0.6621315192743764
7371.124267578125	0.01768697480871754	-9.444621314192535	-1.768697480871754	-0.4422716729952063	-0.1218579065653001	-2.525612465905043	0.1309012875536481	-0.3950892857142857	0.653061224489796
7390.655517578125	-0.09318283079354217	-9.716239888863784	-1.906206716564151	-0.7168779739789759	-1.133894507252068	-1.082135305054541	0.1266094420600858	-0.3995535714285714	0.6757369614512472
7410.186767578125	0.3514438320190012	-9.87220130700706	-2.491321977410323	0.00667503117174888	0.7421921213290015	0.3524238096259723	0.1373390557939914	-0.4107142857142857	0.6598639455782314
7429.718017578125	0.1730541820068072	-9.415871955961483	-1.999295751701124	-1.049205380126872	-0.7507906604296464	-0.7329006614298957	0.1373390557939914	-0.390625	0.655328798185941
7449.249267578125	-0.1428136377517502	-9.675339540390162	-2.045166837069874	-0.6780048746392896	-0.7181765490131601	-0.006378332002654191	0.1394849785407725	-0.4084821428571428	0.6439909297052154
7468.780517578125	-0.002955655746715348	-9.727243170715262	-1.745250751859077	-7.895789429572592	-7.348889766588786	-10.87579379740039	0.1566523605150215	-0.4129464285714285	0.6485260770975056
7488.311767578125	-0.1301266517143527	-9.604759339543463	-2.293457277544325	0.3314632349898689	1.083431636805819	-0.004205051668260811	0.1309012875536481	-0.4107142857142857	0.671201814058957
7507.843017578125	-0.2230427317834985	-9.826052400964993	-2.185522740017496	-4.980136889671172	-6.055008108897327	-6.154160570373516	0.1437768240343348	-0.4040178571428571	0.655328798185941
7527.374267578125	-0.2131981870431729	-9.563524583786135	-2.149569050784744	-2.464977493418411	-3.362902597053639	-2.533656135408624	0.1459227467811159	-0.3861607142857142	0.653061224489796
7546.905517578125	0.3966119859386648	-9.882753998647267	-1.906096553050149	-0.6629264699797378	-2.166863273611638	0.008410103336521622	0.148068669527897	-0.40625	0.671201814058957
7566.436767578125	0.01032123281999639	-9.798083010308002	-2.052531445264945	0.08141789197614463	2.97088157922733	-5.783476141405989	0.1158798283261803	-0.3950892857142857	0.63718820861678
7585.968017578125	0.286517942566736	-9.932158108718598	-2.121182011775641	0.32478820381812	0.3412395154768173	-0.3566288612942332	0.1459227467811159	-0.4084821428571428	0.6462585034013606
7605.499267578125	-0.08053624903897434	-9.74666938498436	-2.150456728755628	-2.097546589095717	-2.968116804487533	-1.810830914816176	0.1416309012875537	-0.40625	0.655328798185941
7625.030517578125	-0.474479614554455	-9.874043082642338	-2.5520385445545	-0.6742352734744016	-1.080348230162779	-0.002681223167860238	0.1416309012875537	-0.4017857142857142	0.6575963718820862
7644.561767578125	-0.0894070505631032	-9.443550373938816	-2.283784739608046	-7.45265358541936	-8.693567343651727	-8.695210923451727	0.1416309012875537	-0.3995535714285714	0.6462585034013606
7664.093017578125	-0.110298167457939	-9.312028331456736	-2.235489376655081	-1.7243048247593	-0.3646034069641857	-0.3905522926413715	0.1309012875536481	-0.421875	0.6598639455782314
7683.624267578125	-0.2744674888993469	-9.320487648343331	-2.145087844759186	0.9714591814474991	-0.08064525604816888	-1.418613284673878	0.1309012875536481	-0.4129464285714285	0.655328798185941
7703.155517578125	0.04974183627826978	-9.323729741595107	-1.91295913803106	-0.6988941393125633	-1.478217429371924	-0.7186201689241868	0.1266094420600858	-0.4263392857142857	0.6507936507936508
7722.686767578125	0.3377992644785389	-9.861963851230646	-2.147273386629394	1.366454381615216	1.816373538205702	0.3688775824660747	0.1394849785407725	-0.4040178571428571	0.655328798185941
7742.218017578125	0.3155141998260771	-9.932448071291192	-1.959583247913835	-0.7470347832980796	1.763478941944887	-1.111712175732892	0.1502145922746781	-0.3950892857142857	0.6417233560090703
7761.749267578125	0.2853219757949758	-9.790732007636739	-2.001585334599619	-0.02175343583130069	0.7064946032694759	-0.3672122449651481	0.1266094420600858	-0.40625	0.6780045351473923
7781.280517578125	-0.1497935188394474	-9.493451559761102	-2.367586891565464	0.6666960711446257	1.804691592462018	-0.004712994501727668	0.1437768240343348	-0.4017857142857142	0.655328798185941
7800.811767578125	-0.1684522991079402	-9.715487194180639	-2.542525191246798	0.6214608571659703	6.15075176625745	-0.04907830051925511	0.1394849785407725	-0.4040178571428571	0.6575963718820862
7820.343017578125	-0.2889746878782242	-9.724382980393948	-1.714776110136768	0.03596766933282547	-0.6886458442397132	0.7270302722607084	0.1309012875536481	-0.390625	0.6643990929705216
7839.874267578125	0.06194801134999348	-9.798599278093301	-2.113168481938124	-1.789878048785982	-3.749089850519099	-2.876004504197148	0.1287553648068669	-0.4352678571428571	0.6439909297052154
7859.405517578125	0.1306921467585289	-9.36494328510395	-1.84472487993452	-1.017007311958934	-1.07726482351974	-0.009567498003981286	0.1459227467811159	-0.4107142857142857	0.6507936507936508
7878.936767578125	0.08005123272957737	-9.829083340610124	-1.882674293365901	-0.2925901356501825	-0.6677136785669111	1.079962024720148	0.1287553648068669	-0.3995535714285714	0.6598639455782314
7898.468017578125	0.2320386216689595	-9.386158770055074	-1.775290738324517	-0.647848065320186	-3.615549998210115	0.02319853867569743	0.148068669527897	-0.4129464285714285	0.6689342403628118
7917.999267578125	0.1851835889411544	-9.931144765182342	-2.191828281870537	-3.809678439202326	-5.885770738528817	-2.53532147290955	0.1587982832618026	-0.4017857142857142	0.6598639455782314
7937.530517578125	-0.334637794262552	-9.562310187713942	-2.250506288030513	0.06149070632901411	-1.757312128658808	1.09793962606065	0.1330472103004292	-0.4084821428571428	0.6485260770975056
7957.061767578125	0.4835077866373197	-10.23715831018961	-2.432411316793195	0.4184769783150716	-1.742546776272085	1.464643928192332	0.1351931330472103	-0.40625	0.6462585034013606
7976.593017578125	-0.3515450488703756	-9.673252226278974	-2.600597153778759	-0.5654680943178982	-4.612821246510158	1.833380001657881	0.1416309012875537	-0.4084821428571428	0.6394557823129252
7996.124267578125	0.256123697121486	-9.790440024850005	-2.142981957046556	-0.5591059796789292	-9.374599378544499	0.8019883346235211	0.1523605150214592	-0.3973214285714285	0.6485260770975056
8015.655517578125	0.4801279683786122	-9.317932592815101	-2.094429490922442	-2.435684855257334	-4.793740562622353	-2.159049672773887	0.1309012875536481	-0.4151785714285714	0.6303854875283447
8035.186767578125	0.04267710619663018	-10.01052778116298	-2.226894293132405	1.568261172775308	5.672237311000137	-2.183630530949459	0.1459227467811159	-0.4241071428571428	0.63718820861678
8054.718017578125	-0.1858686064505585	-9.311272627066808	-1.821302620250271	-1.050069551284899	0.7157448231985937	-0.3878710694735113	0.1244635193133047	-0.4196428571428571	0.6689342403628118
8074.249267578125	0.08058456926292991	-9.707876552763338	-1.936007946701154	-2.098410760253743	-1.501581320859293	-1.465801322859791	0.1394849785407725	-0.421875	0.63718820861678
8093.780517578125	-0.1817332281029349	-9.80626347579978	-2.234840455012634	0.9508828333070053	4.663284116956407	-0.7470396449350787	0.1416309012875537	-0.4151785714285714	0.6643990929705216
8113.311767578125	-0.4776877146111362	-9.91441504204581	-2.231228538886385	1.719671052436385	2.193310571742045	0.731884775762962	0.1223175965665236	-0.4040178571428571	0.6439909297052154
8132.843017578125	-0.3055203241547217	-9.259571059384717	-2.101028809017629	0.4042627448135468	-1.760395535301848	1.104825900896772	0.1394849785407725	-0.4151785714285714	0.6349206349206349
8152.374267578125	0.2835542884211747	-9.538189078237748	-1.824816597219518	-0.03219806816793752	0.3264741630900938	-0.7233331634259144	0.1437768240343348	-0.4107142857142857	0.6394557823129252
8171.905517578125	-0.1948383984676202	-9.684920302884013	-1.944731581809405	-0.4033985736555198	0.2938600516736076	-1.449855492853156	0.1309012875536481	-0.4040178571428571	0.6462585034013606
8191.436767578125	0.1843593415714277	-10.07255066412278	-2.109403544897873	2.173802783551503	-5.741852302133094	1.53974349955567	0.1566523605150215	-0.4129464285714285	0.6349206349206349
8210.968017578125	-0.09203332894703614	-9.443524111154977	-2.021156901214753	-1.75273329176235	-0.4003009250237112	-1.110188347232492	0.148068669527897	-0.4040178571428571	0.6190476190476191
8230.499267578125	0.2617156910939816	-9.679384833678618	-1.681773191030818	-2.540682433248949	-1.623439227424593	-3.991413788764834	0.1416309012875537	-0.4107142857142857	0.6417233560090703
8250.030517578125	-0.2238184940138294	-10.04826686556491	-2.1079465169844	0.6826386469622047	-1.110530615764699	-0.3349541511189363	0.1545064377682404	-0.4040178571428571	0.6621315192743764
8269.561767578125	0.1122091251203454	-9.879909970039085	-2.03723904264679	1.05297498129176	0.388618979280027	0.7365977702646896	0.1309012875536481	-0.4107142857142857	0.63718820861678
8289.093017578125	-0.1410722131617886	-9.715760995040101	-2.219309296066043	0.02465886583816162	0.3978691992091449	0.7159389457563266	0.1330472103004292	-0.4040178571428571	0.6394557823129252
8308.624267578125	-0.08702521809029018	-9.877917626606978	-2.521967986889348	-1.081403448294809	-0.4243164973395526	-1.45623382485581	0.1523605150214592	-0.4084821428571428	0.63718820861678
8328.155517578125	-0.3454985067160454	-9.309676328064155	-2.184843205946476	-1.392841589769432	0.718828229841633	-0.3947573443096323	0.1351931330472103	-0.4107142857142857	0.6462585034013606
8347.686767578125	-0.4013980793841473	-9.935379958600098	-2.717334918728127	-6.610752939933522	-8.503397807610414	-4.723440073528322	0.148068669527897	-0.4174107142857142	0.6417233560090703
8367.218017578125	0.0715501303933406	-9.637079137667572	-2.052972223007529	-6.568110239428948	-8.449851530521126	-3.643985991641641	0.1373390557939914	-0.4151785714285714	0.63718820861678
8386.749267578125	-0.2595440845784634	-10.2802328419825	-1.59661195031693	-1.035855317783374	0.7335935822283565	-0.02805304217795105	0.1394849785407725	-0.3950892857142857	0.655328798185941
8406.280517578125	0.3527024666580075	-9.609587630727187	-1.596777278045652	-4.985634833152115	-2.759765460491227	-5.467798495295541	0.1459227467811159	-0.4084821428571428	0.6417233560090703
8425.811767578125	0.06973193766600241	-9.637060955740298	-1.871152950273711	0.9404382009703686	4.283263676777025	-1.103160563395845	0.1351931330472103	-0.4040178571428571	0.6394557823129252
8445.343017578125	-0.5884262062941993	-10.2365399803613	-2.381869166498446	1.539832705772258	5.636539792940611	-2.90326658554058	0.1416309012875537	-0.4129464285714285	0.6303854875283447
8464.874267578125	-0.5650987111447303	-9.378187396726938	-2.673802354914728	0.6608852111309039	-0.4040360124952234	-0.7021663960840844	0.148068669527897	-0.4040178571428571	0.6417233560090703
8484.405517578125	0.1129020585708754	-9.182947202403893	-2.106532387699789	-1.029493203144405	-4.028184549805983	-1.05944470921231	0.1416309012875537	-0.4107142857142857	0.6213151927437642
8503.936767578125	0.0346386328987939	-9.242770628753233	-2.443455126614083	-1.362684780450328	-2.178545219355322	-0.3651804736312807	0.1502145922746781	-0.3995535714285714	0.6575963718820862
8523.468017578125	0.4193677604860929	-9.923385596796782	-2.140857681262352	-1.407055823270956	0.7009794708118703	-0.7545753716051926	0.1266094420600858	-0.4017857142857142	0.6281179138321996
8542.999267578125	0.2637035818092047	-9.457182490363548	-1.880562262553126	-2.830367138892272	-1.186789103512883	-2.562725063253508	0.1287553648068669	-0.4174107142857142	0.6439909297052154
8562.530517578125	0.5428457637742322	-9.954923407132693	-2.243760050892608	0.3021705968287923	2.514269602374533	-0.3788115143029969	0.1523605150214592	-0.3973214285714285	0.6575963718820862
8582.061767578125	0.4153434939162511	-9.781931212716943	-1.738431024278168	1.041666177797096	1.475134022728885	0.7255064437603078	0.1223175965665236	-0.40625	0.63718820861678
8601.593017578125	-0.4164022510418303	-9.510987492641098	-2.237325916225133	0.3097097991585682	1.789926240075295	-0.3714172966334089	0.1394849785407725	-0.4107142857142857	0.63718820861678
8621.124267578125	-0.2553986051601323	-9.613607630110016	-2.011159892150036	0.002905430006860929	1.104363802478621	0.3487267007911783	0.1394849785407725	-0.4017857142857142	0.6462585034013606
8640.655517578125	-0.0519723176059114	-9.363116640460305	-1.945625382266002	-0.7273226063156129	-1.51391494743145	-1.438256223515307	0.1158798283261803	-0.40625	0.6575963718820862
8660.186767578125	-0.3964121496540977	-9.82431870678629	-2.195519728467784	0.2024559536534551	-5.616259308096282	3.657334014312306	0.148068669527897	-0.4151785714285714	0.6394557823129252
8679.718017578125	0.121750637739448	-9.617379122539013	-1.970982141291735	-1.423311315621315	-1.887768574324753	-1.808149691648316	0.1437768240343348	-0.4196428571428571	0.6462585034013606
8699.249267578125	0.4927644490624726	-9.49987713944012	-2.337669396043175	-1.787836789937149	-1.178190564412238	-2.182248211449585	0.1416309012875537	-0.421875	0.6326530612244898
8718.780517578125	0.01000203898564146	-9.434443454733293	-2.020612061829452	-3.301931450048555	0.1221909554905314	-5.462943991793287	0.1351931330472103	-0.3995535714285714	0.6439909297052154
8738.311767578125	0.1935311550026381	-9.698905008519725	-2.006176724753608	0.9584220356367812	3.93894075465717	-0.7396454272654908	0.1373390557939914	-0.4040178571428571	0.655328798185941
8757.843017578125	0.1918907411197508	-9.658484563976856	-1.842135336464874	4.753573324804803	4.302892480792882	0.05204254168816725	0.1330472103004292	-0.4084821428571428	0.63718820861678
8777.374267578125	0.2956736355136746	-9.528209261607664	-0.995934979938884	4.346718066517175	10.46289446697945	-0.01769458333945102	0.1373390557939914	-0.4040178571428571	0.6462585034013606
8796.905517578125	0.006018217927489385	-9.525312707431802	-0.6018217927489383	11.78128990940201	22.00240207665017	0.3753140076373658	0.148068669527897	-0.40625	0.6417233560090703
8816.436767578125	0.6441518756306931	-9.905431417746208	-1.149881440620328	18.54657316766813	36.13682454474359	1.808124368985063	0.1330472103004292	-0.4196428571428571	0.6349206349206349
8835.968017578125	-0.09095247315248063	-10.23141370759171	-1.108834317404997	25.12479179347313	59.94278984969815	0.9822046280199631	0.1223175965665236	-0.421875	0.6281179138321996
8855.499267578125	-0.3577571661265878	-10.259048690965	-0.9589772648922432	29.79252846264353	71.10909551330404	0.604184074551485	0.1158798283261803	-0.4040178571428571	0.6349206349206349
8875.030517578125	-0.9623005996127092	-9.960073963700845	-0.7087155489331617	32.84182205620429	77.27396095111975	1.322945752476198	0.1502145922746781	-0.4084821428571428	0.6235827664399093
8894.561767578125	-0.8084222490080354	-9.971713757307901	0.2299800028443545	41.63024528872231	77.1717174315483	15.52851363073954	0.1244635193133047	-0.4241071428571428	0.6145124716553289
8914.093017578125	-0.5674945614299536	-9.246850306910954	0.6270071634035248	47.93733762760346	73.61944061368574	18.20816385720658	0.07939914163090128	-0.4375	0.6167800453514739
8933.624267578125	-0.5142374700877765	-9.439302069743569	0.4033388455123559	51.76029155070897	63.01114935115429	16.95185692743069	0.08798283261802575	-0.453125	0.6009070294784581
8953.155517578125	-0.8065272469144608	-9.759611495207626	1.060887956752189	51.74136896644421	46.84356151318413	12.43689536131935	0.06652360515021459	-0.4575892857142857	0.5873015873015873
8972.686767578125	-0.6107939760398818	-9.822174888522431	0.8753159713351191	54.35131964644442	33.51086925929576	14.42098244853737	0.111587982832618	-0.4888392857142857	0.5827664399092971
8992.218017578125	-0.4140324161672861	-10.42010210008075	0.5869150861163671	52.74442371242189	14.94843799970179	12.4161954611579	0.1008583690987124	-0.5178571428571428	0.5691609977324263
9011.749267578125	0.03487714185406943	-10.80842957949935	0.5939184676542817	51.75639612209126	6.936364957249997	11.39741894912832	0.1094420600858369	-0.5245535714285714	0.5532879818594104
9031.280517578125	-0.1114617283457154	-10.56454194837311	-0.07831696134683092	51.17757796542986	0.8391594680818344	12.52595133153426	0.1137339055793991	-0.5669642857142857	0.5555555555555556
9050.811767578125	-0.4611096724506548	-10.76306567095226	0.1925998981267028	51.12922231277968	-3.92473175786383	18.68773104440977	0.1223175965665236	-0.5558035714285714	0.5306122448979592
9070.343017578125	-0.4014161376248406	-10.40002624266416	0.3456953951371206	48.07121242919835	-13.4026886031154	16.92278926411153	0.1266094420600858	-0.640625	0.5283446712018141
9089.874267578125	0.009775857459514987	-9.555653314130151	0.04282241731380719	46.81923817888524	-14.0411902088121	11.14873911170899	0.1244635193133047	-0.640625	0.5124716553287982
9109.405517578125	-0.136979135624556	-9.624892834906381	0.4326074400066274	45.65749601843698	-10.89733617174475	8.576080116618561	0.148068669527897	-0.671875	0.546485260770975
9128.936767578125	-0.08962713021794519	-9.908194637788732	0.7994477156720704	44.27305780215535	-12.36938678783059	7.843687398022133	0.1587982832618026	-0.6830357142857143	0.526077097505669
9148.468017578125	-0.5998544752348703	-10.20612266736886	0.8017740540992826	48.93207818130518	-4.516172531660567	6.41948674218012	0.1523605150214592	-0.6986607142857143	0.5555555555555556
9167.999267578125	-0.5908422587208374	-9.903182486503702	0.9209605659612934	51.75113651670279	-2.242868384698826	8.971120478929246	0.1587982832618026	-0.7232142857142857	0.5600907029478458
9187.530517578125	-1.306879743978938	-10.35056756619658	1.096137663199923	50.04191009660303	-4.056158516261489	8.595356621627051	0.1759656652360515	-0.7254464285714285	0.5600907029478458
9207.061767578125	-0.8474852333344056	-10.36526252140403	1.075053945685456	53.07473318914877	-8.485628720844888	14.81541569919286	0.1802575107296137	-0.7767857142857142	0.5532879818594104
9226.593017578125	-1.230915321999869	-9.826074685163842	1.662960771415423	51.07959166457058	-10.22444040964546	15.87203767623679	0.184549356223176	-0.7723214285714285	0.5555555555555556
9246.124267578125	-0.7620217232332048	-10.01258180296969	1.712376404953132	50.41289559342595	-12.02913200210748	15.87675067073852	0.1695278969957082	-0.78125	0.5895691609977325
9265.655517578125	-0.9511044079251488	-9.919781885213681	2.253297935372028	52.43065472499347	-12.46335040020462	14.84231134670335	0.1888412017167382	-0.8035714285714285	0.5850340136054422
9285.186767578125	-0.5143646611209702	-9.89384625237869	2.45687427536233	55.43761853458242	-0.8480609861148688	15.86543441940172	0.1931330472103004	-0.8102678571428571	0.5941043083900227
9304.718017578125	-1.348235671355896	-9.784497441266241	2.170505911099784	56.77101067687167	2.761322198809168	15.85600843039826	0.1587982832618026	-0.8125	0.6122448979591837
9324.249267578125	-1.770779290930126	-9.558049782848277	2.588133174645265	55.75863713723565	-0.1446497894884321	15.50510844927269	0.1866952789699571	-0.8303571428571428	0.63718820861678
9343.780517578125	-2.017292870609419	-9.22225131371815	2.749695224207215	55.3558877260735	-9.322912818705541	20.26509508414738	0.1630901287553648	-0.8348214285714285	0.6303854875283447
9363.311767578125	-1.227309157299594	-9.43217135287145	3.343160627918623	53.13773722912916	-21.18159941402265	21.77816786102497	0.1566523605150215	-0.8348214285714285	0.6802721088435374
9382.843017578125	-1.357558959618858	-9.228848652828056	3.102834737395974	56.24734444132812	-20.81148087460086	22.55608328030639	0.1652360515021459	-0.8415178571428571	0.673469387755102
9402.374267578125	-0.9296253674862803	-9.849289604910998	3.166618381281098	58.94051593406085	-16.12791627280013	22.56311106414303	0.1909871244635193	-0.8504464285714285	0.6802721088435374
9421.905517578125	-1.107354407474208	-9.483875950874754	3.592583604563677	61.92831882129258	-8.205738706325613	22.18393311600709	0.167381974248927	-0.8549107142857142	0.7120181405895691
9441.436767578125	-1.723974722326998	-9.093871363887843	4.030125293924306	61.18678198147543	-9.737502412786828	20.38585886519623	0.1523605150214592	-0.84375	0.7392290249433107
9460.968017578125	-1.702610875323055	-9.508226416499296	3.934556920060548	62.99433094839505	-11.83670573775093	22.2415630288634	0.1545064377682404	-0.8392857142857142	0.746031746031746
9480.499267578125	-1.605931095079459	-9.32737503248355	4.470660528354018	65.83859940425607	-16.13603812857162	23.78029064275213	0.1652360515021459	-0.8459821428571428	0.7573696145124716
9500.030517578125	-1.724409068367418	-9.548412474972892	4.073559897966274	68.62459550032771	-12.06972433489154	25.95362080803173	0.1738197424892704	-0.8526785714285714	0.7981859410430839
9519.561767578125	-1.755914431590486	-9.40668327992652	4.162871730477137	73.70768870914166	-11.75591684729884	33.24638920164863	0.148068669527897	-0.8191964285714285	0.8117913832199547
9539.093017578125	-1.734166702670799	-8.942254292569253	5.049323328304432	74.14069283749106	-7.976644611177822	36.45466663379685	0.1309012875536481	-0.8214285714285714	0.8208616780045351
9558.624267578125	-2.093443028602926	-9.090176680825083	5.262670207231304	74.50694665412293	-11.61929358834682	36.13870596968535	0.148068669527897	-0.8169642857142857	0.8820861678004536
9578.155517578125	-1.795763279217894	-9.163860549026005	5.086532003422077	75.47550040556357	-12.80430264687361	34.3713659842203	0.1330472103004292	-0.7924107142857142	0.9002267573696145
9597.686767578125	-2.18893892213075	-9.220534853202938	5.628586090626007	71.4279495980002	-19.35567397005801	25.72283515612102	0.1008583690987124	-0.7879464285714285	0.9047619047619048
9617.218017578125	-1.547554698645034	-8.954221422710521	5.775878027768683	78.7338270760814	-9.011887051926053	31.16119828973873	0.1072961373390558	-0.7834821428571428	0.9297052154195011
9636.749267578125	-2.227157498174839	-8.331263778553607	5.368811041973653	78.3362393624396	-6.509299395295203	30.40879619846793	0.1094420600858369	-0.7566964285714285	0.963718820861678
9656.280517578125	-2.156886080875339	-8.422875583635694	5.484526454880849	76.92714228031983	-8.379219210590193	28.96046453411518	0.09442060085836909	-0.7477678571428571	1.018140589569161
9675.811767578125	-2.455929474805874	-8.096652826464064	5.79702911324044	75.30406543238725	-11.55195227160252	30.39857924862996	0.09442060085836909	-0.71875	1.00907029478458
9695.343017578125	-2.201619847525723	-8.291115114656055	5.876270466858012	69.58325587405697	-20.6052595705893	22.10131483548919	0.09012875536480687	-0.6897321428571428	1.052154195011338
9714.874267578125	-1.729637341336726	-7.396845040728048	5.616795358162379	73.06932319713198	-11.0232935778022	26.03205105439692	0.1030042918454936	-0.6919642857142857	1.047619047619048
9734.405517578125	-2.397627867523544	-7.097235842536887	6.089317364599303	69.12535454177696	-12.30792501556454	21.28975900286169	0.08798283261802575	-0.65625	1.074829931972789
9753.936767578125	-2.664442661568359	-7.27638587641462	6.2401845241828	66.316740838716	-14.2012087223469	19.09424618457333	0.07939914163090128	-0.6227678571428571	1.113378684807256
9773.468017578125	-2.333895883400038	-6.89585296035792	6.858976095105799	64.30534382178745	-18.52876845628409	19.09729384157413	0.07510729613733906	-0.6294642857142857	1.120181405895692
9792.999267578125	-1.969756902029353	-6.939898390575667	6.159363672323037	67.67769727685025	-9.089592535735097	20.14948584211738	0.0815450643776824	-0.5870535714285714	1.108843537414966
9812.530517578125	-2.200734952502892	-6.563851236333559	6.80818912784019	65.29627684212494	-9.412331611353681	20.46479705439489	0.04935622317596566	-0.5714285714285714	1.147392290249433
9832.061767578125	-1.849788010704976	-6.678471816862649	6.407372499069051	64.98947247297325	-10.09789404895036	21.18494105181947	0.09012875536480687	-0.5290178571428571	1.165532879818594
9851.593017578125	-1.782480247551038	-6.376114591463884	6.81945332653237	60.75668328313293	-12.41241084642922	17.52630813383918	0.06008583690987124	-0.5334821428571428	1.174603174603175
9871.124267578125	-2.270838692028648	-5.57325120903931	6.675705937558653	62.10837217662137	-3.643380330261705	19.26421275762641	0.07725321888412018	-0.4933035714285714	1.1859410430839
9890.655517578125	-2.184284266291044	-5.523611702791635	7.203936833186039	60.32721041785597	-4.079378773344941	17.4343883558028	0.06866952789699571	-0.4776785714285714	1.201814058956916
9910.186767578125	-2.320871480372151	-5.02729633570133	7.59735211884782	60.02708107987601	-4.022749089612614	18.50695616285336	0.07081545064377683	-0.4754464285714285	1.201814058956916
9929.718017578125	-2.288689345411686	-5.118527247960025	7.440363112597147	59.65674474554645	-5.521898684657341	17.43540424146973	0.06652360515021459	-0.421875	1.244897959183674
9949.249267578125	-1.797672299123879	-5.133538428523914	7.318250320551193	57.92867031962226	-5.524330410471907	17.04115483999357	0.07081545064377683	-0.4151785714285714	1.238095238095238
9968.780517578125	-2.506921823637724	-4.60119340802625	7.835039506629538	55.85782385521355	-5.523678729643433	16.64001916368128	0.06652360515021459	-0.3772321428571428	1.251700680272109
9988.311767578125	-2.359576928024339	-4.673373927689455	7.386264231005301	54.91275188192026	-7.978235241642601	18.08451221019872	0.05793991416309013	-0.375	1.260770975056689
10007.84301757812	-2.667436577697182	-4.639992300889697	7.559984300330458	49.8929756296195	-15.48404316904973	19.13831145507426	0.05793991416309013	-0.3236607142857142	1.272108843537415
10027.37426757812	-2.251923303335326	-4.26030904979493	7.845391558022406	49.99528278626891	-11.75312070946363	14.0670771505898	0.05579399141630902	-0.3191964285714285	1.287981859410431
10046.90551757812	-2.556116264341371	-3.772418635336385	7.652442760667697	46.03160195393143	-9.76035825784964	9.651329146836982	0.06866952789699571	-0.3013392857142857	1.294784580498866
10066.43676757812	-2.17400735449558	-3.958057906253025	8.217061980170275	47.82438543272427	-4.90690460485192	12.87606035182531	0.0536480686695279	-0.2946428571428572	1.287981859410431
10085.96801757812	-2.14048783777345	-3.584655727682872	7.926334797753171	44.3197830203576	-7.174041938527583	10.31065406540394	0.07081545064377683	-0.2522321428571428	1.290249433106576
10105.49926757812	-2.767645630817096	-3.144040715409001	8.397216142934047	45.39482435401344	-1.98794730915369	12.79827955729411	0.03862660944206009	-0.2611607142857142	1.319727891156463
10125.03051757812	-2.522683575598465	-3.41921760868846	8.390806539438289	43.37502396359709	-4.124628197163407	13.13896258858171	0.0536480686695279	-0.2366071428571428	1.299319727891157
10144.56176757812	-2.236462522052807	-3.422079819223917	8.340129756301112	42.34003281697174	-4.857570098563291	12.76587995444737	0.07296137339055794	-0.1941964285714285	1.306122448979592
10164.09301757812	-2.229304862120659	-3.058515032186875	8.644771926351618	38.82875537343332	-7.866899553567956	9.84804985840003	0.07725321888412018	-0.2098214285714285	1.315192743764172
10183.62426757812	-2.13134430734022	-3.332221910461952	8.032389917695516	41.86878142234824	1.955380213803465	11.24947650256792	0.05579399141630902	-0.1674107142857143	1.344671201814059
10203.15551757812	-2.378700316316514	-3.107526128149967	8.278194896957467	41.219205014712	1.27290118284983	11.96273422515639	0.07296137339055794	-0.1696428571428571	1.346938775510204
10222.68676757812	-2.637864518178657	-2.902914284111143	8.684411001539191	35.29226780943149	-4.303592470790182	7.943125885213079	0.05579399141630902	-0.1339285714285714	1.319727891156463
10242.21801757812	-2.553190953035638	-2.752245868247422	8.380319793359702	39.31775226463077	-2.549696797699645	14.84062899168688	0.0407725321888412	-0.1160714285714286	1.321995464852608
10261.74926757812	-2.378001322223559	-2.420664431222209	8.208295487662022	37.97014588884	-6.176928741653444	14.49023695339477	0.0407725321888412	-0.08928571428571427	1.331065759637188
10281.28051757812	-2.633611967410827	-2.246391153053164	8.259155924756206	37.27038757836941	-6.188610687397128	14.11664637642697	0.06008583690987124	-0.08928571428571427	1.340136054421769
10300.81176757812	-2.320655276230152	-2.017197487641739	8.596139867913214	35.17605933581333	-2.548393436042699	14.03835763906231	0.05793991416309013	-0.06473214285714285	1.331065759637188
10320.34301757812	-2.04550099698042	-1.929039939525146	8.63173235110324	28.76247941471698	-5.36722030608082	7.10374193524004	0.08369098712446352	-0.05580357142857142	1.333333333333333
10339.87426757812	-2.454149542460644	-1.793640322757212	8.680260368513357	33.36678202657766	2.483880856177879	12.8727126593079	0.03433476394849785	-0.02901785714285714	1.35827664399093
10359.40551757812	-2.249440418926579	-1.997707616012755	8.617511280412973	30.23919097971229	2.458085238875945	11.73128210389613	0.02789699570815451	-0.03348214285714286	1.351473922902494
10378.93676757812	-2.324477521385846	-1.875745123776041	8.97836438348253	26.09051010319032	-3.786773774159452	9.192771464985258	0.04935622317596566	0	1.351473922902494
10398.46801757812	-2.069642638428908	-1.767182361494499	9.005080169421444	26.56702110320229	-1.420490744577385	13.13547338706378	0.05579399141630902	-0.01339285714285714	1.36734693877551
10417.99926757812	-2.945279720740373	-1.253375485620879	8.813686359751637	25.21391678393058	-1.752480040125084	13.47144342384965	0.0536480686695279	0.03125	1.360544217687075
10437.53051757812	-2.424217926053794	-1.501010345991987	8.748323217624321	23.19670890698831	-8.288767379019522	12.77703767926809	0.03648068669527897	0.03794642857142857	1.335600907029479
10457.06176757812	-2.391585283339777	-1.501336672419128	8.54628343601849	22.77650358635719	-3.613149635490958	12.00245293498853	0.03862660944206009	0.03794642857142857	1.365079365079365
10476.59301757812	-2.176526561530014	-1.442881199031165	8.468982683613687	19.49805391445599	-7.130524250526382	6.216662004247621	0.07296137339055794	0.05357142857142857	1.346938775510204
10496.12426757812	-3.117133978004858	-0.7466064379977293	8.652173310689834	21.69714139691121	-1.466566846723649	11.23997540288028	0.06652360515021459	0.06473214285714285	1.353741496598639
10515.65551757812	-2.029015967128167	-0.7776896383085166	9.024045692408562	20.35126336343649	-8.026869757933929	10.19952418067541	0.05793991416309013	0.08035714285714285	1.360544217687075
10535.18676757812	-1.905830894890544	-0.6577093678187714	8.950436427829866	19.76113640328043	-13.03756020365323	11.31696523657696	0.03862660944206009	0.09151785714285714	1.401360544217687
10554.71801757812	-1.835900893780955	-0.516994526415726	9.100293459728189	18.71193102315356	-13.78835086408288	10.58406457514707	0.06866952789699571	0.09598214285714285	1.374149659863946
10574.24926757812	-1.218916940382698	-1.008012850798193	8.626387915820796	18.63622608332302	-12.04888749445383	9.126306921790855	0.07296137339055794	0.09151785714285714	1.3718820861678
10593.78051757812	-2.144853520533204	-0.6856221718653751	8.362903073728482	17.51045159220758	-9.593679301626194	7.280678198961134	0.07725321888412018	0.1071428571428571	1.365079365079365
10613.31176757812	-1.986217565625328	-0.5457943900003125	8.825838195185842	16.41601099810206	-5.998409788260408	6.50341223151371	0.07725321888412018	0.125	1.356009070294785
10632.84301757812	-2.152627304549645	-0.01887776735854397	9.14028147537263	16.6378428827774	0.08403034852103074	5.008175546976093	0.08583690987124463	0.1450892857142857	1.353741496598639
10652.37426757812	-2.081988208276395	-0.04988718862430677	9.219228990904766	16.90781541143825	2.924774113985658	3.906030869247182	0.07296137339055794	0.1517857142857143	1.3718820861678
10671.90551757812	-2.091871137085409	-0.585141894689752	9.187113708540839	13.76773847338741	-0.05194122960251994	1.714723102627083	0.07081545064377683	0.1361607142857143	1.378684807256236
10691.43676757812	-1.985074124421246	-0.7680280466345756	8.711494074777685	14.16736744587804	0.01637039987349184	3.160881486645445	0.07939914163090128	0.1629464285714286	1.353741496598639
10710.96801757812	-1.889254955401924	-0.1629256322641626	9.333658805498496	13.81415077505687	-0.360566633662851	2.797874293348558	0.08798283261802575	0.1607142857142857	1.35827664399093
10730.49926757812	-2.407623804637901	-0.02642881245867151	9.129727402565612	12.80381849426968	-0.6956393358535897	3.140730604970549	0.08369098712446352	0.1696428571428571	1.342403628117914
10750.03051757812	-2.498095425595848	0.05528398455898878	8.993216028972531	11.77550237881609	-0.6863891159244719	3.120071780462185	0.06223175965665236	0.1473214285714286	1.360544217687075
10769.56176757812	-2.659888975206867	-0.3774415142883355	8.846040377829571	8.292653402280715	-3.660021052869611	0.9218777390059651	0.09442060085836909	0.1584821428571428	1.36734693877551
10789.09301757812	-2.032032146841407	0.04052234167043427	9.32566366373255	9.741487754898218	-2.840918762963952	3.100936784454223	0.05793991416309013	0.1674107142857143	1.360544217687075
10808.62426757812	-2.080790221290493	-0.363030481625479	9.099430292314594	10.69786853168617	-1.472877294413644	1.667535064441169	0.07296137339055794	0.1651785714285714	1.35827664399093
10828.15551757812	-1.894580281107743	-0.2133774295121549	8.845783212815132	7.883756885144253	-0.07091835278990333	0.1583843212307841	0.0815450643776824	0.1964285714285714	1.374149659863946
10847.68676757812	-2.485196317073594	-0.2276732893545166	8.723713340012468	8.344012392805872	-0.2933833683444598	3.047511923266181	0.06008583690987124	0.1986607142857143	1.35827664399093
10867.21801757812	-1.993900481234262	-0.2022832174098796	8.573721592813994	8.427256534966187	-2.757190100272744	4.51266379429198	0.09227467811158799	0.1986607142857143	1.344671201814059
10886.74926757812	-1.937202923980273	-0.2331532232854498	9.026414847006915	4.658492453952381	-5.656343594455793	3.746855587181879	0.06652360515021459	0.2008928571428571	1.349206349206349
10906.28051757812	-2.526899762511748	0.4091073814635014	8.8124252307666	0.5080832351143554	-8.968131640234709	1.898404132183771	0.09227467811158799	0.1964285714285714	1.344671201814059
10925.81176757812	-1.99907424965061	0.1715058940116576	9.091098434448782	0.2030072082787022	-12.58676504508786	1.92848894569559	0.09656652360515021	0.2142857142857143	1.3718820861678
10945.34301757812	-1.604635931670465	0.147359490629836	9.443185003781226	0.8943621452614895	-10.3842042534167	2.639714896950188	0.09656652360515021	0.1852678571428571	1.333333333333333
10964.87426757812	-1.632854406485334	0.1981467258830352	9.203807995472175	2.208906281726301	-4.963962662744567	2.611803363772763	0.09871244635193133	0.1964285714285714	1.35827664399093
10984.40551757812	-1.703358148411104	-0.1647846003340708	9.111325045192078	1.728074425924188	0.002431725814566389	0.3942494014761655	0.09442060085836909	0.2165178571428571	1.36281179138322
11003.93676757812	-1.800805610028466	-0.244618206525978	8.65198957427511	1.452603953782392	0.4569306087560389	2.182756154283052	0.09442060085836909	0.2098214285714285	1.360544217687075
11023.46801757812	-1.887398378605897	0.1097830746951499	9.148001125895853	-2.429873995243612	-2.585012957665112	-1.461596271191531	0.1008583690987124	0.2165178571428571	1.342403628117914
11042.99926757812	-1.341704030434449	-0.1077950809077767	8.660198961812201	-1.653546573784457	-5.779329865178713	0.02472236717609801	0.0815450643776824	0.2075892857142857	1.340136054421769
11062.53051757812	-2.121063355116473	0.4151500274905587	9.045111021851456	-0.9793113003100549	-4.698981635015933	0.02740359034395825	0.1072961373390558	0.2120535714285714	1.351473922902494
11082.06176757812	-1.987718584732453	0.2724024383725771	8.975940105898315	-3.856090740871788	-5.577145334468486	-3.618472663631024	0.1072961373390558	0.1964285714285714	1.356009070294785
11101.59301757812	-1.832872592782867	0.1597428673419701	8.797463359919307	-7.541395671060617	-2.934517963317342	-9.47400071939955	0.1094420600858369	0.1941964285714285	1.369614512471655
11121.12426757812	-2.154613175050726	0.09225320245757797	9.338868525480789	-0.1020921479847545	4.274665137676381	-1.483637415199768	0.08798283261802575	0.1941964285714285	1.344671201814059
11140.65551757812	-2.186373085255621	0.1531768621656875	9.453635056174388	-2.258224013402625	4.168224264326277	-4.043681255285416	0.09442060085836909	0.1808035714285714	1.36281179138322
11160.18676757812	-2.20457731734228	-0.3213885702609207	9.233241938309598	-1.797104334582978	2.47922376514348	-1.499583245206404	0.1008583690987124	0.1964285714285714	1.374149659863946
11179.71801757812	-1.922396692079596	-0.3242103765135476	9.586607983469795	-1.675300009615757	-5.072835261909237	-0.3424898777890501	0.09227467811158799	0.2165178571428571	1.36734693877551
11199.24926757812	-2.20702379666762	0.05237326826970651	9.47788987084366	-0.3854147389891071	-0.05046287044624902	-1.086340356722802	0.08369098712446352	0.2142857142857143	1.346938775510204
11218.78051757812	-2.257761680975363	0.254900849132986	9.449637485291415	-3.942240313038964	-4.217702405018822	-5.432351235448001	0.1223175965665236	0.1964285714285714	1.349206349206349
11238.31176757812	-2.319065326471943	-0.118223488149422	9.457553055357501	-1.823804459269974	-0.489544720172525	-2.909278483710293	0.1030042918454936	0.21875	1.351473922902494
11257.84301757812	-2.850278738448353	-0.2947295358478398	9.517669763202667	-8.912796741531528	-8.426154590108528	-10.88536129540437	0.08583690987124463	0.1808035714285714	1.36281179138322
11277.37426757812	-2.337732187597001	-0.1584408599422118	9.283422841332762	-0.3410436961684787	-2.929987560613441	-0.6969454587488899	0.1051502145922747	0.1852678571428571	1.360544217687075
11296.90551757812	-2.379031590206858	-0.02671473460298194	9.331730449257156	-0.04177852934654733	-1.520081760717528	-1.424483673843065	0.1030042918454936	0.1897321428571428	1.36734693877551
11316.43676757812	-2.216502682648336	0.02216502682648337	9.405370305649996	-0.713108372814088	-1.496066188401687	-1.078438196219747	0.07725321888412018	0.1986607142857143	1.360544217687075
11335.96801757812	-2.308733910123518	0.1746024906163867	9.444819583780419	-4.963017226162787	-4.932795547388943	-5.445615842286776	0.09227467811158799	0.2075892857142857	1.349206349206349
11355.49926757812	-2.019615869498969	-0.1111169726181416	9.104444092754024	0.6846799058110384	1.460368670342161	0.3588021416286265	0.1030042918454936	0.1964285714285714	1.353741496598639
11375.03051757812	-2.428127040417571	-0.03632479020188491	9.13923465400203	-2.143958890765179	-2.659491400427202	-2.89398210553765	0.111587982832618	0.2098214285714285	1.365079365079365
11394.56176757812	-2.185082168419211	0.02185082168419212	9.324543372533377	-0.7406726686591106	-2.998299190089453	-2.143103842767252	0.09871244635193133	0.1897321428571428	1.360544217687075
11414.09301757812	-2.082765990720867	0.4046660437455926	9.297007235352011	-4.086110990370266	-1.46311902805997	-8.340472324490834	0.09442060085836909	0.2075892857142857	1.365079365079365
11433.62426757812	-2.031660427439374	-0.2423096583518689	9.288491723529193	0.04931773167632323	0.7957383984182897	1.431877891512653	0.08798283261802575	0.2075892857142857	1.346938775510204
11453.15551757812	-2.192011544153372	-0.04878695526553701	8.99707278268407	-1.077633847129921	-0.786488178489172	-1.452536716021016	0.09227467811158799	0.1785714285714285	1.360544217687075
11472.68676757812	-2.321376451449804	-0.1384023971016636	9.688665553143599	-4.209307411692959	-5.954082368004829	-3.981479856927912	0.1008583690987124	0.1897321428571428	1.365079365079365
11492.21801757812	-2.154988934881043	0.2134690812680024	9.376444508512446	-0.3807809666661922	-1.879170035224109	-1.427672839844392	0.07725321888412018	0.2053571428571428	1.346938775510204
11511.74926757812	-2.20892481817476	0.5271397532322528	9.667992021557573	-0.3456774684913937	-1.101280395835581	-0.3556129756272994	0.1094420600858369	0.1897321428571428	1.365079365079365
11531.28051757812	-2.148320166771134	0.2134023935869033	9.729975860786933	-1.807861883452395	-3.404766928399243	-3.239519640327502	0.1072961373390558	0.21875	1.374149659863946
11550.81176757812	-1.986415505382334	0.2925914277810961	9.866040334151716	-0.0484535605182962	-2.26227388204653	-1.776907483469037	0.1094420600858369	0.1941964285714285	1.346938775510204
11570.34301757812	-2.277038646771151	0.05307341677074182	9.33651773833958	-4.282419838049417	-8.614225449260504	-6.474326286153276	0.1244635193133047	0.1919642857142857	1.35827664399093
11589.87426757812	-1.84348881809638	0.008333878079953698	9.859085891270658	0.7432651821331916	-1.401307260795268	1.108015066898099	0.1030042918454936	0.1964285714285714	1.360544217687075
11609.40551757812	-2.170948667827649	0.0419115068802967	9.95200963990777	0.651304749952294	-2.250591936302845	-1.403316906501235	0.1030042918454936	0.1897321428571428	1.3718820861678
11628.93676757812	-2.230329069461533	-0.1696159012245766	9.767600823704305	-7.155429677446262	-9.854560829862676	-10.11650543129347	0.1137339055793991	0.171875	1.346938775510204
11648.46801757812	-1.634238253172252	-0.3573949912056513	9.342192664164026	0.3009935091379854	-1.523165167360568	-1.417597399006944	0.1008583690987124	0.1875	1.351473922902494
11667.99926757812	-2.118241115960817	-0.07982768985049286	8.76288710628574	-1.088942650624585	0.3000268649596861	-1.463628042525398	0.08583690987124463	0.1852678571428571	1.337868480725624
11687.53051757812	-1.959144552228682	-0.2026307766999355	9.179761345317198	-2.230972634090381	0.1664870126507018	-4.362831085398243	0.1180257510729614	0.2008928571428571	1.360544217687075
11707.06176757812	-2.102075279942919	-0.07998934821067184	9.187119831026553	-0.05018190283435026	0.6707970852099504	-1.086848299556268	0.09442060085836909	0.2053571428571428	1.353741496598639
11726.59301757812	-2.386393291767296	-0.2185603095065695	9.047492442035669	-2.223433431760606	-0.5578563496485369	-4.355436867728655	0.1094420600858369	0.1964285714285714	1.344671201814059
11746.12426757812	-2.017731009704962	0.2828035727233122	8.9159581133533	0.5947607324789748	3.181983280941445	-1.458773539023144	0.09656652360515021	0.1964285714285714	1.360544217687075
11765.65551757812	-2.319309772383062	0.457536532067265	9.481997646469493	-1.128679921122299	1.350844390349019	-2.1943554236209	0.1137339055793991	0.2053571428571428	1.383219954648526
11785.18676757812	-1.951974771011685	0.1407318689222381	9.48319138688281	-0.4080323459784348	2.122567216451467	-1.108523009731565	0.08583690987124463	0.2209821428571428	1.365079365079365
11804.71801757812	-2.064369838290768	0.2226639004031097	9.498208318872672	-1.160877989290236	1.677318553439112	-2.917688587046815	0.08369098712446352	0.203125	1.360544217687075
11824.24926757812	-2.083519530595642	0.3137644882352494	9.37236122282947	-2.739583794402181	-4.374939197740406	-1.090178974558122	0.111587982832618	0.2008928571428571	1.380952380952381
11843.78051757812	-1.868580001420227	-0.102526321197919	9.306979733859439	-1.033262804309293	-3.666012868656364	-1.063141818047104	0.09227467811158799	0.2053571428571428	1.380952380952381
11863.31176757812	-1.633749361350013	0.006236483512490025	9.293303481940043	-1.436661377964813	-3.372152816982756	-2.51299731090026	0.1094420600858369	0.203125	1.349206349206349
11882.84301757812	-1.919501725214845	0.06970006775719896	9.297111296994727	-1.078498018287949	0.6800473051390682	-1.107507124064632	0.09227467811158799	0.1897321428571428	1.36281179138322
11902.37426757812	-2.379047751919989	-0.1681287143999921	9.333346620570346	-1.430850517951091	-1.163425212025515	-1.815543909317904	0.1072961373390558	0.2098214285714285	1.365079365079365
11921.90551757812	-2.360576851566655	-0.1380103931004951	9.527072911767508	-2.076657324422443	-2.208075924128769	-1.098589077894643	0.1030042918454936	0.1852678571428571	1.351473922902494
11941.43676757812	-2.624017887995187	0.2888664415062145	9.340564309722698	-0.7235530051507248	-1.876086628581069	-1.434559114680513	0.1030042918454936	0.2008928571428571	1.344671201814059
11960.96801757812	-2.186203387267736	0.375397387408031	9.436665257385897	-0.04350687166260137	1.412989206538952	-0.7344244899302963	0.1137339055793991	0.1875	1.344671201814059
11980.49926757812	-2.433597780312717	0.3273662808334302	9.686308643516675	-1.217734923296335	1.605923517320061	-4.356960696229056	0.09871244635193133	0.2142857142857143	1.383219954648526
12000.06103515625	-2.42190271941879	0.3676533706285314	9.537210717389229	0.5550234619812614	4.232800806330776	-2.189500920118647	0.09871244635193133	0.1986607142857143	1.349206349206349
12019.56176757812	-2.312665246842852	-0.007176377834601788	9.837953255713764	-0.7235530051507248	-1.876086628581069	-1.434559114680513	0.1051502145922747	0.2008928571428571	1.356009070294785
12039.09301757812	-2.215415807440217	0.06255819847844257	9.296682784838001	0.328557804983008	-0.02093216567280204	-0.3529317524594392	0.09656652360515021	0.1897321428571428	1.36281179138322
12058.62426757812	-1.843955487563064	-0.2239846875486118	9.905752837939005	0.7261455186248059	-2.523519822303651	0.39947033881136	0.1008583690987124	0.2209821428571428	1.36734693877551
12078.15551757812	-1.593393398744231	-0.2365913185378103	9.339339874423086	-3.942240313038964	-4.217702405018822	-5.432351235448001	0.1180257510729614	0.1941964285714285	1.353741496598639
12097.68676757812	-2.399880282604722	0.03409981292705732	9.375783362512999	0.6968528804637294	-1.092681856734937	0.02486387617662396	0.09656652360515021	0.2209821428571428	1.351473922902494
12117.21801757812	-1.936936255713597	-0.172549829362056	8.999748020339288	0.02638720815421566	-2.535201768047335	0.02587976184355767	0.1180257510729614	0.2008928571428571	1.346938775510204
12136.74926757812	-2.326917940068762	0.003067159198667412	9.222406251774144	-0.7357259798034157	0.676963898496029	-1.100620849228511	0.1072961373390558	0.1964285714285714	1.376417233560091
12156.28051757812	-2.012371340358737	-0.06068436740449345	9.400399341996136	0.6666960711446257	1.804691592462018	-0.004712994501727668	0.09871244635193133	0.1852678571428571	1.356009070294785
12175.81176757812	-1.873834578402235	0.06924339628907286	9.832437432060175	-0.396723542483771	1.036052173002609	-1.097431683227184	0.1030042918454936	0.1964285714285714	1.365079365079365
12195.34301757812	-2.123115892684225	-0.3727082350125518	9.250364778626521	1.385302387439656	0.005515132457605664	0.3873631266400444	0.1266094420600858	0.1919642857142857	1.346938775510204
12214.87426757812	-1.908010705949208	-0.2233441353647504	9.168417533696298	-1.404463309796875	-3.69862698007285	-1.789664147474346	0.1309012875536481	0.2254464285714285	1.35827664399093
12234.40551757812	-2.043102961565615	-0.03007402088939436	9.412336972888053	-2.74625882557393	-5.117131319069407	-1.442602784184094	0.1180257510729614	0.2053571428571428	1.356009070294785
12253.93676757812	-2.065109236666552	-0.06015698844141531	9.572148156451092	-5.390210494498441	-6.50334017855272	-7.956439872852643	0.1351931330472103	0.1919642857142857	1.349206349206349
12273.46801757812	-2.234959441502681	0.3051778772433097	9.210229864553792	0.6959887093057022	0.3738536268933035	0.3698934681330084	0.1008583690987124	0.1964285714285714	1.346938775510204
12292.99926757812	-1.942774674582494	0.1305388578569361	9.583589907228994	1.038760747790235	0.3707702202502642	0.3767797429691294	0.08583690987124463	0.2008928571428571	1.349206349206349
12312.53051757812	-2.019621930141394	-0.1010159019107073	9.105050156996469	-0.08819083101600964	-1.211456356657197	-2.50763486456454	0.1137339055793991	0.1875	1.36734693877551
12332.06176757812	-1.971453758221622	-0.0610935432258646	9.390273781345844	-0.3485828984982546	-2.205644198314202	-0.7043396764184778	0.111587982832618	0.2098214285714285	1.356009070294785
12351.59301757812	-2.366069855046217	-0.07734940245963887	9.055965096458484	0.7545739856278555	-2.487822304244125	1.119106393402481	0.1072961373390558	0.2209821428571428	1.353741496598639
12371.12426757812	-2.132823062862929	-0.1907929814925829	9.200673633231659	-1.016143140800907	-2.54380030714798	-0.3545970899603657	0.09871244635193133	0.1964285714285714	1.337868480725624
12390.65551757812	-2.136408942964068	0.06176812983368109	9.559261643345579	-3.164735803889002	-3.374584542797323	-2.907246712376426	0.1030042918454936	0.2165178571428571	1.349206349206349
12410.18676757812	-2.388791285953241	0.07439296336458293	9.287291860630159	-0.4071681748204078	0.6560317328232269	-1.45355260168795	0.1266094420600858	0.2120535714285714	1.365079365079365
12429.71801757812	-2.306352077650706	0.2452857429987293	9.206636336499118	-3.994150558189369	-0.6138343525523915	-5.829140351091501	0.111587982832618	0.2053571428571428	1.356009070294785
12449.24926757812	-2.247543396618862	0.06287947437022903	9.448217212906659	0.2841867621623796	2.85859252449439	-0.742326650433351	0.09656652360515021	0.1986607142857143	1.344671201814059
12468.78051757812	-2.288913506723671	0.1441012562793579	9.503595570326258	-1.416636284449566	-1.145576452995752	-1.455725882022343	0.1094420600858369	0.1941964285714285	1.356009070294785
12488.31176757812	-1.817926966106427	-0.1636389121571176	9.343717018805927	-1.730115684773023	-2.573331011921427	-1.088005694223728	0.1137339055793991	0.2232142857142857	1.3718820861678
12507.84301757812	-2.330808872505266	-0.07770201228504839	9.611499495424514	2.857618518204514	-2.814948148162693	2.243575233140681	0.1030042918454936	0.2098214285714285	1.374149659863946
12527.37426757812	-1.878561920722174	-0.3044467040251015	9.284763500788799	-2.097546589095717	-2.968116804487533	-1.810830914816176	0.08798283261802575	0.1941964285714285	1.349206349206349
12546.90551757812	-1.431177624377641	-0.3392235772915771	9.444293050008971	-0.6637906411377649	-0.7003277899833973	0.353439695292906	0.1201716738197425	0.2075892857142857	1.365079365079365
12566.43676757812	-2.061565781062384	-0.2420106048156388	9.217802596034296	-4.577602487173681	-4.882332676942694	-4.359275485563975	0.1201716738197425	0.1919642857142857	1.353741496598639
12585.96801757812	-2.246169651002652	-0.0381443640960341	9.310842651285553	0.06816573750076299	-1.015120007329807	1.450363435686623	0.111587982832618	0.1919642857142857	1.35827664399093
12605.49926757812	-2.210803617326342	0.1231181371833645	9.855871936715852	0.9848092437909969	1.403738986609834	-0.7137656654219331	0.1094420600858369	0.1808035714285714	1.344671201814059
12625.03051757812	-1.779948795545175	0.1895166596726235	9.627532615741975	0.3607558731509455	-0.3474063287628959	0.3704014109664752	0.1094420600858369	0.2008928571428571	1.353741496598639
12644.56176757812	-1.837367569247675	-0.09273743541863438	9.246961006400136	-0.3456774684913937	-1.101280395835581	-0.3556129756272994	0.1244635193133047	0.1941964285714285	1.356009070294785
12664.09301757812	-1.673965929180032	-0.4883108457587049	9.233327611880743	0.3645254743158334	-0.7095780099125152	0.3740985198012692	0.09012875536480687	0.2008928571428571	1.342403628117914
12683.62426757812	-2.088297337040258	0.3643173168047461	9.850141867291114	-0.6922191081408143	-0.7360253080429229	-0.3661963592982144	0.09227467811158799	0.2232142857142857	1.369614512471655
12703.15551757812	-2.053753571748394	0.04073955591950415	9.456989827900626	-2.472516695748187	-2.6385592347544	-2.541050353078211	0.1051502145922747	0.1964285714285714	1.346938775510204
12722.68676757812	-2.22487651149366	0.002046744912916391	9.222345026916999	1.071822987116199	-1.42223942646807	0.7550833144386594	0.111587982832618	0.2053571428571428	1.346938775510204
12742.21801757812	-1.856367765706079	-0.08244642335304024	9.10616432570993	1.45637355494728	0.09475892760641949	2.186453263117845	0.1201716738197425	0.1941964285714285	1.360544217687075
12761.74926757812	-2.295865104813387	0.4472010752905582	9.178347216032586	0.03596766933282547	-0.6886458442397132	0.7270302722607084	0.1051502145922747	0.1897321428571428	1.356009070294785
12781.28051757812	-1.889355966108998	-0.1629246221570919	9.34375987620593	-0.327693633824981	-1.445603317955438	0.007902160503054765	0.1137339055793991	0.1964285714285714	1.378684807256236
12800.81176757812	-2.449492907635657	0.04469694927837677	9.235005049279936	-2.129744657263654	-2.641642641397439	-2.53416407824209	0.1158798283261803	0.1919642857142857	1.36281179138322
12820.34301757812	-1.648688886155168	-0.01381614144147863	9.76684779919028	-0.007539202329775903	0.7243433622992387	-0.007394217669587907	0.1158798283261803	0.2120535714285714	1.36734693877551
12839.87426757812	-2.29665702875685	0.08357263089362911	9.257539610378872	-0.01711966350838571	-1.122212561508384	-0.7085447280867386	0.1051502145922747	0.21875	1.349206349206349
12859.40551757812	-1.963605185053085	0.1610501932646723	9.625824627757499	-2.143958890765179	-2.659491400427202	-2.89398210553765	0.1158798283261803	0.2008928571428571	1.360544217687075
12878.93676757812	-1.887881209785712	0.2411010343200794	9.196284243877388	-3.960224147705377	-3.873379482898966	-5.795866371578356	0.1137339055793991	0.2098214285714285	1.380952380952381
12898.46801757812	-2.053945492091835	0.1922566266380901	9.476181862244752	0.2888205344852945	1.029885359716531	-1.083659133554941	0.1137339055793991	0.203125	1.346938775510204
12917.99926757812	-2.116414801148053	-0.0899469630996306	9.60066378827463	2.399404269391729	-0.02158384650127492	0.04820392385284734	0.1072961373390558	0.2053571428571428	1.36734693877551
12937.53051757812	-1.930166476896614	-0.1726175271502258	9.343178301906342	-0.7386314098102766	-0.4273999039825919	-1.449347550019689	0.1094420600858369	0.203125	1.351473922902494
12957.06176757812	-1.799599500957138	-0.06281208579850944	9.551786830407647	-0.3807809666661922	-1.879170035224109	-1.427672839844392	0.1072961373390558	0.1875	1.351473922902494
12976.59301757812	-2.174132566543492	-0.2105819066577974	9.249991348226796	0.328557804983008	-0.02093216567280204	-0.3529317524594392	0.1158798283261803	0.2165178571428571	1.35827664399093
12996.12426757812	-1.809557177689387	0.1999137535950757	9.527146340367221	-0.7168779739789759	-1.133894507252068	-1.082135305054541	0.1201716738197425	0.2008928571428571	1.349206349206349
13015.65551757812	-1.877737673352447	-0.1630408050846574	9.202338763816135	-1.858907957444773	-1.267434359561052	-3.981338347927386	0.1287553648068669	0.2120535714285714	1.349206349206349
13035.18676757812	-1.774221488454059	-0.2650860679437422	9.054801906630448	-0.05685693400609913	-0.07139503611905106	-1.439272109182241	0.1094420600858369	0.1964285714285714	1.349206349206349
13054.71801757812	-1.681804360049001	0.6228786496610962	10.01717069877765	-0.00667503117174888	-0.7421921213290015	-0.3524238096259723	0.1201716738197425	0.203125	1.35827664399093
13074.24926757812	-1.765562809414787	-0.2146676042290845	9.209342165968479	-0.0464123016694623	0.3086254040603311	-1.083151190721475	0.1030042918454936	0.1897321428571428	1.351473922902494
13093.78051757812	-2.379389168109901	0.06419793208513942	9.367488239561474	-0.04264270050457435	-0.05354627708928829	-1.079454081886681	0.1030042918454936	0.1964285714285714	1.342403628117914
13113.31176757812	-1.879004347619159	-0.07211904743289933	9.329006190487361	-1.465954016125889	-1.941314851414042	-2.887603773534996	0.1180257510729614	0.1986607142857143	1.360544217687075
13132.84301757812	-1.757655650036147	0.07818261710642209	9.439034391369821	-0.3419078673265057	-1.463452076985201	-0.3519158667925055	0.09227467811158799	0.2299107142857143	1.344671201814059
13152.37426757812	-1.700572231881134	0.07761178292487196	9.853141555460343	-0.4033985736555198	0.2938600516736076	-1.449855492853156	0.1008583690987124	0.1808035714285714	1.351473922902494
13171.90551757812	-2.041183758131203	-0.03009321292373849	9.220416629446799	0.2110743358059217	0.1984494432387152	-3.235173079658715	0.09227467811158799	0.2142857142857143	1.369614512471655
13191.43676757812	-2.408587446783391	0.06448991487187432	9.226091617114536	0.6780048746392896	0.7181765490131601	0.006378332002654191	0.1330472103004292	0.2075892857142857	1.353741496598639
13210.96801757812	-2.071206284174419	-0.1712071290774478	9.161444743972526	0.9488415744581713	2.092384830849547	-1.440795937682642	0.1137339055793991	0.2142857142857143	1.35827664399093
13230.49926757812	-1.902800532449453	0.01902800532449453	9.667808346986138	0.03973727049771342	-1.050817525389332	0.7307273810955023	0.1201716738197425	0.2142857142857143	1.365079365079365
13250.03051757812	-1.818274442938763	0.07878880503544824	9.378464702039503	-0.7093387716492	-1.858237869551306	-1.074741087384953	0.09871244635193133	0.1830357142857143	1.3718820861678
13269.56176757812	-1.932780633995698	0.31225709926925	9.604594011814742	-0.716013802820949	-2.600429990880308	-1.427164897010925	0.1244635193133047	0.2321428571428571	1.35827664399093
13289.09301757812	-2.347895926171681	-0.05732912154636401	9.279388535535503	-2.703616125069356	-5.063585041980119	-0.3631487022974133	0.1201716738197425	0.2209821428571428	1.36281179138322
13308.62426757812	-1.749756571514073	0.04780059601817104	9.669534702427759	0.2499474351456082	0.6141674014776228	-2.159416106606828	0.1158798283261803	0.2142857142857143	1.360544217687075
13328.15551757812	-2.359764725481777	0.02359764725481777	9.445860303279735	0.0443710428206284	-2.879524690167192	0.3893948979739119	0.111587982832618	0.21875	1.346938775510204
13347.68676757812	-2.146202982350856	0.05176506012653887	9.518257418759109	-1.197158575155842	-3.138005855684516	-5.028534335967855	0.1373390557939914	0.2075892857142857	1.356009070294785
13367.21801757812	-1.743887849433054	-0.3057934447379927	9.082662494325824	1.032085716618486	-0.3714219010787372	0.0243559333431571	0.1330472103004292	0.2075892857142857	1.3718820861678
13386.74926757812	-2.022912858977875	-0.1716900633294132	9.434143040644681	-1.275671037125125	-5.004523632433226	1.103668506229312	0.1201716738197425	0.1964285714285714	1.365079365079365
13406.28051757812	-1.978078081620417	-0.3034515424161192	9.032297957960084	-0.3703363343295553	-1.499149595044726	-1.071551921383626	0.1244635193133047	0.2098214285714285	1.351473922902494
13425.81176757812	-1.890261022044384	-0.001299409981576365	9.434265469744542	-0.0313338970099105	-1.140061320538146	-1.068362755382299	0.1266094420600858	0.2142857142857143	1.349206349206349
13445.34301757812	-1.789029699340018	0.1694054485085517	9.515214831961019	0.3645254743158334	-0.7095780099125152	0.3740985198012692	0.1244635193133047	0.2008928571428571	1.340136054421769
13464.87426757812	-2.206308640861534	0.3755984399439689	9.406374290235023	-0.7632902756484383	-0.8252691031917366	-2.165286495776015	0.1244635193133047	0.2165178571428571	1.360544217687075
13484.40551757812	-2.082206391403675	0.3137513568433298	9.241047303632824	-1.145799584630685	0.2286318288406351	-2.902900151707639	0.1394849785407725	0.2165178571428571	1.351473922902494
13503.93676757812	-1.790599405727954	0.260330236481522	9.672185470754549	-0.01884800582443976	1.810858405748097	-0.01848554417396977	0.1266094420600858	0.2053571428571428	1.356009070294785
13523.46801757812	-1.842533256807457	0.09923341337615539	9.763529762378329	-2.423198964071863	-1.84282083633611	-1.109172461565558	0.1287553648068669	0.203125	1.36281179138322
13542.99926757812	-2.10604500073094	-0.02944460049774111	9.584091909828723	-1.944095450585805	-3.876144257638764	1.798440684643808	0.1180257510729614	0.1941964285714285	1.360544217687075
13562.53051757812	-2.041759519161527	-0.08059250581848577	9.277992732479175	-1.088942650624585	0.3000268649596861	-1.463628042525398	0.1051502145922747	0.2120535714285714	1.36734693877551
13582.06176757812	-1.584209464028171	0.1168521956503828	9.44135456608246	-1.416636284449566	-1.145576452995752	-1.455725882022343	0.1008583690987124	0.2142857142857143	1.346938775510204
