Time Stamp	Accelerometer X	Accelerometer Y	Accelerometer Z	Gyroscope X	Gyroscope Y	Gyroscope Z	Magnetometer X	Magnetometer Y	Magnetometer Z
515.655517578125	-1.434074611456533	0.4486841804579998	9.733991757898188	45.63778384145452	-7.61994228236841	8.902624164400976	0.2060085836909871	-0.4285714285714285	0.7301587301587302
535.186767578125	9.284739278833887e-05	-9.757576686049687	-2.050101065809446	2.32369932956119	1.717879523127771	-1.409553729503363	0.203862660944206	-0.4174107142857142	0.7392290249433107
554.718017578125	0.2553923796022677	-9.750028671270773	-2.069850205124731	-0.6997583104705902	-0.01168194574368421	-0.3735905769678023	0.1888412017167382	-0.421875	0.7074829931972789
574.249267578125	0.09520085980544744	-9.990850998497047	-2.377228837687601	-1.117371117627635	0.2643293469001606	-2.183264097116518	0.2124463519313305	-0.3973214285714285	0.7165532879818595
593.780517578125	-0.1125143423711501	-9.827157684859118	-2.013871885333971	-2.192099534750696	0.5822049708896095	-3.287074112346356	0.1952789699570815	-0.4040178571428571	0.7165532879818595
613.311767578125	0.3143404554098733	-9.659709061119758	-1.842208806293448	0.01507840465955181	-1.448686724598477	0.01478843533917581	0.184549356223176	-0.4129464285714285	0.7233560090702948
632.843017578125	0.05026507174091489	-9.354038004252764	-1.96528268429557	0.05772110516412615	-1.395140447509189	1.094242517225857	0.1931330472103004	-0.4263392857142857	0.7097505668934241
652.374267578125	0.2045999495127047	-9.961641959091088	-2.092648012494961	2.071710635566749	-1.467187164456713	0.05610608435590211	0.2060085836909871	-0.421875	0.7256235827664399
671.905517578125	-0.2340792028673013	-9.785537995850117	-2.102283794902522	-0.3749701066524703	0.3295575697331331	-0.7302194382620355	0.1909871244635193	-0.421875	0.7346938775510204
691.436767578125	-0.2840332440881473	-9.542614213013666	-2.208920489144456	-1.052110810133733	-1.855154462908267	-1.081627362221074	0.1931330472103004	-0.4107142857142857	0.7256235827664399
710.968017578125	-0.1357266853145543	-9.362279096783219	-1.733453917524165	0.1183476403351132	-1.685917092539757	2.537211735242892	0.1931330472103004	-0.3995535714285714	0.7029478458049887
730.499267578125	0.5024615181704696	-9.833307443464534	-2.286968143577569	-1.121140718792523	0.6265010280497799	-2.186961205951313	0.1888412017167382	-0.4196428571428571	0.7142857142857143
750.030517578125	0.1500196179078538	-9.415641610320494	-1.736655668336401	0.5947607324789748	3.181983280941445	-1.458773539023144	0.203862660944206	-0.4129464285714285	0.7346938775510204
769.561767578125	0.07183902101557323	-9.445162834654603	-2.081861285230791	-1.195117316307008	-0.5671065695776547	-4.334778043220292	0.2017167381974249	-0.421875	0.7210884353741497
789.093017578125	0.3934119667385495	-9.599893715626985	-1.586094633038629	0.3503112408143086	-0.727426768942278	0.01428049250570896	0.2060085836909871	-0.4174107142857142	0.7210884353741497
808.624267578125	0.02100214621489749	-9.919401940654069	-2.100214621489749	1.337161743454139	3.247211503774417	-0.005728880168661382	0.1802575107296137	-0.4040178571428571	0.7142857142857143
828.155517578125	-0.2743462760508577	-9.522509062492018	-2.157209129608107	-0.4184769783150716	1.742546776272085	-1.464643928192332	0.2060085836909871	-0.4129464285714285	0.7278911564625851
847.686767578125	-0.4630532421413452	-9.722642194851316	-2.67426762260017	0.004633772322914974	-1.828707164777859	-0.3413324831215905	0.2081545064377682	-0.4129464285714285	0.7165532879818595
867.218017578125	0.123671861388002	-9.789115506492669	-2.163104506147136	0.04350687166260137	-1.412989206538952	0.7344244899302963	0.1866952789699571	-0.4174107142857142	0.7165532879818595
886.749267578125	0.06440055131775854	-9.172361177230352	-2.358422478714629	-0.3674309043226944	-0.3947857925661056	-0.7228252205924476	0.1931330472103004	-0.4107142857142857	0.7165532879818595
906.280517578125	0.1346376249768527	-9.880134255037648	-2.239272701766906	-0.7917187426514879	-0.8609666212512622	-2.884922550367136	0.1909871244635193	-0.4107142857142857	0.7165532879818595
925.811767578125	0.3890220001802386	-9.862476078587662	-2.167506140472836	-1.169594279310819	-1.63577285399675	-3.96386868942035	0.2124463519313305	-0.40625	0.7006802721088435
945.343017578125	0.09761703591866575	-9.809056978439997	-2.618846449009431	1.00279307845741	1.059416064489977	-0.350250529291579	0.1888412017167382	-0.421875	0.6938775510204082
964.874267578125	0.1232516568465727	-9.930525445861397	-2.121084052004209	0.07193533866565094	-1.377291688479426	1.454060544521417	0.2103004291845494	-0.40625	0.7029478458049887
984.405517578125	0.1818744781773989	-9.46646520942824	-1.860917205494987	0.3210186026532321	0.7034111966264366	-0.3603259701290271	0.2060085836909871	-0.4285714285714285	0.7188208616780045
1003.936767578125	-0.1308256458073071	-9.786570531420717	-2.223557868248879	-0.01798383466641273	0.3443229221198566	-0.3635151361303542	0.1995708154506438	-0.4196428571428571	0.7324263038548753
1023.468017578125	0.06101669263076803	-9.424852591168733	-2.020036610015579	1.060514183621536	-0.3357243830192116	0.7439919879342776	0.203862660944206	-0.4107142857142857	0.7120181405895691
1042.999267578125	-0.2531602078913648	-9.472215872668562	-2.234999619026781	0.3323274061478959	-0.3831038468224214	-0.3492346436246452	0.1974248927038627	-0.4107142857142857	0.7301587301587302
1062.530517578125	0.03014971707641007	-9.000301497170765	-1.994563544375701	0.6040282771248048	-0.4754310486142745	-2.141438505266325	0.1995708154506438	-0.4107142857142857	0.7256235827664399
1082.061767578125	0.144373078153538	-9.940837670175476	-2.192409856170125	0.3427720384845327	-0.003083406643039275	0.006886274836121049	0.2124463519313305	-0.4263392857142857	0.7029478458049887
1101.593017578125	0.2716692861690874	-9.770393460538461	-2.677132698541399	-1.05297498129176	-0.388618979280027	-0.7365977702646896	0.2081545064377682	-0.4263392857142857	0.7233560090702948
1121.124267578125	0.3356113725633086	-9.750830861200383	-1.928484195106366	0.6449426353133251	2.511186195731494	-0.3719252394668758	0.1974248927038627	-0.3995535714285714	0.7120181405895691
1140.655517578125	0.1729168074451861	-9.860315026660313	-1.985558295539013	0.6420372053064641	1.406822393252873	-0.7206519402580541	0.2017167381974249	-0.421875	0.7301587301587302
1160.186767578125	0.0697501195932758	-9.667364167862599	-1.872971143001049	0.3427720384845327	-0.003083406643039275	0.006886274836121049	0.2081545064377682	-0.4151785714285714	0.7052154195011338
1179.718017578125	-0.08229989598449239	-9.837560839423995	-1.974092034203824	-1.067189214793285	-0.4064677383097898	-1.09641579756025	0.2145922746781116	-0.3883928571428571	0.7165532879818595
1199.249267578125	-0.00185665925374649	-9.202001635427665	-1.855150401155963	-0.4602555076616189	0.2224650155545565	-2.889127602035397	0.1888412017167382	-0.4352678571428571	0.7346938775510204
1218.780517578125	0.1616560925916782	-9.951111510420869	-1.879894973453535	0.2386386316509443	1.700682444926481	-2.17050743311121	0.2060085836909871	-0.4084821428571428	0.7256235827664399
1238.311767578125	-0.1738381900091442	-9.998261618099908	-2.003936101126399	-0.7670598768133262	-0.4630974220421174	-2.168983604610809	0.2017167381974249	-0.4017857142857142	0.7120181405895691
1257.843017578125	0.07459459310456132	-9.829028774213874	-2.3574184941296	1.060514183621536	-0.3357243830192116	0.7439919879342776	0.1866952789699571	-0.4241071428571428	0.7324263038548753
1277.374267578125	-0.00281222054266978	-9.797951675774373	-1.759594272263634	1.014101881952074	-0.02709897895888059	-0.3391592027871971	0.2167381974248927	-0.4084821428571428	0.7210884353741497
1296.905517578125	0.03847708099647897	-9.576142346567543	-1.806891773117285	0.327693633824981	1.445603317955438	-0.007902160503054765	0.2124463519313305	-0.4040178571428571	0.7188208616780045
1316.436767578125	0.02895774950407279	-9.879077456282921	-2.895774950407279	0.0443710428206284	-2.879524690167192	0.3893948979739119	0.2103004291845494	-0.4129464285714285	0.7233560090702948
1335.968017578125	0.07468348252678673	-9.303777137855572	-2.366307436352143	0.3552579296700035	2.947836319643204	1.05676348604445	0.2060085836909871	-0.4241071428571428	0.7210884353741497
1355.499267578125	-0.2479136705370634	-9.290450156223924	-1.739245191191617	-0.05104607399237727	2.137332568838191	-0.7418187075998842	0.2060085836909871	-0.4151785714285714	0.7165532879818595
1375.030517578125	0.001068610823126497	-9.868697554795101	-2.147677408843262	-0.3598917019929185	-1.119129154865344	-0.7154310029228597	0.2296137339055794	-0.4285714285714285	0.7210884353741497
1394.561767578125	-0.264604762231748	-9.593313548337282	-2.110952348253772	0.03219806816793752	-0.3264741630900938	0.7233331634259144	0.1931330472103004	-0.4330357142857142	0.7097505668934241
1414.093017578125	-0.5074132691755541	-9.540380412762792	-2.319897572240515	-0.7102029428072271	-0.3917023859230663	-0.7297114954285686	0.1909871244635193	-0.3973214285714285	0.7324263038548753
1433.624267578125	-0.003757680760885634	-9.73733616056613	-1.665048250442049	0.0443710428206284	-2.879524690167192	0.3893948979739119	0.2060085836909871	-0.4151785714285714	0.7188208616780045
1453.155517578125	0.3984059360963051	-9.842367897744804	-2.085491568814184	0.6600210399728769	1.062499471133017	-0.3571368041277	0.2210300429184549	-0.4196428571428571	0.7120181405895691
1472.686767578125	-0.2747907231619848	-9.623514719031007	-2.112764418495396	-0.3305990638318419	-2.549967120434059	-0.3408245402881236	0.184549356223176	-0.4196428571428571	0.7324263038548753
1492.218017578125	0.1330214536636632	-9.880118093324517	-2.077655570447956	-1.065460872477231	-3.33953870556627	-1.786474981473019	0.1931330472103004	-0.4241071428571428	0.7210884353741497
1511.749267578125	-0.2350792088673373	-9.634012844274965	-2.002283194898922	-0.7424010109751646	-0.0652282228329725	-1.453044658854483	0.1974248927038627	-0.4196428571428571	0.7278911564625851
1531.280517578125	0.3973069396033362	-9.862558927981894	-1.975591919517298	0.3427720384845327	-0.003083406643039275	0.006886274836121049	0.1888412017167382	-0.4129464285714285	0.7165532879818595
1550.811767578125	0.8578166084539695	-10.22069937820575	-2.108191457641841	-0.3532166708211696	-0.3769370335363428	-0.3630071932968873	0.1995708154506438	-0.4196428571428571	0.7052154195011338
1570.343017578125	0.02513752456252112	-9.909342284336537	-2.513752456252111	1.049205380126872	0.7507906604296464	0.7329006614298957	0.2124463519313305	-0.4151785714285714	0.7120181405895691
1589.874267578125	-0.14399546302452	-9.725832772642486	-1.926984309792892	0.06235487748704113	-3.223847612287049	0.752910034104266	0.1888412017167382	-0.421875	0.7142857142857143
1609.405517578125	0.2833765095767239	-9.578591340853345	-1.807038712774433	0.03973727049771342	-1.050817525389332	0.7307273810955023	0.2081545064377682	-0.4129464285714285	0.7210884353741497
1628.936767578125	0.4580267432130258	-9.86316612601799	-1.925123300894413	-0.721511746301891	0.6948126575257918	-0.7408028219329504	0.1909871244635193	-0.3995535714285714	0.7278911564625851
1648.468017578125	-0.4701118703517004	-9.237723123720729	-1.968404801564658	0.3059401979936803	2.152097921224914	-0.3751144054682029	0.1952789699570815	-0.4151785714285714	0.7210884353741497
1667.999267578125	-0.4288084273135612	-9.207833127848078	-2.017116452317349	0.6788690457973167	-0.7483589346150801	-0.3386512599537302	0.2060085836909871	-0.4174107142857142	0.7188208616780045
1687.530517578125	0.1235001431859756	-9.839618839815701	-2.145932685944498	0.04814064398551635	-3.241696371316811	0.3930920068087058	0.1952789699570815	-0.4174107142857142	0.7097505668934241
1707.061767578125	0.6042968849031399	-9.995941958748023	-2.266423184191548	0.6930832792988414	-0.7305101755853173	0.02116676734183	0.1888412017167382	-0.40625	0.7165532879818595
1726.593017578125	-0.1566420860079479	-9.867120447826791	-2.703138337980719	-0.01421423350152478	-0.01784875902976276	-0.3598180272955602	0.2103004291845494	-0.421875	0.7256235827664399
1746.124267578125	0.03378206210280346	-9.667004487287695	-2.35779804701504	-0.0008641711580270224	1.46653548362824	0.3450295919563844	0.2124463519313305	-0.4084821428571428	0.7188208616780045
1765.655517578125	-0.009581999359652305	-9.292833472935698	-2.103024553830688	-0.02088926467327366	-0.7600408803587642	-0.7122418369215325	0.1974248927038627	-0.4151785714285714	0.7165532879818595
1785.186767578125	-0.2532450568853074	-9.835851387814987	-2.226514719632536	-1.763177924098987	-0.7803213652030934	-1.466309265693258	0.1931330472103004	-0.4174107142857142	0.7097505668934241
1804.718017578125	-0.03331151712327713	-9.817848703010588	-1.770889103998817	-1.081403448294809	-0.4243164973395526	-1.45623382485581	0.2081545064377682	-0.4174107142857142	0.7142857142857143
1824.249267578125	0.0005473955746228859	-10.01010648405676	-2.095555883992901	0.3390024373196448	0.35908827450658	0.003189166001327095	0.2081545064377682	-0.4241071428571428	0.7165532879818595
1843.780517578125	0.04838021194690763	-9.242908044543713	-1.776796704894845	0.3427720384845327	-0.003083406643039275	0.006886274836121049	0.2081545064377682	-0.4285714285714285	0.7210884353741497
1863.311767578125	0.2534590346688648	-9.558090145902245	-1.876515711784438	1.338890085770194	0.3141405365179367	-0.6957880640814302	0.2060085836909871	-0.4241071428571428	0.7188208616780045
1882.843017578125	0.3150152069331299	-9.942544091463272	-1.90968395861911	0.3549450131372236	-2.556133933720138	-0.3270519906158815	0.1781115879828326	-0.4129464285714285	0.7210884353741497
1902.374267578125	0.4515599965172663	-9.863101458551034	-2.298856794583769	1.086901391775751	-2.870926151066547	0.7698717497778352	0.1974248927038627	-0.4017857142857142	0.7278911564625851
1921.905517578125	0.4811784797321854	-9.72198350196904	-2.199480626279759	0.3181131726463711	-0.4009526058521842	-0.7090526709202054	0.1952789699570815	-0.4151785714285714	0.7188208616780045
1941.436767578125	0.03088709523805278	-9.555864426507936	-2.068301360539972	-1.046299950120011	0.3535731420489744	-0.3841739606387173	0.1995708154506438	-0.4397321428571428	0.7074829931972789
1960.968017578125	0.292227108959438	-9.679689947857273	-1.671690487780527	0.3607558731509455	-0.3474063287628959	0.3704014109664752	0.1974248927038627	-0.421875	0.7210884353741497
1980.499267578125	0.2028140802116303	-9.173745312519289	-1.914061082387521	-0.6817744758041775	-0.3560048678635408	-0.01007544083744814	0.2210300429184549	-0.4241071428571428	0.7256235827664399
2000.06103515625	-0.1392035150809132	-9.968304934546163	-2.406179104153578	0.2737421298257428	2.478572084315008	-1.098447568894117	0.2103004291845494	-0.4241071428571428	0.7120181405895691
2019.561767578125	-0.2673865971045754	-9.502376639079461	-1.83276886097103	-0.3816451378242192	-0.4126345515958683	-1.082643247888008	0.2081545064377682	-0.4263392857142857	0.7165532879818595
2039.093017578125	-0.06660481109042085	-9.898323850878995	-2.523192360345669	-0.323924032660093	-1.807774999105058	0.01159926933784872	0.2231759656652361	-0.4107142857142857	0.7414965986394558
2058.624267578125	0.01249498323623626	-9.212246161953576	-2.269906486888932	0.6742352734744016	1.080348230162779	0.002681223167860238	0.1909871244635193	-0.421875	0.7233560090702948
2078.155517578125	0.1747289395300998	-9.345181632829647	-2.166771504030385	0.6211479406331905	0.646781512894109	-1.432893777179587	0.1909871244635193	-0.4263392857142857	0.7188208616780045
2097.686767578125	-0.1938262711827353	-9.35159709082353	-2.045944310297897	-1.124910319957411	0.9886727091993992	-2.190658314786107	0.1952789699570815	-0.421875	0.7165532879818595
2117.218017578125	0.1045363105821183	-9.88993425199471	-2.29036575208938	-1.025723601979517	-4.390356230955602	-1.055747600377516	0.1888412017167382	-0.4017857142857142	0.7142857142857143
2136.749267578125	0.398193813611449	-9.993880928035107	-2.064279320328571	1.00569850846427	2.163779866968598	-0.001523828500400573	0.2124463519313305	-0.4107142857142857	0.7278911564625851
2156.280517578125	-0.06800279927632977	-9.756895729582995	-2.383393541754778	-0.01798383466641273	0.3443229221198566	-0.3635151361303542	0.2124463519313305	-0.4285714285714285	0.7210884353741497
2175.811767578125	-0.1709311018595446	-9.624553315244031	-2.29464491608636	1.032085716618486	-0.3714219010787372	0.0243559333431571	0.1866952789699571	-0.4084821428571428	0.7074829931972789
2195.343017578125	0.05296609804808283	-9.141943802394623	-2.235385315012365	-0.6959887093057022	-0.3738536268933035	-0.3698934681330084	0.1952789699570815	-0.4241071428571428	0.7120181405895691
2214.874267578125	-0.2002182699552598	-9.644462463765095	-2.427152596310755	-0.05191024515040429	3.603868052466431	-0.3967891156434998	0.1759656652360515	-0.4129464285714285	0.7233560090702948
2234.405517578125	-0.2585460987925688	-9.249939791537328	-1.696410528906381	-1.06255544247037	-2.235174903087649	-1.43774828068184	0.2124463519313305	-0.4129464285714285	0.7142857142857143
2253.936767578125	-0.03978634467560258	-9.635965772916883	-2.143814512031579	-1.697053445447058	-4.366340658639762	-0.7097021227541983	0.1995708154506438	-0.4151785714285714	0.7165532879818595
2273.468017578125	0.1544358060211441	-9.536897893413748	-2.178274479665431	-2.075793153264416	-3.674611407757009	-1.443618669851028	0.1909871244635193	-0.4285714285714285	0.7052154195011338
2292.999267578125	0.230949726246698	-9.254834749787721	-1.666401196098374	0.9914842749627457	2.145931107938835	-0.3613418557959608	0.1952789699570815	-0.421875	0.7120181405895691
2312.530517578125	-0.09086160474497376	-9.544545929407098	-2.138329321420992	0.2992651668219314	1.409905799895913	-0.7275382150941753	0.1888412017167382	-0.4017857142857142	0.7052154195011338
2332.061767578125	0.2260688476520057	-9.709331395547229	-2.19872149989445	-1.022818171972656	-3.285992428476982	-0.7070208995863381	0.203862660944206	-0.4151785714285714	0.6984126984126985
2351.593017578125	-0.04047725791199108	-9.494544722370376	-2.074723188392728	-0.6922191081408143	-0.7360253080429229	-0.3661963592982144	0.2017167381974249	-0.40625	0.7142857142857143
2371.124267578125	0.07573803430864288	-9.546211925797634	-2.471762614537757	-5.697879034808175	-5.722367132521153	-6.891266283471672	0.2081545064377682	-0.4084821428571428	0.7188208616780045
2390.655517578125	0.5626439448185235	-9.611687045508793	-2.182761828791134	-0.02842846700304957	-0.03569751805952553	-0.7196360545911205	0.1909871244635193	-0.4285714285714285	0.7165532879818595
2410.186767578125	-0.1902424112957376	-9.937491515280984	-2.404330298997667	-1.445928922610643	0.2852615125729626	-1.830332344657079	0.2081545064377682	-0.40625	0.7256235827664399
2429.718017578125	-0.11152241722768	-9.796864573807524	-2.113064399680977	-1.470587788448805	-0.1126076866361822	-2.546271290413406	0.2210300429184549	-0.4196428571428571	0.7097505668934241
2449.249267578125	0.007575761801715732	-9.262702020244282	-1.777984343436879	0.2917259644921555	2.134249162195151	-0.7349324327637631	0.2017167381974249	-0.40625	0.7188208616780045
2468.780517578125	0.07848354655578356	-9.404825239505962	-1.725905675986519	0.9952538761276337	1.783759426789216	-0.3576447469611668	0.1995708154506438	-0.4375	0.7324263038548753
2488.311767578125	0.1116071013061824	-9.718287788184782	-1.977036661230481	1.042530348955123	0.008598539100644939	0.3804768518039234	0.2017167381974249	-0.4196428571428571	0.7074829931972789
2507.843017578125	-0.2207134248783642	-9.836176704135056	-2.418453430530932	-0.3703363343295553	-1.499149595044726	-1.071551921383626	0.1952789699570815	-0.4129464285714285	0.7210884353741497
2527.374267578125	0.3802441285066181	-9.882590320072946	-2.310127136376094	0.6637906411377649	0.7003277899833973	-0.353439695292906	0.1952789699570815	-0.4263392857142857	0.7278911564625851
2546.905517578125	0.256032787485119	-9.63892396423849	-2.133890993409865	-0.3561221008280305	-1.481300836014964	-0.7117338940880656	0.2081545064377682	-0.4241071428571428	0.7301587301587302
2566.436767578125	0.2517984186445625	-9.820699802368265	-1.710454109354217	-1.066325043635258	-1.87300322193803	-1.441445389516634	0.1866952789699571	-0.421875	0.7074829931972789
2585.968017578125	0.3882421975216246	-9.741256159348954	-2.089525874611442	0.3398666084776718	-1.10744720912166	-0.3418404259550573	0.2081545064377682	-0.4174107142857142	0.7256235827664399
2605.499267578125	0.2916331247729807	-9.871603199934599	-2.632700232400117	-1.118235288785662	1.730864830528401	-1.838234505160134	0.1909871244635193	-0.4352678571428571	0.7165532879818595
2625.030517578125	-0.2256407271694506	-9.199763794748508	-1.925723201422284	0.327693633824981	1.445603317955438	-0.007902160503054765	0.2167381974248927	-0.4375	0.7301587301587302
2644.561767578125	0.3858583448346701	-9.640222219811985	-1.851140605915992	-0.3381382661616178	-1.82562375813482	-0.3482187579577115	0.1974248927038627	-0.4107142857142857	0.7165532879818595
2664.093017578125	0.5203445362086314	-9.833486273644915	-2.03445362086314	-0.7603848456415774	0.2790946992868841	-1.816559794984837	0.1995708154506438	-0.4151785714285714	0.7142857142857143
2683.624267578125	-0.4695401497496596	-9.34883995203786	-2.025576861768736	0.3218827738112591	-0.7631242870018035	-0.7053555620854115	0.184549356223176	-0.4107142857142857	0.7324263038548753
2703.155517578125	-0.2244306188987	-9.533109229164548	-2.046734028497348	-0.972636269138306	-3.956789513686932	0.3798273999699306	0.1909871244635193	-0.4263392857142857	0.7188208616780045
2722.686767578125	0.3062959214696125	-9.891951848103586	-2.05816357553268	-1.051246638975706	-3.321689946536508	-1.426656954177459	0.1759656652360515	-0.4107142857142857	0.7301587301587302
2742.218017578125	0.2192142610699408	-9.901182041600601	-1.513262841687955	-1.79074221994401	-2.282554366890859	-2.530974912240763	0.203862660944206	-0.4196428571428571	0.7210884353741497
2761.749267578125	-0.313484049529323	-9.794844957484507	-2.325064434822808	-0.003769601164887951	0.3621716811496193	-0.003697108834793953	0.1995708154506438	-0.4241071428571428	0.7210884353741497
2781.280517578125	0.2338224707558924	-10.00233822470756	-1.953675647017807	0.09078334449009069	-3.188150094227523	1.472546088695387	0.2103004291845494	-0.4107142857142857	0.7278911564625851
2800.811767578125	0.4261799638000466	-9.489110284486488	-1.801669849392422	-0.652481837643101	-1.786842833432255	0.3645310217972879	0.2124463519313305	-0.4174107142857142	0.7165532879818595
2820.343017578125	0.2962857191696851	-9.710033564262407	-2.077551508805239	-0.4469054453181212	1.706849258212559	-2.184279982783452	0.2017167381974249	-0.4196428571428571	0.7120181405895691
2839.874267578125	0.2374245125701634	-9.608434851186308	-2.313879828444916	-4.033023657529055	-1.029552310791299	-6.904897324143388	0.1781115879828326	-0.421875	0.7256235827664399
2859.405517578125	-0.516665891172424	-9.610994957249893	-2.415043535818832	0.7537098144698285	-1.021286820615886	1.464135985358865	0.1995708154506438	-0.4107142857142857	0.7052154195011338
2878.936767578125	0.1631651925553689	-9.435975086268991	-2.030804969822604	-0.3636613031578064	-0.7569574737157249	-0.7191281117576536	0.1995708154506438	-0.421875	0.7256235827664399
2898.468017578125	0.3327386280541142	-9.508377891331047	-1.641209744186934	-0.04931773167632323	-0.7957383984182897	-1.431877891512653	0.1931330472103004	-0.4129464285714285	0.7188208616780045
2917.999267578125	0.05404287218549533	-9.758116186297613	-2.343062728753615	-1.50655545778163	0.5760381576035309	-3.273301562674114	0.2017167381974249	-0.4040178571428571	0.7120181405895691
2937.530517578125	0.07260266196105526	-9.707796733690319	-2.158225379778995	0.3749701066524703	-0.3295575697331331	0.7302194382620355	0.2081545064377682	-0.4151785714285714	0.7029478458049887
2957.061767578125	-0.06105524161489639	-9.71656116475557	-2.057741144632809	-2.779321064899895	-3.324121672351073	-1.820906355653624	0.184549356223176	-0.4129464285714285	0.7097505668934241
2976.593017578125	0.4777582571906481	-9.913868491662818	-1.857458372126032	-1.110696086455886	1.006521468229162	-1.830840287490546	0.1738197424892704	-0.40625	0.7097505668934241
2996.124267578125	0.02964466354103835	-9.505346951685917	-1.944058190838529	0.3105739703165952	0.3233907564470545	-0.7164468885897933	0.203862660944206	-0.4107142857142857	0.7188208616780045
3015.655517578125	-0.06116635339267817	-9.363024700102439	-2.046629966854631	-0.5738714678057011	-2.42194240058268	2.171015375944677	0.2124463519313305	-0.4017857142857142	0.7188208616780045
3035.186767578125	0.2371618847317702	-10.01247262894833	-2.287617044605587	0.329421976141035	-1.487467649301042	-0.6979613444158236	0.1952789699570815	-0.40625	0.7188208616780045
3054.718017578125	-0.04290757552419978	-9.989469914143751	-1.831691427171857	-2.936541804574694	-2.053922538050224	-5.433875063948402	0.1909871244635193	-0.4174107142857142	0.7278911564625851
3074.249267578125	-0.5260377058036415	-9.651305279507623	-2.498270235962377	1.031221545460459	1.095113582549503	0.3693855252995415	0.1995708154506438	-0.4196428571428571	0.7097505668934241
3093.780517578125	0.0307921451734029	-9.060913982057796	-2.058806354074983	0.06526030749390206	-2.119483809808428	1.101636734895444	0.2081545064377682	-0.4196428571428571	0.7256235827664399
3113.311767578125	0.6335921338554212	-9.652800567803203	-2.134723589623748	-2.105085791425493	-2.243773442188294	-1.818225132485764	0.2017167381974249	-0.4196428571428571	0.7097505668934241
3132.843017578125	0.1934483262228372	-9.729207210534959	-1.997893846773512	-0.3891843401539951	0.3117088107033704	-1.090037465557596	0.1952789699570815	-0.4107142857142857	0.7120181405895691
3152.374267578125	0.1367184455425842	-9.476114659202901	-2.447354758340053	-4.007500620532866	-2.098218595210394	-6.533987970343446	0.2145922746781116	-0.4330357142857142	0.7278911564625851
3171.905517578125	0.1426457950625667	-9.587285043809214	-2.019681547072997	-0.2943184779662365	2.265357288689569	1.770021208632916	0.1974248927038627	-0.4040178571428571	0.7278911564625851
3191.436767578125	0.1969049126189212	-10.10297915013629	-2.343552486381915	0.6286871429629663	-0.07756184940512961	-1.425499559509999	0.2145922746781116	-0.40625	0.7142857142857143
3210.968017578125	-0.3062981065991941	-9.815118837115827	-2.023250564570384	-2.125975056098766	-3.003814322547059	-2.530466969407296	0.1909871244635193	-0.4174107142857142	0.7052154195011338
3230.499267578125	0.04287104675421292	-9.828711538750373	-2.246288348890679	0.03306223932596454	-1.793009646718334	0.37830357146953	0.1866952789699571	-0.4040178571428571	0.7188208616780045
3250.030517578125	0.1654985398887863	-9.284483268227174	-2.264139703164338	0.01711966350838571	1.122212561508384	0.7085447280867386	0.2017167381974249	-0.4174107142857142	0.7233560090702948
3269.561767578125	0.089730119910301	-9.627159927461731	-1.830154848172957	-2.188329933585807	0.2200332897399901	-3.283377003511562	0.2081545064377682	-0.4263392857142857	0.7029478458049887
3289.093017578125	0.09867364914352339	-9.546441281945983	-1.70409960822989	-0.7310922074805007	-1.15174326628183	-1.441953332350101	0.2017167381974249	-0.4174107142857142	0.7210884353741497
3308.624267578125	0.3342032833066922	-9.760917790408826	-1.787675269444732	0.3862789101471341	-1.416072613181991	0.7413107647664173	0.1995708154506438	-0.4151785714285714	0.7278911564625851
3328.155517578125	0.186157332157351	-9.870548442008442	-2.289202603490204	-0.02175343583130069	0.7064946032694759	-0.3672122449651481	0.2124463519313305	-0.4151785714285714	0.7233560090702948
3347.686767578125	0.1205910348222345	-9.536559445701759	-1.855021849570389	0.6533460088011279	0.3203073498040153	-0.7095606137536723	0.2124463519313305	-0.4040178571428571	0.7210884353741497
3367.218017578125	0.2045211611611867	-9.830328039894441	-2.084769177343162	-3.884519207874838	-5.612842852528011	-4.338108718222145	0.203862660944206	-0.4174107142857142	0.7165532879818595
3386.749267578125	0.3877674471983752	-9.791756462350772	-2.042050842286501	0.01421423350152478	0.01784875902976276	0.3598180272955602	0.203862660944206	-0.3861607142857142	0.7074829931972789
3406.280517578125	0.08086941945687955	-9.677576370962246	-1.964492966096119	-2.748949246916127	1.784092475714447	-8.346201204659497	0.2060085836909871	-0.40625	0.7188208616780045
3425.811767578125	-0.3667229589442266	-9.632696406774196	-2.103214309658977	-1.803779365754727	1.737031643814479	-1.852007054832376	0.1952789699570815	-0.4129464285714285	0.7097505668934241
3445.343017578125	-0.1116517109327352	-9.41302489703209	-2.100135029175461	-0.01711966350838571	-1.122212561508384	-0.7085447280867386	0.2145922746781116	-0.4017857142857142	0.7142857142857143
3464.874267578125	0.1447003528444588	-9.476194478275922	-2.225137325262212	-1.188442285135259	0.1750855517513468	-3.982354233594319	0.2124463519313305	-0.4263392857142857	0.7233560090702948
3484.405517578125	0.1566398596495063	-10.01166740869751	-2.398679842501648	0.3001293379799584	-0.05662968373232757	-1.07256780705056	0.2060085836909871	-0.4263392857142857	0.7301587301587302
3503.936767578125	-0.1603592800282838	-9.564052972856285	-2.331418935947135	-0.6411730341484372	-2.873357876881113	0.3756223483016697	0.1888412017167382	-0.4174107142857142	0.7074829931972789
3523.468017578125	0.2342891402225758	-9.770019659078995	-2.000342593686154	0.06149070632901411	-1.757312128658808	1.09793962606065	0.1931330472103004	-0.4263392857142857	0.6961451247165533
3542.999267578125	0.5908442377061189	-9.632171068639687	-1.941566627754745	-0.3143435714814832	0.03878092470256481	0.7127497797549994	0.2103004291845494	-0.4241071428571428	0.7074829931972789
3562.530517578125	0.1743511594856418	-9.557299067150414	-2.128993499584581	0.05104607399237727	-2.137332568838191	0.7418187075998842	0.2017167381974249	-0.4084821428571428	0.7188208616780045
3582.061767578125	-0.0491884625189425	-9.625770741637437	-2.224010890962893	-0.7386314098102766	-0.4273999039825919	-1.449347550019689	0.203862660944206	-0.4352678571428571	0.6984126984126985
3601.593017578125	-0.04458839368991686	-9.545008661517649	-1.66360961060015	-0.7319563786385278	0.3147922173464096	-1.096923740393717	0.1931330472103004	-0.4107142857142857	0.7210884353741497
3621.124267578125	0.07373600209442939	-9.576494935778522	-2.271559393116409	-0.2992651668219314	-1.409905799895913	0.7275382150941753	0.2145922746781116	-0.4375	0.7074829931972789
3640.655517578125	0.3552297545490076	-9.781330075323268	-1.849506067145659	-1.074728417123061	0.3178756239894489	-1.103810015229838	0.2145922746781116	-0.4151785714285714	0.7301587301587302
3660.186767578125	-0.1812887809918078	-9.70525781926079	-2.279285166125345	-1.027451944295571	-1.457285263699122	-0.3656884164647475	0.2060085836909871	-0.4285714285714285	0.7188208616780045
3679.718017578125	0.05974193750748982	-9.657163075940733	-1.892561097687757	0.01507840465955181	-1.448686724598477	0.01478843533917581	0.1974248927038627	-0.4107142857142857	0.7120181405895691
3699.249267578125	0.2337638845457892	-9.06294369945152	-1.947817026007495	1.013237710794046	1.43943650466936	0.005870389169187333	0.2103004291845494	-0.421875	0.7256235827664399
3718.780517578125	0.3555933930944752	-9.377293307668321	-1.885869921692423	-0.02929263816107659	1.430837965568715	-0.374606462634736	0.1974248927038627	-0.4397321428571428	0.7188208616780045
3738.311767578125	-0.009181996959637905	-9.959504139626365	-2.143024793832128	0.9885788449558849	1.041567305460215	-0.7100685565871392	0.2017167381974249	-0.4129464285714285	0.7142857142857143
3757.843017578125	0.07458651224799537	-10.15226101663763	-2.356610408473006	-1.012373539636019	-2.9059719882976	-0.3508999811255717	0.2103004291845494	-0.4129464285714285	0.7052154195011338
3777.374267578125	0.0355618707614534	-9.43469905305105	-2.535778912880033	0.02842846700304957	0.03569751805952553	0.7196360545911205	0.2017167381974249	-0.4330357142857142	0.7165532879818595
3796.905517578125	0.1527691293544174	-9.284355974121828	-2.011606812992764	-0.0388730993396864	-0.4157179582389076	-1.075756973051887	0.2081545064377682	-0.4352678571428571	0.6938775510204082
3816.436767578125	0.3770562305913518	-10.12498268351804	-1.991337344849466	0.2168851958196436	2.407177048195956	-2.537719678076358	0.1802575107296137	-0.4263392857142857	0.7369614512471655
3835.968017578125	0.1336214572636848	-9.870023083259506	-2.137655930450116	0.6629264699797378	2.166863273611638	-0.008410103336521622	0.1888412017167382	-0.4129464285714285	0.7074829931972789
3855.499267578125	-0.04849350885427103	-9.605575670972064	-2.293506257430041	0.3674309043226944	0.3947857925661056	0.7228252205924476	0.2145922746781116	-0.3995535714285714	0.7210884353741497
3875.030517578125	-0.0143881300311096	-9.535209654053224	-2.642819649950265	-0.6733711023163745	-2.54688371379102	-0.3477108151242447	0.1888412017167382	-0.4129464285714285	0.7165532879818595
3894.561767578125	0.2338770165377125	-9.588197356023963	-1.959130225199822	0.9923484461207727	0.6793956243105954	-0.7063714477523452	0.203862660944206	-0.421875	0.7006802721088435
3914.093017578125	-0.1459631515983283	-9.645005014948666	-1.730215452412071	-1.063419613628397	-0.7686394194594092	-1.092718688725456	0.2124463519313305	-0.4174107142857142	0.7097505668934241
3933.624267578125	0.08258256104886041	-9.839209663994328	-2.135807125294205	1.569989515091362	2.739166343743657	-2.873689714862228	0.1802575107296137	-0.4174107142857142	0.7210884353741497
3953.155517578125	0.02267690373819011	-9.848711617522232	-2.267690373819011	-0.7377672386522496	-1.893935387610832	-1.794377141976073	0.1931330472103004	-0.4107142857142857	0.7165532879818595
3972.686767578125	-0.3488601430474796	-9.430854832912962	-1.848679572803061	-1.012373539636019	-2.9059719882976	-0.3508999811255717	0.2103004291845494	-0.4263392857142857	0.7256235827664399
3992.218017578125	0.2963544064504956	-9.487812028912993	-2.084420236886295	0.02175343583130069	-0.7064946032694759	0.3672122449651481	0.2081545064377682	-0.421875	0.7074829931972789
4011.749267578125	0.4382002791707536	-9.822563820973528	-1.983293223197806	-0.392953941318883	0.6738804918529897	-1.09373457439239	0.2188841201716738	-0.4285714285714285	0.7301587301587302
4031.280517578125	-0.04945917121390175	-9.847990256772711	-2.196940021466969	-0.328557804983008	0.02093216567280204	0.3529317524594392	0.2167381974248927	-0.4084821428571428	0.7006802721088435
4050.811767578125	0.2426084232860788	-9.65899174079852	-1.811862736771144	-0.06643739518470894	-1.917950959926673	-2.140422619599391	0.2017167381974249	-0.4084821428571428	0.7210884353741497
4070.343017578125	0.1929654950430218	-9.597889250910029	-1.949610728791976	-0.4231107506379866	3.571253941049945	-1.123311445070741	0.1995708154506438	-0.4040178571428571	0.7029478458049887
4089.874267578125	-0.4595218665931661	-9.712576498505786	-2.006997014152772	-5.027413362498661	-4.279847221208755	-6.892282169138605	0.1974248927038627	-0.4107142857142857	0.7029478458049887
4109.405517578125	0.1304719434171068	-9.839688557818011	-1.822704545792313	-1.347606375790776	-3.627231943953799	-0.3503920382921049	0.2081545064377682	-0.4107142857142857	0.7142857142857143
4128.936767578125	0.2943624753069896	-9.871630493439939	-1.88522712253569	-2.42147062175581	-4.77589180359259	-1.799231645478327	0.1909871244635193	-0.4084821428571428	0.7097505668934241
4148.468017578125	-0.1729331340737581	-9.65483632522492	-2.094441694665011	-0.01130880349466385	1.086515043448858	-0.01109132650438186	0.1995708154506438	-0.40625	0.7097505668934241
4167.999267578125	0.03164871596939332	-9.141730628573836	-2.144463433674026	-0.3427720384845327	0.003083406643039275	-0.006886274836121049	0.2081545064377682	-0.4174107142857142	0.7074829931972789
4187.530517578125	0.3261122844411773	-9.57901869860199	-1.998983546158544	0.3427720384845327	-0.003083406643039275	0.006886274836121049	0.2017167381974249	-0.4308035714285714	0.6870748299319728
4207.061767578125	0.2558226852144044	-9.962154186448105	-2.112880766338402	0.3569862719860575	0.01476535238672349	0.3667043021316813	0.2060085836909871	-0.4196428571428571	0.7052154195011338
4226.593017578125	0.5897432209990086	-9.985695412007971	-1.831464957043711	-1.077633847129921	-0.786488178489172	-1.452536716021016	0.1931330472103004	-0.4263392857142857	0.6961451247165533
4246.124267578125	-0.4691583292769185	-9.480156901555718	-2.063758909042838	1.028316115453598	-0.009250219929117825	0.02065882450836315	0.203862660944206	-0.40625	0.7074829931972789
4265.655517578125	-0.3437449608412348	-9.370299924128965	-2.360197793427536	-0.6922191081408143	-0.7360253080429229	-0.3661963592982144	0.1995708154506438	-0.4107142857142857	0.7120181405895691
4285.186767578125	0.1132495354032112	-9.425374919596457	-2.141280070933364	-2.830367138892272	-1.186789103512883	-2.562725063253508	0.184549356223176	-0.4151785714285714	0.7165532879818595
4304.718017578125	-0.1514803976475889	-9.543939741478072	-2.198899010751311	-4.30299618618991	-3.870296076255927	-5.802752646414477	0.2060085836909871	-0.4241071428571428	0.7165532879818595
4324.249267578125	0.5340375888884894	-9.924532295080805	-2.383350725583636	-0.09486586218775851	-1.953648477986199	-2.860058674190512	0.2210300429184549	-0.40625	0.7233560090702948
4343.780517578125	0.3006736242849946	-9.952501685737802	-2.516342020336187	0.6884495069759263	1.098196989192542	0.3624992504634205	0.2231759656652361	-0.4151785714285714	0.7029478458049887
4363.311767578125	-0.160937061272749	-9.44283507383172	-2.27364081150061	0.2954955656570434	1.772077481045532	-0.7312353239289692	0.2081545064377682	-0.4129464285714285	0.7029478458049887
4382.843017578125	-0.02153564766369014	-9.575542219280941	-1.92806788669221	-0.396723542483771	1.036052173002609	-1.097431683227184	0.2017167381974249	-0.4107142857142857	0.7052154195011338
4402.374267578125	0.1351669210819223	-9.920543588402738	-2.292202312273862	0.01044463233663683	0.3800204401793821	0.3561209184607663	0.2017167381974249	-0.4174107142857142	0.7006802721088435
4421.905517578125	0.2088605811371005	-9.991987595710363	-2.518711174934541	-1.046299950120011	0.3535731420489744	-0.3841739606387173	0.2017167381974249	-0.4151785714285714	0.7120181405895691
4441.436767578125	-0.2286791704671069	-9.694682905265028	-2.642287034921962	-1.777392157600512	-0.7981701242328562	-1.826127292988818	0.1866952789699571	-0.4151785714285714	0.7165532879818595
4460.968017578125	0.02667494875305265	-9.606327355548137	-1.647086712039959	0.3323274061478959	-0.3831038468224214	-0.3492346436246452	0.1995708154506438	-0.4107142857142857	0.7097505668934241
4480.499267578125	0.04633777544986441	-9.374200751491875	-1.572553055190523	0.3996289724906319	0.06831162947601178	1.446158384018362	0.2060085836909871	-0.4330357142857142	0.7052154195011338
4500.030517578125	0.1452336893778114	-9.860038195479639	-2.278470978597465	-0.01421423350152478	-0.01784875902976276	-0.3598180272955602	0.2017167381974249	-0.4040178571428571	0.7142857142857143
4519.561767578125	0.03117800607442689	-10.04071582046479	-2.097392444177382	0.645806806471352	1.044650712103254	-0.7169548314232602	0.2060085836909871	-0.4330357142857142	0.7256235827664399
4539.093017578125	-0.1806362518241075	-9.614355253643376	-2.344538082895371	-1.077633847129921	-0.786488178489172	-1.452536716021016	0.2296137339055794	-0.4352678571428571	0.7301587301587302
4558.624267578125	0.06247730745506304	-9.839008611458391	-2.166098092445079	0.1287922726717501	-1.305896652360375	2.893332653703657	0.203862660944206	-0.4174107142857142	0.7165532879818595
4578.155517578125	-0.1639835441981112	-9.584218750416607	-1.96899251896439	-1.055880411298621	-1.492982781758648	-1.085324471055868	0.1952789699570815	-0.4151785714285714	0.7097505668934241
4597.686767578125	0.5211586825076506	-9.843595425208916	-2.115868250765061	-1.7811617587654	-0.4359984430832368	-1.829824401823613	0.1931330472103004	-0.4151785714285714	0.7188208616780045
4617.218017578125	0.03392347709270754	-9.565995800427494	-2.371939546005448	0.3825093089822462	-1.053900932032372	0.7376136559316233	0.1995708154506438	-0.3995535714285714	0.7165532879818595
4636.749267578125	0.4570428989261217	-9.065176489595324	-1.826738872204002	0.06149070632901411	-1.757312128658808	1.09793962606065	0.2060085836909871	-0.4174107142857142	0.7256235827664399
4656.280517578125	-0.1016697916307885	-9.71615501925541	-2.07791879610482	1.290749441784677	3.555836907834748	-1.088880070890136	0.1931330472103004	-0.4241071428571428	0.7142857142857143
4675.811767578125	-0.3252659796313344	-9.521999865456213	-2.167279587886969	-0.05018190283435026	0.6707970852099504	-1.086848299556268	0.1931330472103004	-0.4285714285714285	0.7188208616780045
4695.343017578125	0.04998224176110672	-9.556055377973166	-1.936999686314754	-0.3201544314952051	-2.169946680254677	0.01529637817264267	0.1974248927038627	-0.4308035714285714	0.7142857142857143
4714.874267578125	0.2862472338717768	-9.649327118803365	-2.094111142279717	0.1496815373450237	-0.5458557720016111	3.60557449062519	0.2081545064377682	-0.4174107142857142	0.7120181405895691
4734.405517578125	-0.08657269012259713	-9.958730232694736	-2.567220783658654	-0.7687882191293803	2.469973545214363	-1.478924420698041	0.2145922746781116	-0.4151785714285714	0.7210884353741497
4753.936767578125	-0.1252538952050863	-9.645212107512597	-2.780732928470958	0.001728342316054045	-2.93307096725648	-0.6900591839127689	0.1866952789699571	-0.4084821428571428	0.7278911564625851
4773.468017578125	0.1456094492081279	-9.476203569239559	-2.316046961629121	-2.61929280308635	-0.9883396602741681	-5.797898142912223	0.2103004291845494	-0.4196428571428571	0.7097505668934241
4792.999267578125	0.1075282889545204	-9.485923767738033	-1.569155426064282	-0.3398666084776718	1.10744720912166	0.3418404259550573	0.1824034334763948	-0.4308035714285714	0.7006802721088435
4812.530517578125	-0.06858462094907798	-9.797293951770309	-2.325211374479956	-0.02088926467327366	-0.7600408803587642	-0.7122418369215325	0.1781115879828326	-0.4151785714285714	0.7052154195011338
4832.061767578125	-0.07949179832782563	-9.635568718380361	-2.254901799870499	-0.3126152291654292	-2.894290042553915	0.02269059584223058	0.1952789699570815	-0.4263392857142857	0.7120181405895691
4851.593017578125	-0.07850593382678003	-9.595174536621331	-2.353488249975058	0.3398666084776718	-1.10744720912166	-0.3418404259550573	0.1888412017167382	-0.40625	0.7120181405895691
4871.124267578125	-0.1701856428413359	-9.856884002157447	-2.369190817907225	-0.2508116063036351	0.8523680821506173	2.504445698563213	0.2081545064377682	-0.4263392857142857	0.7233560090702948
4890.655517578125	0.2110081099983611	-9.527362606352511	-1.713055897795292	-1.485666193108356	1.336079037962295	-2.561059725752582	0.1909871244635193	-0.4084821428571428	0.7097505668934241
4910.186767578125	-0.01389717676586826	-9.171578199949515	-1.671506813209092	-0.721511746301891	0.6948126575257918	-0.7408028219329504	0.1866952789699571	-0.421875	0.7188208616780045
4929.718017578125	-0.1222053508367226	-9.503828451542139	-2.065179202042024	0.714836715130142	-1.437004778854793	0.3883790123069781	0.1931330472103004	-0.421875	0.7097505668934241
4949.249267578125	0.124360754410249	-9.75881936511986	-2.231993808371838	0.3134794003234562	1.427754558925675	-0.367720187798615	0.2188841201716738	-0.4151785714285714	0.7188208616780045
4968.780517578125	-0.1251851666954158	-9.756323905908804	-1.76719761617271	1.388207817446517	1.109878934936226	0.7360898274312228	0.2145922746781116	-0.4375	0.7029478458049887
4988.311767578125	0.1214738684020643	-9.82949756696685	-1.943305207553365	-0.3532166708211696	-0.3769370335363428	-0.3630071932968873	0.1995708154506438	-0.4151785714285714	0.7165532879818595
5007.843017578125	0.2450569228255609	-9.699420266197954	-2.056712690719352	0.9819038137841359	0.2993751841312132	-1.062492366213111	0.2167381974248927	-0.4084821428571428	0.7142857142857143
5027.374267578125	-0.406363765743922	-9.571693938100138	-2.220766282750655	0.6809103046461504	1.822540351491781	0.3551050327938325	0.2081545064377682	-0.4017857142857142	0.7074829931972789
5046.905517578125	-0.4543864822455065	-9.854041993763405	-2.520535448918734	0.02552303699618864	-1.068666284419095	0.3709093537999421	0.1909871244635193	-0.4285714285714285	0.7006802721088435
5066.436767578125	0.4493236194626403	-9.671159902861294	-2.075219089121173	-0.4355966418234574	0.6203342147637014	-2.17318865627907	0.2081545064377682	-0.421875	0.6961451247165533
5085.968017578125	-0.04916826037752763	-9.827791145679054	-2.22603110510438	-0.05104607399237727	2.137332568838191	-0.7418187075998842	0.1888412017167382	-0.4107142857142857	0.7097505668934241
5105.499267578125	0.4565903709584286	-9.994464893608576	-1.781486075434697	-0.3143435714814832	0.03878092470256481	0.7127497797549994	0.203862660944206	-0.421875	0.7097505668934241
5125.030517578125	-0.08269585795622381	-10.01937506162246	-1.934495837030681	-0.8476135976314439	-4.900514484897688	3.269462944838794	0.1995708154506438	-0.4263392857142857	0.7006802721088435
5144.561767578125	0.0321456886481991	-9.464967921532949	-2.194160701554603	0.6817744758041775	0.3560048678635408	0.01007544083744814	0.2145922746781116	-0.4084821428571428	0.7029478458049887
5164.093017578125	0.2261698583590801	-9.709332405654301	-2.208822570601884	-0.07570493983053889	1.739463369629046	-1.457757653356211	0.1995708154506438	-0.4084821428571428	0.7052154195011338
5183.624267578125	-0.2942313263032331	-9.552613242292525	-2.209520430901188	-1.385302387439656	-0.005515132457605664	-0.3873631266400444	0.1974248927038627	-0.4084821428571428	0.7278911564625851
5203.155517578125	0.2874411804293955	-10.12408653301642	-2.213505798041591	0.3645254743158334	-0.7095780099125152	0.3740985198012692	0.2124463519313305	-0.4084821428571428	0.7188208616780045
5222.686767578125	0.2169232970046346	-9.790048020848836	-2.304574598422648	-0.3883201689959681	-1.15482667292487	-1.43506705751398	0.203862660944206	-0.3973214285714285	0.6938775510204082
5242.218017578125	0.3525004452438589	-9.609585610513045	-1.576575136630783	-0.4155715483082107	2.846910578750706	-1.115917227401153	0.203862660944206	-0.4040178571428571	0.7006802721088435
5261.749267578125	0.2300042660284822	-9.699269739629983	-1.571855174276789	0.007539202329775903	-0.7243433622992387	0.007394217669587907	0.1974248927038627	-0.4129464285714285	0.7142857142857143
5281.280517578125	0.1637793376543809	-10.12284991458867	-2.092219479723805	1.10315688412611	-0.2821781059299234	1.823446069820958	0.203862660944206	-0.421875	0.7210884353741497
5300.811767578125	-0.1598703882060439	-9.70547200318865	-2.380308118171117	1.348470546948803	2.160696460325559	0.005362446335720476	0.1974248927038627	-0.421875	0.6916099773242631
5320.343017578125	-0.581060464305478	-9.378027779195332	-2.098035202105256	-0.3674309043226944	-0.3947857925661056	-0.7228252205924476	0.2060085836909871	-0.4151785714285714	0.7097505668934241
5339.874267578125	0.1522357928210649	-9.405562761968616	-1.958273159657511	0.03683184049085249	-2.155181327867953	0.3820006803043239	0.1909871244635193	-0.4107142857142857	0.7029478458049887
5359.405517578125	0.4285698771294256	-9.600245294730893	-2.040661182330318	-0.02175343583130069	0.7064946032694759	-0.3672122449651481	0.1759656652360515	-0.4151785714285714	0.7142857142857143
5378.936767578125	0.1749834865119271	-9.769426602541889	-2.19222620221312	0.6286871429629663	-0.07756184940512961	-1.425499559509999	0.2081545064377682	-0.4129464285714285	0.7165532879818595
5398.468017578125	0.1982140113826047	-9.759557897689586	-2.474462362750264	0.2537170363104961	0.2519957203280034	-2.155718997772034	0.2081545064377682	-0.40625	0.7188208616780045
5417.999267578125	-0.2533965729459189	-9.583324620129128	-2.211363113571384	1.045435778961984	1.112962341579266	0.7292035525951017	0.2103004291845494	-0.4196428571428571	0.7188208616780045
5437.530517578125	0.3257668278229831	-9.508308173328738	-1.964437884339118	0.6884495069759263	1.098196989192542	0.3624992504634205	0.2145922746781116	-0.421875	0.7052154195011338
5457.061767578125	-0.04624703072893761	-9.646002176157358	-2.518154069963381	-0.01798383466641273	0.3443229221198566	-0.3635151361303542	0.2081545064377682	-0.4352678571428571	0.7346938775510204
5476.593017578125	0.05252569136523869	-9.586383842772239	-2.191344646727951	-0.6846799058110384	-1.460368670342161	-0.3588021416286265	0.1931330472103004	-0.4174107142857142	0.7029478458049887
5496.124267578125	0.3052878346130106	-10.06365893895219	-1.957354889872485	-2.87505109824568	-3.811234666709032	-4.335935437887752	0.1909871244635193	-0.421875	0.7188208616780045
5515.655517578125	-0.1692220006958467	-9.947802729487993	-2.465555032456149	0.2821455033135457	0.287693238387529	-1.436082943180914	0.2103004291845494	-0.4263392857142857	0.7188208616780045
5535.186767578125	-0.04145706177061221	-10.05009047988735	-1.976742802530615	-1.373129412786965	-2.558565659534703	-0.721301392092047	0.1952789699570815	-0.4040178571428571	0.6984126984126985
5554.718017578125	-0.1359670907973912	-9.635003965455665	-1.709413369240471	-0.7064333416423392	-0.7538740670726856	-0.7260143865937746	0.2145922746781116	-0.4397321428571428	0.7097505668934241
5574.249267578125	0.5499711002801164	-9.874186579689672	-1.935885538215724	0.2992651668219314	1.409905799895913	-0.7275382150941753	0.2103004291845494	-0.3950892857142857	0.7074829931972789
5593.780517578125	0.1758117743099367	-9.466404582389567	-2.275054982014081	1.706320990092888	0.7089263290840423	0.02703715651101733	0.1888412017167382	-0.4107142857142857	0.7210884353741497
5613.311767578125	0.03576995281802654	-9.949852649023132	-2.556587118537348	-1.071822987116199	1.42223942646807	-0.7550833144386594	0.2145922746781116	-0.4241071428571428	0.7074829931972789
5632.843017578125	0.02939415698749398	-9.424536365812299	-1.919007535484092	-1.030357374302432	-2.561649066177743	-0.7144151172559259	0.1866952789699571	-0.4107142857142857	0.7142857142857143
5652.374267578125	-0.05302484917362607	-9.797449549488064	-1.840372225494536	-1.802051023438674	-1.196039323442001	-2.542066238745145	0.2081545064377682	-0.3973214285714285	0.7278911564625851
5671.905517578125	0.09738475252125478	-9.586832433383799	-1.575209946003028	-1.136219123452075	2.075187752648257	-2.201749641290488	0.2145922746781116	-0.4241071428571428	0.7120181405895691
5691.436767578125	0.1420296297494132	-9.738794033671233	-1.958065015757648	-0.003769601164887951	0.3621716811496193	-0.003697108834793953	0.1952789699570815	-0.4084821428571428	0.7120181405895691
5710.968017578125	-0.3134476856747762	-9.855451381729113	-2.328700820277485	-0.00667503117174888	-0.7421921213290015	-0.3524238096259723	0.203862660944206	-0.4308035714285714	0.7278911564625851
5730.499267578125	-0.08924341321764277	-9.716279283039542	-2.30014847415409	0.07570493983053889	-1.739463369629046	1.457757653356211	0.1974248927038627	-0.3973214285714285	0.7142857142857143
5750.030517578125	0.2544913640951645	-9.426787337883377	-1.979748654414417	0.7035279116354782	-0.3504897354059351	0.3772876858025963	0.1995708154506438	-0.4196428571428571	0.7097505668934241
5769.561767578125	0.3980827018336672	-9.640344463381975	-2.053168142550393	0.7006224816286173	-1.454853537884556	0.02856098501141791	0.2145922746781116	-0.4174107142857142	0.7233560090702948
5789.093017578125	0.5512478756175361	-9.813593286836985	-2.063563071957694	-1.067189214793285	-0.4064677383097898	-1.09641579756025	0.184549356223176	-0.4174107142857142	0.7097505668934241
5808.624267578125	-0.1194619000325835	-9.867492249686544	-2.33952428245594	-3.60323787571932	-3.858614130512242	-5.429162069446674	0.1995708154506438	-0.4151785714285714	0.7074829931972789
5828.155517578125	-0.2117315115764535	-9.987781674783227	-2.296236597456691	0.3390024373196448	0.35908827450658	0.003189166001327095	0.2103004291845494	-0.40625	0.7097505668934241
5847.686767578125	-0.2984475132165161	-9.2596417874941	-1.787901739572878	0.008403373487802925	-2.190878845927479	-0.3376353742867965	0.2017167381974249	-0.4040178571428571	0.7142857142857143
5867.218017578125	0.3630561053619877	-9.185448742871804	-1.611732985178369	-0.003769601164887951	0.3621716811496193	-0.003697108834793953	0.2210300429184549	-0.4040178571428571	0.7029478458049887
5886.749267578125	0.4169111800900449	-9.701138808770599	-1.895199641657549	0.3001293379799584	-0.05662968373232757	-1.07256780705056	0.1931330472103004	-0.4151785714285714	0.6938775510204082
5906.280517578125	0.07987345388512652	-9.869485603225721	-1.864896408920816	-1.340067173461	-4.351575306253038	-0.342997820622517	0.2103004291845494	-0.4174107142857142	0.7188208616780045
5925.811767578125	0.377335020142877	-10.08458143100951	-2.019216300001985	0.6704656723095137	1.442519911312399	-0.001015885666933716	0.2103004291845494	-0.4151785714285714	0.7256235827664399
5945.343017578125	-0.2015132272199529	-9.674752544495478	-2.297656869841446	-1.102292712968083	-1.184357377698317	-2.168475661777343	0.1952789699570815	-0.4263392857142857	0.7074829931972789
5964.874267578125	-0.2632067740458391	-9.73474166963328	-2.250751166844664	-2.13728385959343	-1.917299279098201	-2.541558295911678	0.2124463519313305	-0.4017857142857142	0.7097505668934241
5984.405517578125	-0.2957242645537918	-9.421285181596888	-2.060226605845308	-0.3210186026532321	-0.7034111966264366	0.3603259701290271	0.1974248927038627	-0.421875	0.7165532879818595
6003.936767578125	0.05229740716725068	-9.374260347809049	-2.168516226929149	3.028091412354696	-0.09914569590640453	-1.377295635657152	0.2103004291845494	-0.4107142857142857	0.7029478458049887
6023.468017578125	0.1055504580811447	-9.72832823185354	-2.391780501992021	0.2708366998188818	1.374208281836387	-1.447174269685296	0.1931330472103004	-0.4352678571428571	0.6984126984126985
6042.999267578125	0.4884432110138321	-9.873571300797007	-1.905545591179134	-1.059650012463509	-1.130811100609028	-1.089021579890662	0.1952789699570815	-0.4174107142857142	0.7074829931972789
6062.530517578125	0.3161727896362019	-9.851646576381212	-2.025442228926307	0.6968528804637294	-1.092681856734937	0.02486387617662396	0.1995708154506438	-0.4375	0.7210884353741497
6082.061767578125	0.0737036786681656	-9.859322895372543	-2.26832705049003	-0.04264270050457435	-0.05354627708928829	-1.079454081886681	0.2167381974248927	-0.4107142857142857	0.7188208616780045
6101.593017578125	-0.009975941117242244	-9.646364887053476	-2.063630378071693	-1.420405885614454	-0.7834047718461327	-1.459422990857137	0.2081545064377682	-0.4285714285714285	0.7142857142857143
6121.124267578125	-0.2668855839974867	-9.663997810826693	-1.882870171679905	-4.269933946863945	-5.66330572297426	-5.424449074944946	0.2060085836909871	-0.4107142857142857	0.7029478458049887
6140.655517578125	0.4276143158405024	-9.691144830027094	-1.945105053437989	0.003769601164887951	-0.3621716811496193	0.003697108834793953	0.1974248927038627	-0.40625	0.7165532879818595
6160.186767578125	0.2460690501104458	-9.871147559187975	-2.157925419207845	-2.738719623244154	-5.841474681368646	-1.435208566514506	0.2253218884120172	-0.4241071428571428	0.7097505668934241
6179.718017578125	0.03150124033706479	-9.737688749777108	-2.129715870441172	-0.0388730993396864	-0.4157179582389076	-1.075756973051887	0.1952789699570815	-0.4241071428571428	0.7210884353741497
6199.249267578125	0.02575975051809907	-9.767934365181951	-2.575975051809907	-0.32478820381812	-0.3412395154768173	0.3566288612942332	0.2188841201716738	-0.4241071428571428	0.6802721088435374
6218.780517578125	0.1443225728000008	-9.68831191259669	-2.187359320816407	-0.01594257581757883	2.915222208226718	0.3302411566172086	0.2210300429184549	-0.4129464285714285	0.7233560090702948
6238.311767578125	0.02199407135836755	-9.384058324551969	-2.199407135836755	-0.721511746301891	0.6948126575257918	-0.7408028219329504	0.2017167381974249	-0.4129464285714285	0.7301587301587302
6257.843017578125	0.1508357844210145	-9.597467953803807	-1.818272319652471	-1.474357389613693	0.2495639945134371	-2.5499683992482	0.2060085836909871	-0.4084821428571428	0.7188208616780045
6277.374267578125	0.130742652112066	-9.617469042682739	-1.849775415288237	-0.3616200443089725	1.813941812391136	-0.02537181901009081	0.1931330472103004	-0.4040178571428571	0.7256235827664399
6296.905517578125	0.3509226579993576	-9.336842559913329	-1.418796412180658	0.03219806816793752	-0.3264741630900938	0.7233331634259144	0.2103004291845494	-0.3973214285714285	0.7006802721088435
6316.436767578125	0.7419326313525393	-9.542772861667061	-1.744283543417195	0.01130880349466385	-1.086515043448858	0.01109132650438186	0.2081545064377682	-0.4285714285714285	0.7188208616780045
6335.968017578125	0.1251587389961363	-9.910342496480872	-2.31179226696057	0.9697308391314451	2.852425711208312	-0.7285541007611089	0.1909871244635193	-0.3973214285714285	0.7006802721088435
6355.499267578125	-0.09740916000639271	-9.746500655874685	-2.503981958544401	0.3114381414746222	-1.143144727181185	-1.061476480546178	0.2274678111587983	-0.4084821428571428	0.7006802721088435
6375.030517578125	0.4210829222922153	-9.751685576697673	-2.312373861874588	-4.498127946178252	-6.983967727721359	-2.89782072337297	0.1931330472103004	-0.4107142857142857	0.7120181405895691
6394.561767578125	0.1530943838311968	-9.658096600403971	-2.044132260670703	0.3143435714814832	-0.03878092470256481	-0.7127497797549994	0.2081545064377682	-0.4330357142857142	0.7210884353741497
6414.093017578125	0.1898058801257363	-9.719069775972976	-1.633649237063429	-1.063419613628397	-0.7686394194594092	-1.092718688725456	0.1909871244635193	-0.4308035714285714	0.7029478458049887
6433.624267578125	0.1294982002009101	-10.40533538604241	-1.725330224172646	-5.621309923819609	-8.92836598577844	-5.778538222071846	0.1995708154506438	-0.4241071428571428	0.7278911564625851
6453.155517578125	0.4708026186726487	-9.772384793863496	-2.182302683591406	0.6704656723095137	1.442519911312399	-0.001015885666933716	0.2060085836909871	-0.4129464285714285	0.7188208616780045
6472.686767578125	-0.1604259470949528	-9.452941195074507	-2.324752229280228	1.008603938471131	3.268143669447219	0.3472028722907778	0.1931330472103004	-0.4174107142857142	0.7029478458049887
6492.218017578125	-0.1940444543100159	-9.493009050406396	-2.024125997569838	1.020776913123822	0.7150931423701209	0.01326460683877524	0.1824034334763948	-0.4107142857142857	0.7097505668934241
6511.749267578125	0.1278921299584281	-9.748753668774333	-1.56472319992444	-0.01711966350838571	-1.122212561508384	-0.7085447280867386	0.1931330472103004	-0.4017857142857142	0.6961451247165533
6531.280517578125	0.07417034813484907	-9.627004329743976	-2.314993997158376	-5.269821595314494	-5.618357984985616	-4.72547184486219	0.2167381974248927	-0.4174107142857142	0.7142857142857143
6550.811767578125	0.1381972422941526	-9.920573891614861	-2.595234433496892	0.6855440769690655	-0.00616681328607855	0.0137725496722421	0.2124463519313305	-0.4107142857142857	0.7006802721088435
6570.343017578125	0.3655530900408656	-9.306685833930715	-1.861431453066146	-0.713108372814088	-1.496066188401687	-1.078438196219747	0.1974248927038627	-0.4196428571428571	0.7188208616780045
6589.874267578125	0.1123262975405517	-9.738497000349145	-2.048956284667414	-0.04264270050457435	-0.05354627708928829	-1.079454081886681	0.2017167381974249	-0.40625	0.7165532879818595
6609.405517578125	0.05797425013368881	-9.404620146541744	-1.715792360307656	0.3352328361547569	0.7212599556561994	-0.000507942833466858	0.2081545064377682	-0.4084821428571428	0.7210884353741497
6628.936767578125	0.5318193937611367	-9.762893951513369	-2.161531212848378	-0.3465416396494207	0.3652550877926586	-0.010583383670915	0.203862660944206	-0.4263392857142857	0.7006802721088435
6648.468017578125	-0.2115638338027101	-9.593843957621571	-2.313004374831032	0.3427720384845327	-0.003083406643039275	0.006886274836121049	0.2210300429184549	-0.421875	0.6984126984126985
6667.999267578125	-0.2434914217813486	-9.421807510024612	-2.181470066763093	-1.073864245965034	-1.148659859638791	-1.448839607186222	0.2060085836909871	-0.4129464285714285	0.7029478458049887
6687.530517578125	0.1838583284643389	-9.405878987325048	-2.059302234188998	1.330486712282391	2.505019382445415	-0.3581526897946337	0.1888412017167382	-0.4129464285714285	0.7120181405895691
6707.061767578125	0.2999019024829466	-10.01310002912584	-2.439169840131389	-0.04727647282748933	1.775160887688571	-0.7381215987650902	0.1888412017167382	-0.4107142857142857	0.7165532879818595
6726.593017578125	-0.007662795925239781	-9.797903170020549	-2.29494489727194	0.2189264546684775	4.978076334302817	-1.843963385328795	0.2017167381974249	-0.4017857142857142	0.7324263038548753
6746.124267578125	0.01353135309081902	-9.929428242823841	-2.373543472347208	0.6223250283239974	4.68421628262921	-0.3941078924756395	0.2103004291845494	-0.4107142857142857	0.7278911564625851
6765.655517578125	-0.03706915665530274	-9.787508096312237	-2.415533314061563	-1.027451944295571	-1.457285263699122	-0.3656884164647475	0.2124463519313305	-0.4017857142857142	0.7278911564625851
6785.186767578125	0.129451735275656	-9.486143002201244	-1.720683731647226	0.9801754714680819	3.232446151387693	-0.3724331823003427	0.2081545064377682	-0.4151785714285714	0.7392290249433107
6804.718017578125	-0.2754533534003925	-9.865932335152864	-2.046501394654627	-1.792470562260064	0.6505166003656212	-1.840915728327994	0.1931330472103004	-0.4129464285714285	0.7278911564625851
6824.249267578125	0.02893960880565943	-9.677057072855733	-1.873552717300637	-0.6809103046461504	-1.822540351491781	-0.3551050327938325	0.1781115879828326	-0.4151785714285714	0.7074829931972789
6843.780517578125	-0.1555147652881382	-9.554000407902674	-1.795462246696383	-5.304060922331265	-7.862783108002384	-6.142561301035666	0.1952789699570815	-0.4084821428571428	0.6938775510204082
6863.311767578125	-0.02656400189071099	-10.12094648119322	-2.445640627255432	0.02638720815421566	-2.535201768047335	0.02587976184355767	0.1952789699570815	-0.4107142857142857	0.7233560090702948
6882.843017578125	0.1204213368343496	-9.253729465893597	-1.838052050781899	-0.6800461334881235	-3.289075835120021	-0.7001346247502169	0.1952789699570815	-0.40625	0.7233560090702948
6902.374267578125	0.1230859992869708	-9.991129849891861	-2.104518296044017	-2.731180420914378	-6.565818043667885	-1.427814348844918	0.184549356223176	-0.4174107142857142	0.7210884353741497
6921.905517578125	0.2227395347468354	-9.547681940802015	-1.865790209377414	-0.003769601164887951	0.3621716811496193	-0.003697108834793953	0.203862660944206	-0.4107142857142857	0.7165532879818595
6941.436767578125	-0.00865674128285132	-9.151428584102325	-2.195550361510786	-6.783052084267872	-5.784511948711088	-8.351197217162277	0.1995708154506438	-0.4107142857142857	0.7165532879818595
6960.968017578125	0.254422676814354	-9.649008873232791	-1.972879926333362	-2.048228857419394	-2.172378406069243	-0.3789530233035228	0.203862660944206	-0.4040178571428571	0.7278911564625851
6980.499267578125	0.2326891306225183	-9.628589517568852	-1.840341633680394	-0.7139725439721151	-0.02953070477344698	-0.7334086042633625	0.203862660944206	-0.4129464285714285	0.7188208616780045
7000.030517578125	-0.04915209866439574	-9.686377165882044	-2.227647276417569	0.6231891994820243	3.21768079900097	-0.739137484432024	0.1909871244635193	-0.4017857142857142	0.7210884353741497
7019.561767578125	-0.1397348314001242	-9.756178409261757	-2.353047472232473	-0.3778755366593312	-0.7748062327454877	-1.078946139053214	0.1995708154506438	-0.4174107142857142	0.6984126984126985
7039.093017578125	-0.1173750188244275	-9.978624229609736	-2.548212403271534	-0.3163848303303171	-2.532118361404296	0.01899348700743662	0.2124463519313305	-0.4107142857142857	0.7278911564625851
7058.624267578125	0.4718571704545049	-9.509769076755052	-2.28775786177702	0.01421423350152478	0.01784875902976276	0.3598180272955602	0.2103004291845494	-0.4107142857142857	0.7256235827664399
7078.155517578125	0.08157245397811698	-9.334149057873116	-2.034796418219862	-0.09455294565497865	3.550321775377142	-1.47624319753018	0.2081545064377682	-0.4129464285714285	0.7165532879818595
7097.686767578125	-0.05169958869681068	-9.817664822294851	-1.972898273176075	0.3059401979936803	2.152097921224914	-0.3751144054682029	0.1974248927038627	-0.4174107142857142	0.7142857142857143
7117.218017578125	-0.02858219581805638	-9.787592965920609	-2.243821234520893	-2.085373614443026	-5.521167331564631	-2.144769180268178	0.1824034334763948	-0.4174107142857142	0.7074829931972789
7136.749267578125	0.2336931770508372	-9.618498547932125	-1.940746276512291	-1.041666177797096	-1.475134022728885	-0.7255064437603078	0.2145922746781116	-0.4107142857142857	0.7165532879818595
7156.280517578125	0.2355275314913073	-9.477102750062389	-2.124181720559299	-5.399478039144271	-2.845925848997002	-7.273774906609463	0.1909871244635193	-0.4107142857142857	0.7052154195011338
7175.811767578125	0.1142556020456716	-10.09205164692955	-2.241886735179409	-0.3636613031578064	-0.7569574737157249	-0.7191281117576536	0.203862660944206	-0.4174107142857142	0.7052154195011338
7195.343017578125	0.1286335073194937	-9.809367143154004	-2.659269099296311	0.3038989391448463	-0.4188013648819469	-1.068870698215766	0.2103004291845494	-0.4017857142857142	0.7029478458049887
7214.874267578125	-0.120613422093231	-9.463440330425534	-2.224372076391189	-0.02929263816107659	1.430837965568715	-0.374606462634736	0.1995708154506438	-0.4263392857142857	0.7210884353741497
7234.405517578125	-0.1656926453618091	-9.260969336172646	-1.798082402594601	0.3314632349898689	1.083431636805819	-0.004205051668260811	0.2103004291845494	-0.4084821428571428	0.7074829931972789
7253.936767578125	0.2351174280205854	-9.466997638926673	-2.083171373487116	0.0443710428206284	-2.879524690167192	0.3893948979739119	0.1909871244635193	-0.4285714285714285	0.7142857142857143
7273.468017578125	0.8492064145540923	-9.846875902529382	-2.26758023091944	0.3682950754807214	-1.071749691062134	0.3777956286360631	0.1931330472103004	-0.3928571428571428	0.7074829931972789
7292.999267578125	0.2987786634202799	-9.48783627148269	-2.326845933864719	-0.7679240479713533	1.003438061586123	-1.823954012654425	0.1931330472103004	-0.4285714285714285	0.7142857142857143
7312.530517578125	-0.1130921236156153	-9.705939785834554	-1.956093760887447	0.9801754714680819	3.232446151387693	-0.3724331823003427	0.2188841201716738	-0.4017857142857142	0.7074829931972789
7332.061767578125	0.1427609472686314	-9.779205387250466	-2.031196767679472	-0.656251438807989	-1.424671152282636	0.360833912962494	0.2145922746781116	-0.4330357142857142	0.7278911564625851
7351.593017578125	0.05145699808439214	-9.657080226546501	-2.084475318643296	0.04814064398551635	-3.241696371316811	0.3930920068087058	0.1974248927038627	-0.3950892857142857	0.6984126984126985
7371.124267578125	0.08216841714985561	-9.99072067407049	-2.094392735393725	-3.182719638555414	-3.030261620677466	-3.27076184850678	0.1931330472103004	-0.3928571428571428	0.7120181405895691
7390.655517578125	0.4696995817513969	-9.954191945312466	-2.071998991466223	-5.618404493812749	-7.824002183299819	-5.429811521280667	0.2017167381974249	-0.4017857142857142	0.7165532879818595
7410.186767578125	0.5112090866319677	-9.762687848442079	-2.14131682646208	0.6780048746392896	0.7181765490131601	0.006378332002654191	0.1781115879828326	-0.3973214285714285	0.7142857142857143
7429.718017578125	-0.4493399460912123	-9.338940943973434	-2.00478090108285	0.2490832639875812	2.080702885105863	-1.814386514650444	0.2103004291845494	-0.4084821428571428	0.7006802721088435
7449.249267578125	0.2738814618828756	-9.750213562093577	-1.877942106654908	-0.3732417643364163	-2.603513397523347	-1.420278622174804	0.2017167381974249	-0.4241071428571428	0.7006802721088435
7468.780517578125	0.2976715860707451	-9.831259544143538	-2.216138198911239	1.038760747790235	0.3707702202502642	0.3767797429691294	0.1952789699570815	-0.4129464285714285	0.7165532879818595
7488.311767578125	0.1566944054313264	-10.10257704506442	-2.404134420683663	-0.3682950754807214	1.071749691062134	-0.3777956286360631	0.2167381974248927	-0.4129464285714285	0.7052154195011338
7507.843017578125	-0.07880694573386157	-9.766888698219431	-2.323387059266903	0.6713298434675408	-0.02401557231584131	-0.3460454776233181	0.2124463519313305	-0.4129464285714285	0.7188208616780045
7527.374267578125	0.2110969994205865	-9.507161475044715	-1.721944840017834	0.3218827738112591	-0.7631242870018035	-0.7053555620854115	0.1995708154506438	-0.4084821428571428	0.6984126984126985
7546.905517578125	0.1708683103057184	-9.476456157850533	-1.780708581592244	0.2850509333204066	1.39205704086615	-1.087356242389735	0.2145922746781116	-0.421875	0.7165532879818595
7566.436767578125	0.06421267140260026	-9.869328995400897	-2.339634487198802	0.3503112408143086	-0.727426768942278	0.01428049250570896	0.1974248927038627	-0.4151785714285714	0.7097505668934241
7585.968017578125	0.237335623147938	-9.628635982494107	-2.304990886222374	-1.788700961095176	0.2883449192160019	-1.8372186194932	0.1866952789699571	-0.4285714285714285	0.7142857142857143
7605.499267578125	-0.1082718926740276	-9.82720010935609	-2.438116855046214	-0.0539515039992382	1.03296876635957	-1.090545408391063	0.2145922746781116	-0.40625	0.7029478458049887
7625.030517578125	-0.1082819937447351	-9.47366465481003	-2.43710674797547	0.1023071566494183	3.730922459586095	-5.071234304484456	0.1952789699570815	-0.4263392857142857	0.7188208616780045
7644.561767578125	0.2822997354393114	-9.46746946200086	-1.699361299033183	0.6742352734744016	1.080348230162779	0.002681223167860238	0.2060085836909871	-0.4196428571428571	0.7052154195011338
7664.093017578125	0.2427397372052754	-9.709498104442762	-1.824994128690808	-0.328557804983008	0.02093216567280204	0.3529317524594392	0.2124463519313305	-0.40625	0.7188208616780045
7683.624267578125	0.2006989160054936	-9.688875676028744	-1.702544661773846	-0.6884495069759263	-1.098196989192542	-0.3624992504634205	0.2017167381974249	-0.4017857142857142	0.6938775510204082
7703.155517578125	0.07408347892676515	-9.818922652971088	-2.306307076349983	1.312502877615978	2.849342304565272	-0.7216678259249879	0.1974248927038627	-0.4129464285714285	0.7006802721088435
7722.686767578125	0.1114656863162783	-9.819296475044984	-1.962895162240073	1.737654887102798	1.848987649622189	1.095399911893316	0.1759656652360515	-0.40625	0.6984126984126985
7742.218017578125	0.2007332596458988	-9.577764908354037	-1.705979025814374	1.019912741965795	2.181628625998361	0.3582941987951597	0.203862660944206	-0.4241071428571428	0.7029478458049887
7761.749267578125	0.1093121380414533	-9.597052717340013	-1.747540334757573	0.6533460088011279	0.3203073498040153	-0.7095606137536723	0.1931330472103004	-0.4040178571428571	0.7142857142857143
7781.280517578125	-0.05098645310486581	-9.82777296375178	-2.044211832370562	2.75843180022662	2.564080791992309	1.108664518732091	0.2188841201716738	-0.421875	0.7052154195011338
7800.811767578125	0.1294335533483826	-9.45583979007894	-1.718865538919888	2.72709790321671	1.424019471454163	0.04030176334979257	0.1866952789699571	-0.4084821428571428	0.7120181405895691
7820.343017578125	0.3506620503751058	-9.912597529594663	-1.392735649755478	3.432354157168243	-1.859541231208252	-0.27246973476038	0.1952789699570815	-0.4330357142857142	0.7052154195011338
7839.874267578125	-0.295990891591608	-9.815221909265905	-1.013155738798379	2.873776102686757	2.275417240873066	-4.641537643160751	0.203862660944206	-0.4129464285714285	0.7006802721088435
7859.405517578125	-0.1384297318358637	-9.907706611772554	-1.463149265393222	9.31256614424651	-1.47839242687125	1.280171937801125	0.2124463519313305	-0.4352678571428571	0.6916099773242631
7878.936767578125	0.04917621754751349	-9.556047317731032	-0.8359891016901245	12.41290581179964	2.549140442106261	2.740752323325722	0.1952789699570815	-0.4084821428571428	0.671201814058957
7898.468017578125	0.3121627057942105	-9.730394354330672	-0.6040256814618603	15.38735863668787	8.986933765922767	1.656726755937839	0.2253218884120172	-0.4330357142857142	0.6689342403628118
7917.999267578125	0.3027908911629928	-10.27575518163891	-0.6872523816054049	17.75252357906283	6.720924796404725	0.2878412236172094	0.1995708154506438	-0.4441964285714285	0.6575963718820862
7937.530517578125	-0.1210335854058002	-9.938183603539883	-1.161947581868959	20.26242336992712	0.2337969662995904	1.482047188383029	0.1995708154506438	-0.4464285714285714	0.6575963718820862
7957.061767578125	0.4710269036712138	-9.974407238733685	-1.184323020182607	21.56448161520646	2.70311883068548	0.4042584439972745	0.2231759656652361	-0.4620535714285714	0.6598639455782314
7976.593017578125	0.3562277815637621	-9.589420863674226	-0.928900605355807	23.17334422963751	5.858003132668044	-1.393674297813067	0.1931330472103004	-0.4776785714285714	0.6281179138321996
7996.124267578125	0.2332023062433159	-9.638695659426071	-0.8712510324948571	29.94530251907538	20.73461772209047	0.391559873160603	0.2339055793991416	-0.4732142857142857	0.6167800453514739
8015.655517578125	-0.4933423539935179	-9.580925162318653	-0.66576460064821	31.69426620967284	21.4970903282638	1.498051111558301	0.2360515021459227	-0.515625	0.6054421768707483
8035.186767578125	-0.4612430478128529	-9.702458276592582	-0.8144707289187871	32.57441412143281	11.09503731581733	3.777947981212929	0.2145922746781116	-0.5089285714285714	0.5578231292517007
8054.718017578125	-0.1251669435392823	-10.11996045177673	-0.7486117685207452	31.27290713077872	1.655209714439862	3.126891656981967	0.2446351931330472	-0.53125	0.5759637188208617
8074.249267578125	0.2519540163623171	-10.24494378258787	-0.7056057178643629	31.73284972190755	-4.071225554478035	4.632203782357032	0.2296137339055794	-0.5491071428571428	0.5736961451247166
8093.780517578125	0.007323276262889903	-9.848558081247479	-0.7323276262889901	35.45260898777782	3.536159794650064	5.349949574614811	0.2253218884120172	-0.5714285714285714	0.5532879818594104
8113.311767578125	0.4392366902541964	-10.36802873053891	-1.066526168276779	35.54973111747908	16.0662951560056	2.348892821868662	0.2553648068669528	-0.5669642857142857	0.5532879818594104
8132.843017578125	-0.1909069792905667	-9.664757596873761	-0.2970571729841428	34.93785072149171	11.76209931355577	3.099121632805068	0.2424892703862661	-0.609375	0.5328798185941043
8152.374267578125	-0.5174395507308933	-9.661492271159359	-0.2968612534412786	32.49140831736496	1.084368057390695	-0.7998644350899171	0.2381974248927039	-0.6272321428571428	0.5283446712018141
8171.905517578125	-0.3294376393757847	-9.633069259969879	0.2907027130886762	38.57902294695238	-0.4754793577831022	5.452594245322635	0.2489270386266094	-0.6272321428571428	0.526077097505669
8191.436767578125	0.2507843536032562	-10.14392198495018	0.43176872130703	41.21737876452783	6.707589494005445	4.714106212724603	0.2424892703862661	-0.6651785714285714	0.5192743764172336
8210.968017578125	0.1309993017657549	-10.37504736675503	0.1653759458734861	45.68244447138012	15.48456686844514	7.233623364628044	0.259656652360515	-0.6696428571428571	0.5102040816326531
8230.499267578125	-0.4220446266812831	-10.36951692747056	0.3677279742507564	47.91103960066108	27.72327390394163	6.076671506211216	0.259656652360515	-0.6964285714285714	0.4965986394557823
8250.030517578125	-1.546249846453933	-9.631002148000109	0.543351992332115	48.77233950659662	19.13207929724326	8.338082831691874	0.2274678111587983	-0.7098214285714285	0.5215419501133787
8269.561767578125	-0.2693865266469273	-10.37104350847091	0.4080404197947762	47.55376374157005	1.724474710574169	7.76836290182638	0.2360515021459227	-0.7120535714285714	0.5238095238095238
8289.093017578125	0.6412044656559839	-9.531664569909086	1.185675883381213	50.09002741116075	13.1822087000391	5.54623745402858	0.2532188841201717	-0.7075892857142857	0.5215419501133787
8308.624267578125	0.2019051075345413	-9.668685717742012	1.238060675117298	53.68714151033357	9.328124972230757	8.894130645232567	0.2639484978540773	-0.7522321428571428	0.5283446712018141
8328.155517578125	-0.008155563260322464	-10.14133258578154	1.835964489297552	53.04714556387594	10.49220186508474	10.30853887823818	0.2467811158798283	-0.7477678571428571	0.5396825396825397
8347.686767578125	-0.6194021084967574	-9.953401938510995	1.736129217022674	52.7829838952288	9.86018570457736	12.10813695754945	0.2489270386266094	-0.796875	0.564625850340136
8367.218017578125	-0.5685066474859786	-9.913506852717061	1.74862393227132	57.08535424835316	2.722541274106603	15.14325865064326	0.2532188841201717	-0.7834821428571428	0.5351473922902494
8386.749267578125	-1.314398981013552	-10.10806813140199	1.848061366661336	57.16655713166464	-2.312164743928542	15.9146542289215	0.2639484978540773	-0.8102678571428571	0.5555555555555556
8406.280517578125	-1.192306844626473	-10.01837996185677	1.883745687137079	60.4150883323392	-8.371892670051086	18.55820774370701	0.2467811158798283	-0.8147321428571428	0.5895691609977325
8425.811767578125	-1.371296498238688	-9.572145620876199	2.435772272848439	55.20008241218197	-16.48975490502451	14.5782517152795	0.2424892703862661	-0.8370535714285714	0.5986394557823129
8445.343017578125	-0.9635045235544553	-9.626728591128092	2.472901335037366	53.50939108137388	-25.61787369569861	12.83715792549094	0.2360515021459227	-0.8303571428571428	0.5918367346938775
8464.874267578125	-1.656384170422112	-9.771314946174568	3.393519083027507	49.79685810130062	-39.45357266048929	10.74299087424242	0.2381974248927039	-0.8660714285714285	0.6031746031746031
8484.405517578125	-1.458545836412104	-9.975313531534871	2.997440784067504	49.35084015656832	-59.69332247352237	11.65589247390976	0.2510729613733906	-0.8705357142857142	0.6281179138321996
8503.936767578125	-1.039151730684451	-10.17142666451134	2.894764905179825	49.52078512552107	-70.48707787189188	13.20607784813582	0.2660944206008584	-0.8683035714285714	0.6213151927437642
8523.468017578125	-0.1886987615473415	-10.472860487132	2.543345542489252	52.61704227537651	-71.60134357512811	13.27914564816529	0.2875536480686695	-0.8883928571428571	0.6258503401360545
8542.999267578125	0.02575389601997475	-9.909348448051112	2.526651214329055	56.44232704443584	-53.65470171057196	10.65819931339012	0.3025751072961373	-0.8973214285714285	0.6394557823129252
8562.530517578125	0.3555370332428138	-9.771232138009198	3.221806879800257	60.32564583519207	-31.59923004016165	10.51531097250114	0.2854077253218884	-0.8839285714285714	0.6439909297052154
8582.061767578125	-0.3515347004265081	-9.501535158046243	3.520816981426317	62.58643903264097	-19.68699716775525	10.08169227751023	0.3025751072961373	-0.8950892857142857	0.6757369614512472
8601.593017578125	-0.6006442965064718	-9.892983456024837	2.921572507790026	61.48909300852858	-17.19609145686808	8.955699609271628	0.2832618025751073	-0.90625	0.7097505668934241
8621.124267578125	-0.8480932353332731	-9.345054421182024	3.176670472102817	63.30708660778483	-18.9152743416528	11.16752469139956	0.2982832618025751	-0.8950892857142857	0.6961451247165533
8640.655517578125	-0.2320426208683824	-9.795659371771116	2.796098821532118	64.73589586688709	-20.32274841573414	12.2893123079699	0.3047210300429185	-0.890625	0.7165532879818595
8660.186767578125	0.1830039840267902	-9.14324418125441	3.128173025892413	66.23834547754325	-5.560521557933999	10.73289011074172	0.315450643776824	-0.8995535714285714	0.7256235827664399
8679.718017578125	-0.2441396631476058	-8.825841431651353	4.005803049454455	67.14603435572043	6.019722018924702	10.63524145253667	0.3197424892703863	-0.8816964285714285	0.7437641723356009
8699.249267578125	-0.3378315054470826	-8.764298452622297	4.19131381001438	65.65863982029603	10.28887202414348	8.764240910696861	0.2939914163090129	-0.8727678571428571	0.7868480725623583
8718.780517578125	-0.471978300845274	-8.631643853355184	4.340687227384548	65.67403114148836	14.34415555290834	10.16284482269637	0.296137339055794	-0.8638392857142857	0.7868480725623583
8738.311767578125	-0.4850814509958179	-8.682017872358731	4.630594079173629	64.96469236983916	12.48591768335703	9.088103735311414	0.2896995708154507	-0.8549107142857142	0.8344671201814059
8757.843017578125	-0.5996482484769987	-8.852589376101092	4.862784031373329	62.24599784011025	8.871019365975394	8.710166597674826	0.2725321888412017	-0.8415178571428571	0.854875283446712
8777.374267578125	-1.273190364353483	-8.563025672114042	4.870056843511542	61.05474803283624	5.440123771348985	12.31777285963388	0.278969957081545	-0.8214285714285714	0.8662131519274376
8796.905517578125	-1.060133674757934	-8.534853208706968	4.992959312528088	62.2721700395998	-1.669769999334419	15.29091807920261	0.2703862660944206	-0.8370535714285714	0.873015873015873
8816.436767578125	-1.223302990199306	-8.189787172118209	4.983360244420383	63.01080144941008	-1.242370095351827	16.7402656292223	0.2618025751072962	-0.8058035714285714	0.909297052154195
8835.968017578125	-0.7855753586799402	-8.295174549443505	5.088148112891977	60.64359524818629	-1.547260411940645	17.41539486879536	0.2553648068669528	-0.7946428571428571	0.9024943310657597
8855.499267578125	-1.304837101337595	-8.350587992622987	5.993914215392117	60.36985311836055	-4.025832496255653	18.51384243768948	0.2639484978540773	-0.7834821428571428	0.9319727891156463
8875.030517578125	-1.186876344098716	-8.281060529488308	5.422328287422622	61.77518059931544	-1.793740999811043	19.95847699320744	0.2467811158798283	-0.7589285714285714	0.9569160997732427
8894.561767578125	-1.261673041075146	-7.886373168579149	5.759140842208485	61.05571011186238	1.471970943821609	19.91143046402205	0.2575107296137339	-0.7611607142857142	0.9795918367346939
8914.093017578125	-1.605058280112616	-7.408191841441299	6.424195358200392	58.96570272509646	-2.220489222965162	18.10799376687547	0.2553648068669528	-0.734375	0.9841269841269842
8933.624267578125	-1.177039838986096	-7.159946773327312	6.479494102691271	58.57997506957456	-7.774922346774753	15.63783793349233	0.2489270386266094	-0.7276785714285714	1.00907029478458
8953.155517578125	-1.56860941165647	-6.863101784671315	6.860941165646995	61.82709084446584	-5.397609052277474	20.35526610885094	0.2210300429184549	-0.7008928571428571	1.029478458049887
8972.686767578125	-1.570219522327235	-7.378237198716123	7.021952232723499	61.28133492713042	-13.28782418816397	21.86210206272641	0.2103004291845494	-0.6919642857142857	1.034013605442177
8992.218017578125	-0.8011613107815113	-7.234412629316428	6.646743323049097	63.81555733787228	-4.400989484805902	18.94622032218104	0.2381974248927039	-0.6629464285714285	1.068027210884354
9011.749267578125	-1.893687428914926	-6.253790398438126	6.715681667002805	62.35745544060894	-1.562677445155842	17.44982624297597	0.2381974248927039	-0.6696428571428571	1.072562358276644
9031.280517578125	-1.435674744743171	-6.490693757603074	6.832780596766039	63.07723884459478	0.6755808645748468	18.88068824882169	0.2210300429184549	-0.6495535714285714	1.099773242630385
9050.811767578125	-1.643848535529886	-5.731036262119449	7.24199641013142	62.06023153263585	-0.4016839589448934	18.87112075081771	0.2060085836909871	-0.6160714285714285	1.108843537414966
9070.343017578125	-1.532649435022563	-6.176592697568967	7.346576155317581	61.29113039697368	-3.435680667093871	16.00838085345934	0.2124463519313305	-0.5848214285714285	1.138321995464853
9089.874267578125	-1.467713444499591	-5.965120845352985	6.975426082612156	59.86695491019435	-3.856913757790385	14.5452607537674	0.2081545064377682	-0.5736607142857143	1.156462585034014
9109.405517578125	-1.3554153474993	-5.885435745514907	6.97010617850143	59.6767698390617	-3.295322320670336	18.49267567034765	0.1952789699570815	-0.5669642857142857	1.151927437641723
9128.936767578125	-1.471893267558327	-5.732755814799165	7.393408388485789	58.62002525660505	-3.321769618800744	17.75238079124817	0.2060085836909871	-0.5245535714285714	1.167800453514739
9148.468017578125	-1.134756550860476	-5.3926928385318	7.353206106455771	57.88225801795281	-5.215705006411575	15.95800364927209	0.1995708154506438	-0.5066964285714285	1.179138321995465
9167.999267578125	-1.457842636975426	-5.409663997872671	7.008753493460975	55.77834931421812	-3.422043678864769	15.17856440149028	0.167381974248927	-0.4866071428571428	1.219954648526077
9187.530517578125	-1.330677701650213	-5.522046758337034	7.557566083388668	55.42890224456184	-4.161152393550731	14.81925431702818	0.1781115879828326	-0.46875	1.201814058956916
9207.061767578125	-1.107394646841598	-4.857612922218453	7.678240194363864	54.64589979193093	-1.709027607366131	12.98051186903458	0.1802575107296137	-0.4441964285714285	1.206349206349206
9226.593017578125	-1.173463977497945	-4.190285562245223	8.162724280406703	52.77976554868916	3.251851648735397	10.37559478009794	0.1974248927038627	-0.4441964285714285	1.217687074829932
9246.124267578125	-1.184025698258498	-4.604321359179032	8.198488193196734	51.42666122941744	2.919862353187697	10.71156481688381	0.184549356223176	-0.4151785714285714	1.238095238095238
9265.655517578125	-0.8308059743225498	-4.294722243287078	8.590801513887625	49.32738629800568	2.884816515956645	9.590793085980405	0.167381974248927	-0.3861607142857142	1.247165532879819
9285.186767578125	-1.346136421489731	-4.340073989320457	8.083029904075117	49.58110333431618	3.136812236284648	7.43507408820837	0.1716738197424893	-0.375	1.238095238095238
9304.718017578125	-1.642690911597954	-3.953270060580991	8.146642180203527	49.4961308498398	8.533689935469413	6.65998140109534	0.1630901287553648	-0.34375	1.26984126984127
9324.249267578125	-1.500034933006959	-3.954696620366901	8.166758606818391	50.22431762731343	8.581069399272621	7.753208032654262	0.1523605150214592	-0.3303571428571428	1.26984126984127
9343.780517578125	-1.823345262891614	-3.597928163532701	7.8447303707941	48.2396207350719	7.222278150651432	9.165950928158953	0.1630901287553648	-0.2901785714285714	1.281179138321995
9363.311767578125	-2.040624200042871	-2.81797759638341	8.144052657348309	45.56733850701245	3.298754429209459	9.871164981243838	0.1630901287553648	-0.2857142857142857	1.290249433106576
9382.843017578125	-1.623228086101149	-2.882757618128888	8.241175957053683	43.17602469457574	-4.374510823580086	8.101510206443862	0.1716738197424893	-0.2857142857142857	1.285714285714286
9402.374267578125	-1.44901623893355	-3.278439130539959	8.166930015803967	40.86653959851608	-6.074541587678095	9.870881963242786	0.1566523605150215	-0.2366071428571428	1.283446712018141
9421.905517578125	-0.9619345697933599	-3.131794795716208	8.438354938519655	37.72182888814233	-7.222549766488412	8.020906679744279	0.1416309012875537	-0.2321428571428571	1.290249433106576
9441.436767578125	-1.47945088866163	-2.732680238588132	8.149170498816027	36.69845946154442	-3.538036457973813	9.042730848774656	0.167381974248927	-0.2098214285714285	1.319727891156463
9460.968017578125	-1.626011941188118	-2.620103516951756	8.519561465750574	35.60951681091984	-3.238009593014127	7.579102806249258	0.1630901287553648	-0.1875	1.310657596371882
9480.499267578125	-1.691590401036943	-2.942680055585591	7.934550307775977	33.89188701733228	-2.860420878649311	7.540974323233859	0.1587982832618026	-0.1785714285714285	1.319727891156463
9500.030517578125	-1.584716579006545	-2.408395258452359	8.471657900654476	32.43755472123384	-0.3842805201488697	6.048277352863576	0.1630901287553648	-0.171875	1.346938775510204
9519.561767578125	-2.351437402790568	-2.239111888598357	8.613128034158848	32.82673906138783	-0.6959893308522401	7.138314818421172	0.1587982832618026	-0.1808035714285714	1.331065759637188
9539.093017578125	-1.844404016331334	-1.668424646705374	8.93019755150071	32.07507050576684	2.896196775870506	6.367935125809869	0.1502145922746781	-0.1473214285714286	1.342403628117914
9558.624267578125	-1.28138018879649	-2.310418521344359	8.750263777608229	31.44057250279015	0.7650310203183944	7.095981283737512	0.1545064377682404	-0.1339285714285714	1.340136054421769
9578.155517578125	-1.483925662985023	-2.177079935289342	8.596647931155369	30.43314565200982	1.534322120606276	7.787564296150681	0.1545064377682404	-0.1138392857142857	1.337868480725624
9597.686767578125	-1.965267862520389	-2.121761462788938	8.771684211222563	28.45685213325608	-2.015347973942393	8.862671817368575	0.1587982832618026	-0.1071428571428571	1.349206349206349
9617.218017578125	-1.553597076684501	-2.075373120142246	8.420932158246012	27.38589331729791	-2.059644031102563	7.762558910973532	0.1394849785407725	-0.08482142857142856	1.340136054421769
9636.749267578125	-1.743568696827559	-1.851251181718593	8.030339070511028	25.64187631555614	0.8531464513095876	7.698550666114574	0.1587982832618026	-0.07142857142857142	1.340136054421769
9656.280517578125	-1.587435787240986	-1.580085238087186	8.743578724098608	24.97462898978627	6.01896059583915	9.432108729233018	0.148068669527897	-0.05133928571428571	1.353741496598639
9675.811767578125	-2.136089790358573	-1.48368960714692	8.506938219530783	23.20972272337123	8.171710197892537	8.655858647452529	0.1416309012875537	-0.03348214285714286	1.349206349206349
9695.343017578125	-1.917683532487507	-0.9404191242710848	9.115292024260908	21.92824082623238	0.9584589605020707	9.062073752099483	0.1652360515021459	-0.06026785714285714	1.340136054421769
9714.874267578125	-2.069474960655165	-1.373244644332843	8.988312392047101	19.49169179981702	-2.368746118492042	7.248053671281981	0.1652360515021459	-0.03348214285714286	1.349206349206349
9734.405517578125	-1.695250987832458	-1.215370722444908	9.3210171505927	19.95453982095272	-6.990817584931319	9.102092497448224	0.1351931330472103	-0.02455357142857143	1.346938775510204
9753.936767578125	-1.505513753758672	-1.388985266502818	8.71464068198963	17.13375314323906	-6.331050764636581	7.240517944611867	0.1351931330472103	-0.01339285714285714	1.353741496598639
9773.468017578125	-1.233854444973712	-1.199782667671475	9.099730211656885	15.37348064914693	-6.007008327361053	6.122935379709787	0.1351931330472103	-0.008928571428571428	1.349206349206349
9792.999267578125	-1.735027148979633	-1.265478011338487	9.217000612248986	12.62258805125009	-9.2954324816526	5.021665078647284	0.148068669527897	0.006696428571428571	1.351473922902494
9812.530517578125	-1.601116718635995	-1.509241358066165	9.091263700334213	12.55065271258444	-7.918140793173175	3.567604534125867	0.1437768240343348	0.008928571428571428	1.349206349206349
9832.061767578125	-1.249658662660283	-1.633968059838044	8.639335653783457	14.94573612618603	-0.6070472215332487	5.340956417760636	0.1545064377682404	0.015625	1.342403628117914
9851.593017578125	-1.478099324172115	-1.278148299687572	9.034422213129858	14.89209753871957	5.929891798189662	5.634226486029905	0.1437768240343348	0.01785714285714286	1.356009070294785
9871.124267578125	-2.294804492389106	-0.8154357934599475	9.072285973604526	12.46512897348282	4.449242643003171	4.521356915629553	0.1695278969957082	0.02901785714285714	1.356009070294785
9890.655517578125	-2.147289857558976	-0.4936786165759255	9.626944939571104	11.15058483701801	-0.9709989476689617	4.549268448806978	0.1502145922746781	0.02008928571428571	1.356009070294785
9910.186767578125	-1.807092516436772	-0.7092018021083597	9.280680215105823	11.56120969647053	-7.493172615005149	4.622702682669391	0.1459227467811159	0.03794642857142857	1.36734693877551
9929.718017578125	-1.571399244928143	-0.6913567146214257	9.180740819344939	10.53462192333298	-10.41699336233251	3.911984674248258	0.1266094420600858	0.05133928571428571	1.374149659863946
9949.249267578125	-1.735914022987745	-1.134156011285274	9.305688013060259	8.435346991921209	-10.45203919956356	2.791212943344851	0.1566523605150215	0.05357142857142857	1.356009070294785
9968.780517578125	-1.694760075796076	-1.02345643964608	9.271925946954569	6.204374357830829	-10.28555218691286	-1.571618142053392	0.167381974248927	0.05580357142857142	1.35827664399093
9988.311767578125	-1.21408252671326	-1.149475336349029	9.163354712142292	10.46213533004208	-2.069195936861504	4.186769198343558	0.1545064377682404	0.05133928571428571	1.376417233560091
10007.84301757812	-1.86888303354145	-0.6075737959272118	9.337282945981743	9.820962295893644	-4.942553813742617	4.562391546645228	0.1566523605150215	0.05133928571428571	1.356009070294785
10027.37426757812	-2.062258714512914	-0.4339228674003255	9.287095941087296	8.801913725085877	-8.590717923369217	3.859067755893683	0.148068669527897	0.05803571428571428	1.356009070294785
10046.90551757812	-2.164601154995097	-0.6046166147126755	9.317258356652594	7.403261275302723	-10.08061729848483	2.766857010001694	0.1974248927038627	0.07366071428571429	1.337868480725624
10066.43676757812	-1.665149673437723	-0.7005202204373401	9.372110200915175	6.751643608817649	-13.33399561554532	2.786358439842598	0.184549356223176	0.05803571428571428	1.351473922902494
10085.96801757812	-1.512451169120538	-0.6010371044704109	9.408382218176222	9.773685823066154	-3.167392926054046	3.824269947880137	0.1695278969957082	0.08035714285714285	1.328798185941043
10105.49926757812	-1.308857203792574	-0.4616589027095491	9.457148950685914	9.318377004260233	0.7303351780859921	1.977625339383482	0.1716738197424893	0.08928571428571427	1.36734693877551
10125.03051757812	-1.564235524353571	-0.3378929982918179	9.484776925152998	10.72370448521513	2.962426674530602	3.422259894901443	0.1759656652360515	0.078125	1.353741496598639
10144.56176757812	-1.627561404205778	-0.5392799415134979	9.694915930781919	11.44231080151016	1.16325021452619	3.814336016043215	0.1802575107296137	0.08035714285714285	1.36734693877551
10164.09301757812	-1.690509545242388	-0.7002666217192934	8.846872891585733	10.1126882603858	-2.808304651547466	3.827459113881464	0.148068669527897	0.09151785714285714	1.351473922902494
10183.62426757812	-1.700594495465551	-0.225418297469587	8.834959750636674	8.750003479935472	-4.986849870902788	3.462278640250184	0.184549356223176	0.08928571428571427	1.356009070294785
10203.15551757812	-1.702511678685821	-0.3971162973545561	9.026678072663779	7.016118193997563	-7.198009201674596	2.370575837191661	0.1866952789699571	0.1026785714285714	1.36281179138322
10222.68676757812	-1.456222342776234	-0.3591751503096114	8.887540400072334	4.244649247960224	-5.742503982961566	1.940879175867957	0.1802575107296137	0.109375	1.353741496598639
10242.21801757812	-1.590591361729988	-0.02449812678674053	9.059136172998858	4.538416471301214	-1.037355534659555	1.899703035851757	0.1781115879828326	0.1183035714285714	1.349206349206349
10261.74926757812	-1.489802465922608	-0.1265161167549154	9.184328224913898	0.7563023279439095	-5.420893271500606	0.4290472094897116	0.1630901287553648	0.1004464285714286	1.344671201814059
10281.28051757812	-1.183884242039734	-0.2911914606099058	9.20475073458563	2.919973395691555	-6.038795760449741	2.996485267244947	0.184549356223176	0.1138392857142857	1.360544217687075
10300.81176757812	-0.7950581201734995	-0.7294231561720025	9.097648752043822	1.823491542737194	-5.014425533190816	1.525463007049962	0.1802575107296137	0.1205357142857143	1.351473922902494
10320.34301757812	-1.571025505311968	-0.1358048964620319	9.143366857727431	0.7734219914522952	-4.298680709992222	1.13759193757645	0.1974248927038627	0.1183035714285714	1.353741496598639
10339.87426757812	-1.394050005198815	-0.08706960095811289	8.792755621922312	0.04350687166260137	-1.412989206538952	0.7344244899302963	0.1974248927038627	0.1272321428571428	1.349206349206349
10359.40551757812	-1.631127123394363	-0.1554059004832281	9.031079686375048	-1.734749457095937	-0.7446238471435678	-0.7466732111021378	0.1909871244635193	0.1004464285714286	1.36281179138322
10378.93676757812	-0.9216250308839722	-0.263511022418433	9.509441863907421	-1.720535223594412	-0.7267750881138051	-0.3868551838065776	0.184549356223176	0.1004464285714286	1.353741496598639
10398.46801757812	-1.064022422064856	-0.5247133111328869	9.463466696281523	-2.078385666738497	0.7249950431277116	-0.4085298939818744	0.2145922746781116	0.09375	1.369614512471655
10417.99926757812	-0.9692740077693816	-0.4953577649728113	9.172298736121835	-4.190146489335739	-2.260970520389584	-2.579178836093611	0.1888412017167382	0.1183035714285714	1.340136054421769
10437.53051757812	-1.407840028157464	-0.3394569532537789	9.151349754521947	-2.781049407215948	-0.3910507050945934	-1.130847171740855	0.1931330472103004	0.109375	1.36281179138322
10457.06176757812	-1.424060368728323	-0.0766684872218077	9.752975648342451	-9.470412716986871	-8.259348945554583	-7.660771599416566	0.1974248927038627	0.1138392857142857	1.356009070294785
10476.59301757812	-1.304038993065127	-0.411202034311773	8.975327877941295	-2.781049407215948	-0.3910507050945934	-1.130847171740855	0.1888412017167382	0.08705357142857142	1.337868480725624
10496.12426757812	-1.341817121197512	-0.4209252631314593	9.691916201383831	-3.156883685026446	1.40504234826678	-1.516037018046506	0.1931330472103004	0.09821428571428571	1.344671201814059
10515.65551757812	-1.43110893709683	-0.117002041942163	9.437424321927915	-3.566957289853714	0.9567102786113859	-3.318316320525634	0.1974248927038627	0.1071428571428571	1.333333333333333
10535.18676757812	-1.410854187656563	-0.7030631752951517	9.452765704431787	-3.171097918527971	1.387193589237017	-1.875855045342066	0.1952789699570815	0.09598214285714285	1.335600907029479
10554.71801757812	-1.118558308958594	-0.7261881542841515	9.815014569328811	-3.537664651692638	-0.4741276869573287	-2.943709857890898	0.1888412017167382	0.1071428571428571	1.356009070294785
10574.24926757812	-1.858020300873815	-0.5268743424458074	9.271417842483556	-4.652130339313413	0.8945654624214526	-4.778247254216239	0.1995708154506438	0.08258928571428571	1.342403628117914
10593.78051757812	-1.462129448925941	-0.7833585034905387	9.478251015043094	-6.045284845615623	-3.890576561100255	-6.556820075186202	0.1888412017167382	0.1004464285714286	1.353741496598639
10613.31176757812	-1.780104352034069	-0.2246231989039018	9.643088264631425	-2.163671067747646	0.617902488949135	-2.567438057755236	0.1931330472103004	0.08928571428571427	1.340136054421769
10632.84301757812	-1.589585253858668	-0.5194576828149488	9.978933549132115	-2.779321064899895	-3.324121672351073	-1.820906355653624	0.2060085836909871	0.09821428571428571	1.342403628117914
10652.37426757812	-1.390191354959715	-0.1174112177635342	9.427298761277624	-2.163671067747646	0.617902488949135	-2.567438057755236	0.1824034334763948	0.08482142857142856	1.365079365079365
10671.90551757812	-1.291125701815023	-0.7143614702545772	9.724815079461495	-2.503537676225318	1.725349698070795	-2.225597631800178	0.1738197424892704	0.1026785714285714	1.349206349206349
10691.43676757812	-1.67579826340636	-0.2963733304972496	9.416561034513601	-1.792470562260064	0.6505166003656212	-1.840915728327994	0.1909871244635193	0.08928571428571427	1.328798185941043
10710.96801757812	-1.621387629789395	-0.5595436994596819	9.077538489143532	-1.795375992266924	-0.4538472021129996	-2.189642429119173	0.1909871244635193	0.07589285714285714	1.331065759637188
10730.49926757812	-1.424090671940445	-0.531213638735141	9.756005969554682	-2.224297602918633	0.9086791339797031	-4.010407275772271	0.1759656652360515	0.1004464285714286	1.349206349206349
10750.03051757812	-1.746417157538196	-0.467384313273103	9.335593304839978	-2.869240238231958	-1.602507061751791	-3.638482036305395	0.1802575107296137	0.08035714285714285	1.344671201814059
10769.56176757812	-1.539758486128736	-0.04520847574477325	10.09829759246542	-0.3900485113120221	1.77824429433161	-0.7450078736012112	0.203862660944206	0.09151785714285714	1.35827664399093
10789.09301757812	-1.471301262357152	-0.6519536540430952	9.375024194898829	-0.7177421451370031	0.3326409763761723	-0.7371057130981565	0.2081545064377682	0.08928571428571427	1.356009070294785
10808.62426757812	-1.575625532912134	-0.5499003103274444	9.603369617743992	-1.347606375790776	-3.627231943953799	-0.3503920382921049	0.1866952789699571	0.078125	1.35827664399093
10828.15551757812	-1.322416922339093	-0.5928364368372152	9.792712642072598	-0.4063040036623808	-0.8105037508050132	-1.798582193644334	0.1759656652360515	0.09151785714285714	1.353741496598639
10847.68676757812	-1.228985687663868	-0.7250838804970987	9.633262643937853	-4.65621285701108	-4.247233109792269	-6.165759839711364	0.1695278969957082	0.1049107142857143	1.335600907029479
10867.21801757812	-1.929008894193542	-0.08172001206816562	9.227420031599143	3.058561138206579	2.507451108259982	0.03609671168153177	0.1909871244635193	0.08705357142857142	1.36281179138322
10886.74926757812	-1.717853226105133	-0.08383156874904971	9.540424651329603	0.2348690304860564	2.0628541260761	-2.174204541946004	0.1738197424892704	0.08258928571428571	1.35827664399093
10906.28051757812	-1.89499640399203	-0.5265045814146253	9.907803664509064	-0.3723775931783892	-4.070048881151587	-1.765308214131189	0.1888412017167382	0.07366071428571429	1.356009070294785
10925.81176757812	-1.199611650360069	-0.5132564087489246	9.757083403353855	1.057608753614675	-1.440088185497832	0.3952652871430992	0.1909871244635193	0.1183035714285714	1.351473922902494
10945.34301757812	-1.134534244847192	-0.7058263747232454	9.371791831658021	1.053839152449787	-1.077916504348213	0.3915681783083053	0.1995708154506438	0.06919642857142856	1.353741496598639
10964.87426757812	-1.209397608890292	-0.7050777410828144	9.71527109311079	-2.424376051762671	-5.880255606071211	-2.147958346269506	0.2017167381974249	0.08705357142857142	1.344671201814059
10984.40551757812	-1.684008454906223	-0.5892205215115439	9.217172021234562	0.01594257581757883	-2.915222208226718	-0.3302411566172086	0.1909871244635193	0.1004464285714286	1.344671201814059
11003.93676757812	-1.414500674181946	-0.8545418619450494	9.817414356970167	-4.982178148520006	-8.625907395004187	-6.847916863121078	0.1759656652360515	0.09151785714285714	1.346938775510204
11023.46801757812	-1.593342893390694	-0.4891170761165982	9.33428933906937	0.3503112408143086	-0.727426768942278	0.01428049250570896	0.1888412017167382	0.1049107142857143	1.337868480725624
11042.99926757812	-1.411682475454572	-0.5010346903969696	9.53559448423275	0.2537170363104961	0.2519957203280034	-2.155718997772034	0.1802575107296137	0.1004464285714286	1.356009070294785
11062.53051757812	-1.585021590113049	-0.04475584470493012	9.522567174570231	1.371088153938131	-0.0123336265721571	0.02754509934448419	0.2060085836909871	0.07366071428571429	1.356009070294785
11082.06176757812	-1.527796756968132	0.05568200797372173	9.922532839670344	0.3114381414746222	-1.143144727181185	-1.061476480546178	0.1738197424892704	0.1004464285714286	1.365079365079365
11101.59301757812	-1.226005871805175	-0.4725884261304332	9.335281058068539	0.6788690457973167	-0.7483589346150801	-0.3386512599537302	0.1909871244635193	0.08705357142857142	1.337868480725624
11121.12426757812	-1.236135266739451	-0.7654164251103833	9.327812388230752	1.014101881952074	-0.02709897895888059	-0.3391592027871971	0.1888412017167382	0.1004464285714286	1.369614512471655
11140.65551757812	-1.628496804582147	-0.4988665471056938	8.768047805153458	-0.7528456433118014	-0.4452486630123546	-1.809165577315249	0.184549356223176	0.08705357142857142	1.340136054421769
11160.18676757812	-1.603692491666391	-0.2465893377095988	9.348841003373789	0.2954955656570434	1.772077481045532	-0.7312353239289692	0.184549356223176	0.09151785714285714	1.346938775510204
11179.71801757812	-1.997708584890965	-0.2527501868783631	8.954531958484269	0.003769601164887951	-0.3621716811496193	0.003697108834793953	0.1781115879828326	0.1004464285714286	1.328798185941043
11199.24926757812	-1.810569304974271	-0.1334094584654088	9.628359068855714	-0.07397659751448485	-1.193607597627435	-2.14781683726898	0.1866952789699571	0.09821428571428571	1.36281179138322
11218.78051757812	-1.188369117433835	-0.3921567128660658	9.653238273995715	0.2896847056433215	-0.4366501239117097	-1.428688725511326	0.184549356223176	0.1049107142857143	1.351473922902494
11238.31176757812	-1.464755727309874	-0.2782817356561942	9.740878853436387	-0.002905430006860929	-1.104363802478621	-0.3487267007911783	0.1909871244635193	0.1049107142857143	1.35827664399093
11257.84301757812	-1.185716576266062	-0.6043044503989556	9.387984157218488	0.6278229718049394	1.38897363422311	-1.080469967553614	0.2060085836909871	0.09598214285714285	1.346938775510204
11277.37426757812	-1.53306551667799	-0.2573966175604929	9.429000647390817	-3.258424578385954	-1.29079825104842	-4.728519501862991	0.203862660944206	0.08928571428571427	1.344671201814059
11296.90551757812	-1.670299240513233	-0.5388525631504233	8.866658745200874	-0.785907882637766	1.347760983705979	-2.187469148784779	0.2124463519313305	0.08705357142857142	1.340136054421769
11316.43676757812	-2.000623753897131	-0.4446402271074934	9.246048859100824	-4.800947705500408	-0.02611424920517644	-8.728851336797813	0.1866952789699571	0.08705357142857142	1.360544217687075
11335.96801757812	-1.830387688159978	-0.2746254160476932	9.569381060895726	0.01798383466641273	-0.3443229221198566	0.3635151361303542	0.203862660944206	0.1116071428571428	1.349206349206349
11355.49926757812	-1.411852173442457	-0.2182047105888078	9.552564283021239	0.2821455033135457	0.287693238387529	-1.436082943180914	0.1866952789699571	0.09821428571428571	1.356009070294785
11375.03051757812	-1.646414125031854	-0.4380813132951361	9.539371686858859	-2.857067263579267	-4.155557588828889	-3.972420301757397	0.1931330472103004	0.09151785714285714	1.344671201814059
11394.56176757812	-1.342481771650061	-0.4916256873340045	9.758381246638749	0.6742352734744016	1.080348230162779	0.002681223167860238	0.1824034334763948	0.1026785714285714	1.356009070294785
11414.09301757812	-1.34931417710543	-0.2188300905521781	9.421213628910305	-0.6884495069759263	-1.098196989192542	-0.3624992504634205	0.1909871244635193	0.09821428571428571	1.351473922902494
11433.62426757812	-1.289505490073551	-0.5527615107558302	9.562793905314248	-1.802051023438674	-1.196039323442001	-2.542066238745145	0.1909871244635193	0.09821428571428571	1.356009070294785
11453.15551757812	-1.413102685996038	-0.4909194781905448	9.677615538379277	-0.4063040036623808	-0.8105037508050132	-1.798582193644334	0.1888412017167382	0.1071428571428571	1.353741496598639
11472.68676757812	-1.356920324576988	-0.3399661502895837	9.161420212800808	1.366454381615216	1.816373538205702	0.3688775824660747	0.2081545064377682	0.1160714285714286	1.337868480725624
11492.21801757812	-1.919530008212826	-0.5565622756754477	9.299939596792807	1.679933781938672	3.244128097131378	0.001157394667459663	0.1931330472103004	0.09375	1.351473922902494
11511.74926757812	-1.467012306505915	-0.389370280975345	9.96653677304047	0.9705950102894721	1.385890227580071	-1.073583692717493	0.1995708154506438	0.1049107142857143	1.35827664399093
11531.28051757812	-1.433767538907027	-0.3998037387523439	9.703284502947588	-2.149769750778901	-4.868219005384443	-3.591435507120007	0.1824034334763948	0.1160714285714286	1.340136054421769
11550.81176757812	-1.434684716127262	-0.2179763851619597	9.795002224971093	0.2395028028089713	0.2341469612982407	-2.515537025067594	0.1909871244635193	0.08705357142857142	1.346938775510204
11570.34301757812	-1.369053771939618	-0.491359967331109	9.354356785798519	0.6939474504568685	-2.197045659213557	-0.3238628246145544	0.2081545064377682	0.1049107142857143	1.315192743764172
11589.87426757812	-1.288663060776551	-0.4416588239376891	9.478550975614246	-2.485866758091685	-4.122943477412403	-3.245897972330156	0.1931330472103004	0.09821428571428571	1.351473922902494
11609.40551757812	-1.611320861493506	-0.4990383065365802	9.091269822819928	0.3236111161273131	-3.696195254258284	-1.39541474599818	0.1909871244635193	0.09598214285714285	1.349206349206349
11628.93676757812	-1.299958119270464	-0.6435660753729521	9.587648661740252	0.6893136781339535	-0.3683384944356979	0.01746965850703605	0.1974248927038627	0.109375	1.349206349206349
11648.46801757812	-1.495517651728875	-0.1971660356039234	9.755846805540534	-0.3607558731509455	0.3474063287628959	-0.3704014109664752	0.2017167381974249	0.1116071428571428	1.35827664399093
11667.99926757812	-1.301473279876579	-0.6435509237668909	9.739164722351767	0.007539202329775903	-0.7243433622992387	0.007394217669587907	0.1759656652360515	0.06473214285714285	1.369614512471655
11687.53051757812	-1.416316887924003	-0.6929075381914671	8.978627567910534	-0.3390024373196448	-0.35908827450658	-0.003189166001327095	0.1909871244635193	0.09151785714285714	1.351473922902494
11707.06176757812	-1.304859200006571	-0.8960423170908436	9.057348572085662	-0.6733711023163745	-2.54688371379102	-0.3477108151242447	0.1866952789699571	0.08482142857142856	1.349206349206349
11726.59301757812	-1.598694481880352	-0.32744739861554	8.849040024769938	-1.705456818934861	-2.175461812712283	-0.3720667484674017	0.1995708154506438	0.09598214285714285	1.344671201814059
11746.12426757812	-1.394159055533595	-0.2385836619699166	9.824068818665646	-1.02454651428871	-0.3529214612205015	-0.01696171567356919	0.2060085836909871	0.09821428571428571	1.349206349206349
11765.65551757812	-1.393484304010339	-0.01636818726292692	9.756593666339983	-2.076657324422443	-2.208075924128769	-1.098589077894643	0.1802575107296137	0.1116071428571428	1.337868480725624
11785.18676757812	-1.288267098804819	-0.7648951067897296	9.438954778441103	-0.3503112408143086	0.727426768942278	-0.01428049250570896	0.1995708154506438	0.1026785714285714	1.324263038548753
11804.71801757812	-1.206941028494243	-0.9273245291089971	9.469613053505988	-0.05018190283435026	0.6707970852099504	-1.086848299556268	0.2060085836909871	0.1071428571428571	1.349206349206349
11824.24926757812	-1.675473008929581	-0.165063451728886	9.384035586835662	0.2395028028089713	0.2341469612982407	-2.515537025067594	0.1952789699570815	0.1071428571428571	1.349206349206349
11843.78051757812	-1.676101295527583	-0.8014208052265425	9.446864246635904	-4.584277518345429	-5.624524798271695	-4.711699295189947	0.1759656652360515	0.09821428571428571	1.349206349206349
11863.31176757812	-1.590468128667358	-0.3982367328547406	9.046812866735788	-1.05297498129176	-0.388618979280027	-0.7365977702646896	0.1824034334763948	0.1049107142857143	1.349206349206349
11882.84301757812	-1.37101337965686	-0.08729996721353242	9.550317557522746	-2.730003333223571	-2.528383273932784	-0.3890284641409709	0.167381974248927	0.1138392857142857	1.3718820861678
11902.37426757812	-1.396088360038715	-0.390079520440017	10.01699926917764	0.6663831546118458	-3.699278660901323	-1.388528471162059	0.2060085836909871	0.09598214285714285	1.344671201814059
11921.90551757812	-0.9434090824293451	-0.4956164142262117	9.647030691914106	-1.735926544786744	-4.782058616878669	-1.785459095806085	0.1824034334763948	0.1004464285714286	1.351473922902494
11941.43676757812	-1.098309620160751	-0.2920472068286956	9.830962016075128	-0.3682950754807214	1.071749691062134	-0.3777956286360631	0.1824034334763948	0.09151785714285714	1.353741496598639
11960.96801757812	-1.38174681861944	-0.5518390974703713	9.603253290515417	-0.7139725439721151	-0.02953070477344698	-0.7334086042633625	0.2103004291845494	0.09598214285714285	1.331065759637188
11980.49926757812	-1.612872385954167	-0.438416730685913	9.24642226888612	-1.020776913123822	-0.7150931423701209	-0.01326460683877524	0.2017167381974249	0.08482142857142856	1.35827664399093
12000.06103515625	-1.544950477701217	-0.3178838285563212	9.597088586448239	0.003769601164887951	-0.3621716811496193	0.003697108834793953	0.1952789699570815	0.09821428571428571	1.344671201814059
12019.56176757812	-1.701568197452887	-0.1142974493386025	9.952738112635645	1.392841589769432	-0.718828229841633	0.3947573443096323	0.1974248927038627	0.08482142857142856	1.349206349206349
12039.09301757812	-1.063584035596153	-0.4136065838864628	9.419628049411259	-1.173363880475707	-1.273601172847131	-3.967565798255144	0.2145922746781116	0.09151785714285714	1.356009070294785
12058.62426757812	-1.266184055566506	-0.6944088665150421	9.271466781140413	0.3494470696562816	0.7391087146859622	0.3593100844620934	0.1888412017167382	0.08705357142857142	1.340136054421769
12078.15551757812	-1.553792996227365	-0.9036539892296457	9.460932275797738	-0.7244171763087518	-0.4095511449528291	-1.089529522724129	0.1995708154506438	0.09821428571428571	1.356009070294785
12097.68676757812	-1.168853766369352	-0.7559882300130744	9.742519494078005	2.327468930726078	1.355707841978151	-1.405856620668569	0.2060085836909871	0.08482142857142856	1.346938775510204
12117.21801757812	-2.001789417456769	-0.3537194795628061	9.362615215064617	0.0443710428206284	-2.879524690167192	0.3893948979739119	0.1909871244635193	0.1138392857142857	1.346938775510204
12136.74926757812	-1.270044684790888	-0.3206328864854245	9.657529703578554	-2.529373629754286	-2.709954270873451	-3.980322462260452	0.2017167381974249	0.09598214285714285	1.344671201814059
12156.28051757812	-1.575005327170697	-0.2367751992535456	9.541349043600345	-2.158173124266704	-2.677340159456965	-3.253800132833211	0.1888412017167382	0.08482142857142856	1.349206349206349
12175.81176757812	-1.719675459260754	-0.2454295080336551	9.722647966891719	2.066212692085806	1.828055483949387	0.742468159433877	0.1931330472103004	0.109375	1.356009070294785
12195.34301757812	-1.471592173193526	-0.6721527651367518	9.40411527853624	0.32478820381812	0.3412395154768173	-0.3566288612942332	0.1824034334763948	0.08482142857142856	1.353741496598639
12214.87426757812	-1.331792777398594	-0.7947628803068224	9.70988998475735	0.6588439522820699	-2.974935298602084	-1.395922688831647	0.1759656652360515	0.09375	1.3718820861678
12234.40551757812	-1.490329741813536	-0.2578239753091374	9.237055814006705	0.3474058108074477	-1.831790571420899	-0.3344462082854694	0.1952789699570815	0.09821428571428571	1.349206349206349
12253.93676757812	-1.317200729425774	-0.5322825381602878	9.271093350740687	3.084948346360795	-0.02775065978735347	0.06197647352508943	0.203862660944206	0.1071428571428571	1.346938775510204
12273.46801757812	-1.836696858152701	-0.5371885869740287	9.179889896902772	0.01130880349466385	-1.086515043448858	0.01109132650438186	0.184549356223176	0.09821428571428571	1.349206349206349
12292.99926757812	-1.31966741089253	-0.4615508006385495	9.517761497416235	-1.004834337306244	-3.630315350596839	-0.3435057634559838	0.184549356223176	0.1071428571428571	1.349206349206349
12312.53051757812	-1.246456582017167	-0.9067273533717477	9.33953575273709	0.3607558731509455	-0.3474063287628959	0.3704014109664752	0.203862660944206	0.08928571428571427	1.344671201814059
12332.06176757812	-0.8208826000018462	-0.4564376386464463	9.639280408347881	1.746058260590601	-0.3418911963052902	0.7577645376065196	0.2060085836909871	0.09821428571428571	1.360544217687075
12351.59301757812	-1.572645717053441	-0.2974048559607788	9.305388031874678	0.6959887093057022	0.3738536268933035	0.3698934681330084	0.1866952789699571	0.1183035714285714	1.328798185941043
12371.12426757812	-1.511410758837672	-0.65155255907829	9.304341189889648	-0.04931773167632323	-0.7957383984182897	-1.431877891512653	0.1824034334763948	0.1004464285714286	1.35827664399093
12390.65551757812	-1.625114924880438	-0.4079912749936199	9.45026799824786	-1.059650012463509	-1.130811100609028	-1.089021579890662	0.1909871244635193	0.1205357142857143	1.344671201814059
12410.18676757812	-1.492095408973196	-0.17699823782946	9.413622529972658	0.6893136781339535	-0.3683384944356979	0.01746965850703605	0.1995708154506438	0.09598214285714285	1.351473922902494
12429.71801757812	-1.795641901453965	-0.09315469209657148	9.156026880090369	0.6742352734744016	1.080348230162779	0.002681223167860238	0.2060085836909871	0.07589285714285714	1.346938775510204
12449.24926757812	-1.318750233672295	-0.1383276491784286	9.42604377539273	-1.808726054610422	-1.938231444771003	-2.894490048371117	0.2017167381974249	0.1116071428571428	1.35827664399093
12468.78051757812	-1.247783862708124	-0.7147948886456462	9.472263821832778	0.7177421451370031	-0.3326409763761723	0.7371057130981565	0.1909871244635193	0.09375	1.349206349206349
12488.31176757812	-1.48401653139253	-0.3386951882214283	9.626142935171362	-1.037896576632208	-1.837305703878505	-0.7218093349255138	0.2081545064377682	0.1004464285714286	1.331065759637188
12507.84301757812	-1.562902183020189	-0.5399265337253538	9.351442791814865	0.2632974974891059	2.098551644135625	-1.454568487354884	0.1952789699570815	0.08928571428571427	1.333333333333333
12527.37426757812	-1.562241572995923	-0.6308422307346873	9.285381789388243	0.32478820381812	0.3412395154768173	-0.3566288612942332	0.2060085836909871	0.1138392857142857	1.346938775510204
12546.90551757812	-1.651622278317467	-0.347120140853189	9.039778852154871	-0.7566152444766894	-0.08307698186273527	-1.812862686150043	0.2210300429184549	0.1049107142857143	1.346938775510204
12566.43676757812	-1.542863596493061	-0.4290158084795139	9.388400465632644	3.416411581350664	1.055680977018465	0.05777142185682862	0.1931330472103004	0.09598214285714285	1.351473922902494
12585.96801757812	-1.850909105866921	-0.2542181816686035	9.580706505059482	-2.11553042376213	-2.623793882367676	-2.17434605094653	0.1931330472103004	0.1160714285714286	1.35827664399093
12605.49926757812	-1.298828819565373	-0.1688298936225281	9.474718691231136	-2.112624993755269	-1.519430079889056	-1.825619350155352	0.2060085836909871	0.09151785714285714	1.346938775510204
12625.03051757812	-1.236797896977858	-0.5027835361817367	9.394075412071521	0.327693633824981	1.445603317955438	-0.007902160503054765	0.1888412017167382	0.09151785714285714	1.337868480725624
12644.56176757812	-0.7896257231181812	-0.6890734397385153	9.574817209777306	0.3598917019929185	1.119129154865344	0.7154310029228597	0.1824034334763948	0.09821428571428571	1.356009070294785
12664.09301757812	-1.712511779915041	-0.5687334680594356	9.006280032320475	0.2586637251661909	3.927258808913485	-1.113236004233293	0.1866952789699571	0.08928571428571427	1.351473922902494
12683.62426757812	-1.694224719048582	-0.5689163386681002	9.218390272205168	0.003769601164887951	-0.3621716811496193	0.003697108834793953	0.1888412017167382	0.109375	1.36281179138322
12703.15551757812	-1.591730762505787	-0.6507493590416088	9.173076250578717	-0.7206475751438639	-0.7717228261024484	-1.085832413889335	0.203862660944206	0.09821428571428571	1.351473922902494
12722.68676757812	-1.412593592032383	-0.3293084075140197	9.626706142013807	-0.6646548122957918	0.7662076936448428	0.6984692872492905	0.2103004291845494	0.109375	1.349206349206349
12742.21801757812	-1.517879484518713	0.196996976663369	9.951213757993743	-0.6959887093057022	-0.3738536268933035	-0.3698934681330084	0.1909871244635193	0.09598214285714285	1.351473922902494
12761.74926757812	-1.26983054209189	-0.3408370481144347	9.636115433678793	-1.091848080631446	-0.8043369375189348	-1.812354743316576	0.1909871244635193	0.1116071428571428	1.351473922902494
12781.28051757812	-1.21147438902774	-0.4424307106551773	9.92294910685564	0.2641616686471329	0.6320161605073855	-1.799598079311268	0.203862660944206	0.09375	1.349206349206349
12800.81176757812	-1.509142058356782	-0.560666155174008	9.077471141800672	1.081403448294809	0.4243164973395526	1.45623382485581	0.203862660944206	0.1183035714285714	1.35827664399093
12820.34301757812	-1.450818228718896	-0.4400372722582657	9.3675371576039	0.6780048746392896	0.7181765490131601	0.006378332002654191	0.184549356223176	0.09375	1.360544217687075
12839.87426757812	-1.570722473190745	-0.6408584318337492	9.113063645605129	-0.6780048746392896	-0.7181765490131601	-0.006378332002654191	0.1952789699570815	0.109375	1.36281179138322
12859.40551757812	-1.524677546333676	-0.4291976689811078	9.610611776224772	-1.073864245965034	-1.148659859638791	-1.448839607186222	0.1909871244635193	0.1138392857142857	1.351473922902494
12878.93676757812	-1.464735525168459	0.02474836535269469	9.7388586392949	-0.6721940146255677	1.490551055944082	0.6910750695797026	0.2103004291845494	0.1227678571428571	1.351473922902494
12898.46801757812	-1.508103627059198	-0.2677472465576909	9.994036175307551	-0.7319563786385278	0.3147922173464096	-1.096923740393717	0.1781115879828326	0.09821428571428571	1.342403628117914
12917.99926757812	-1.195837890343772	-0.5739002069551483	9.379707401724106	-2.459166633404689	-1.154174992096397	-1.836202733826267	0.203862660944206	0.1004464285714286	1.349206349206349
12937.53051757812	-1.327410932925709	-0.5220794260242784	9.271705537468849	-0.6713298434675408	0.02401557231584131	0.3460454776233181	0.2060085836909871	0.1071428571428571	1.337868480725624
