Time Stamp	Accelerometer X	Accelerometer Y	Accelerometer Z	Gyroscope X	Gyroscope Y	Gyroscope Z	Magnetometer X	Magnetometer Y	Magnetometer Z
1143.585205078125	-0.1101029067672102	-9.852266606521397	-1.663236441092993	-97.22494945533015	32.83661960827376	-23.88186606118878	-0.5790554414784395	1.236252545824847	0.3285123966942149
1147.491455078125	-0.2662831880041734	-9.59943156412135	-1.790560399860888	-13.75065829626624	-5.8453640988974	-1.745764576274487	0.2299794661190965	-0.4256619144602851	0.6549586776859504
1151.397705078125	-0.08218267390407727	-9.669905731228987	-1.927244203197426	-16.23547835345583	-11.49954773050095	-6.886947263113517	0.2299794661190965	-0.4256619144602851	0.6549586776859504
1155.303955078125	-0.3457262028593713	-9.728451472257865	-1.809126571354291	-32.56404716439005	-4.596370258570682	-4.464848778387062	0.2299794661190965	-0.4256619144602851	0.6549586776859504
1159.210205078125	-0.2659535456661102	-9.819324979765375	-1.801548477796328	-53.96596407567669	6.076781477795175	-1.954317070012727	0.2299794661190965	-0.4256619144602851	0.6549586776859504
1163.116455078125	-0.2436813951599357	-9.65879031776838	-1.877286828002144	-70.2837294285453	14.44523284659721	-0.6125643918471149	0.2176591375770021	-0.4399185336048879	0.6673553719008265
1167.022705078125	-0.1990424599835495	-9.471023728728014	-1.698584667215019	2.910130441355797	-3.397985644912987	-1.157971671811593	0.2176591375770021	-0.4399185336048879	0.6673553719008265
1170.928955078125	-0.3085136837058108	-9.779752757731545	-1.716210543139641	8.349373163673951	-6.063528782652548	-1.603983034061805	0.2176591375770021	-0.4399185336048879	0.6673553719008265
1174.835205078125	-0.2651270739668513	-9.739057753915949	-1.829097534438292	7.254856614800207	-4.55047471531094	-0.8479803206003815	0.1971252566735113	-0.4215885947046843	0.6652892561983471
1178.741455078125	-0.2601493169384902	-9.550781612476779	-1.661689435383661	6.163990799833865	-3.044758623123209	-0.4570509978792058	0.1971252566735113	-0.4215885947046843	0.6652892561983471
1182.647705078125	-0.2909582576588612	-9.630743169976366	-1.634724744704627	3.631004669479207	-1.538931421642645	-0.7816263682104886	0.1971252566735113	-0.4215885947046843	0.6652892561983471
1186.553955078125	-0.1675584622263792	-9.63084390278653	-1.748051259120696	1.819115882732856	-0.4049817303918497	-0.7521679834305172	0.1971252566735113	-0.4215885947046843	0.6652892561983471
1190.460205078125	-0.1932153613329538	-9.779139633497655	-1.892821288901542	0.724487776116662	2.223538203699815	0.01499050427583152	0.1971252566735113	-0.4215885947046843	0.6652892561983471
1194.366455078125	-0.3504476590267981	-9.666644743085332	-1.985078032440066	-0.7250083789147586	2.98196917446711	0.03706977553381869	0.1971252566735113	-0.4215885947046843	0.6652892561983471
1198.272705078125	-0.3044120813128282	-9.568426572957815	-1.852930622905726	-1.442454988615664	3.346508709543	-0.6820373703176834	0.1971252566735113	-0.4215885947046843	0.6652892561983471
1202.178955078125	-0.6668009946050641	-9.725598988255637	-1.773300179831199	-1.808461168323847	3.357543449597027	-0.3133034574704263	0.2361396303901437	-0.4195519348268839	0.6611570247933884
1206.085205078125	-0.5238789597497242	-9.836054196985746	-1.87070134167586	-0.7213576450073561	2.974631199313231	-0.3280036152064292	0.2361396303901437	-0.4195519348268839	0.6611570247933884
1209.991455078125	-0.4065026288582152	-9.818102516664156	-1.783245704726162	-1.79732303703089	1.476419746218631	-1.427116586766045	0.2361396303901437	-0.4195519348268839	0.6611570247933884
1213.897705078125	-0.4344567722967949	-9.697141023042631	-1.851440923440173	-0.7175581674433545	1.480005401825945	-0.7079513716065771	0.2073921971252567	-0.4175152749490835	0.6466942148760331
1217.803955078125	-0.8931769556347154	-9.805460548988558	-1.560768145509491	0.007227095986505457	0.7289679608589457	-0.7227095986505457	0.2073921971252567	-0.4175152749490835	0.6466942148760331
1221.710205078125	-0.7165620039099684	-9.865021714597557	-1.781266536334393	0.7282872536806635	0.7289124062125286	-0.3649572521243164	0.2073921971252567	-0.4175152749490835	0.6466942148760331
1225.616455078125	-0.4536943206095072	-9.776694496997072	-1.876855979683096	0.3696569136155852	-0.01837271520790595	-0.733807303587505	0.2073921971252567	-0.4175152749490835	0.6466942148760331
1229.522705078125	-0.6858579493880719	-9.715094070302143	-1.804735020397605	0.3696569136155852	-0.01837271520790595	-0.733807303587505	0.2320328542094456	-0.4399185336048879	0.6652892561983471
1233.428955078125	-0.7780292593062844	-9.914896127175698	-1.732358023123858	0.01106375946465669	-1.137479792211692	-1.106375946465669	0.2320328542094456	-0.4399185336048879	0.6652892561983471
1237.335205078125	-0.7340567063683274	-9.844011668392424	-1.864776454389093	-0.3512173145078241	-1.877426938478248	-1.110152607188609	0.2320328542094456	-0.4399185336048879	0.6652892561983471
1241.241455078125	-0.4914478317341475	-9.785568132260709	-1.951738942195087	-0.003539176164953228	-1.108127891596177	0.3539176164953228	0.2238193018480493	-0.4480651731160896	0.6466942148760331
1245.147705078125	-0.4447214246227055	-9.727126593961342	-1.842619179243153	0.0001859295707487508	-1.859109777916759	-0.01859295707487508	0.2238193018480493	-0.4480651731160896	0.6466942148760331
1249.053955078125	-0.6379501924622313	-9.742937228896121	-2.06832691792563	-0.7208370422092596	-2.230876178853694	-0.3800638950160794	0.2238193018480493	-0.4480651731160896	0.6466942148760331
1252.960205078125	-0.4427088714008459	-9.806475868419607	-1.909704286638471	-0.7281013241099148	-2.588022184129287	0.3463642950494413	0.2238193018480493	-0.4480651731160896	0.6466942148760331
1256.866455078125	-0.546631378638388	-9.886744145759744	-1.778954045387071	0.0002231154848985009	-2.230931733500111	-0.02231154848985009	0.2238193018480493	-0.4480651731160896	0.6466942148760331
1260.772705078125	-0.3981503752638914	-9.705401954668657	-2.06165415787029	-0.7244134042883625	-2.967182114866518	-0.02242768710578156	0.2238193018480493	-0.4480651731160896	0.6466942148760331
1264.678955078125	-0.2271929693125065	-9.640125726744376	-1.760234356249785	-0.362095144401732	-2.599056924183315	-0.02236961779781583	0.2238193018480493	-0.4480651731160896	0.6466942148760331
1268.585205078125	-0.2454542084995675	-9.739363527414861	-1.818193050014419	-0.003427618422503978	-2.223593758346232	0.3427618422503977	0.2073921971252567	-0.4073319755600814	0.6425619834710744
1272.491455078125	-0.2435615252188218	-9.738751559820754	-1.88128249270594	-0.3621695162300315	-1.855413013016611	-0.0149324349678658	0.2073921971252567	-0.4073319755600814	0.6425619834710744
1276.397705078125	-0.4222395017195816	-9.706524105555996	-1.925349942680612	-0.7208370422092596	-2.230876178853694	-0.3800638950160794	0.2073921971252567	-0.4073319755600814	0.6425619834710744
1280.303955078125	-0.509147574881254	-9.697957715878273	-1.695080837291539	-0.7208742281234094	-1.859054223270342	-0.3763453036011044	0.2443531827515401	-0.4297352342158859	0.6528925619834711
1284.210205078125	-0.3107367979426533	-9.770471564668126	-1.642106735244891	-0.358518782322629	-1.86275098817049	-0.3800058257081136	0.2443531827515401	-0.4297352342158859	0.6528925619834711
1288.116455078125	-0.08888198409988322	-9.62207184152563	-1.703933863337226	-0.3585559682367788	-1.490929032587138	-0.3762872342931387	0.2443531827515401	-0.4297352342158859	0.6528925619834711
1292.022705078125	-0.3043829024455834	-9.798417138457406	-1.853903251813887	-0.3549052343293763	-1.498267007741017	-0.7413606250333865	0.2443531827515401	-0.4297352342158859	0.6528925619834711
1295.928955078125	-0.2931372092858197	-9.861447697669082	-1.562093023806012	-0.7135727603086044	-1.8737301735781	-1.1064920850816	0.215605749486653	-0.4338085539714867	0.6570247933884298
1299.835205078125	-0.2117873160252705	-9.951811232181504	-1.607089465824317	0.3587047118933778	0.003641210253730994	0.3614128686332386	0.215605749486653	-0.4338085539714867	0.6570247933884298
1303.741455078125	-0.3681623859165437	-9.569039171446349	-1.727920469448543	0	0	0	0.215605749486653	-0.4338085539714867	0.6570247933884298
1307.647705078125	-0.06188916604431562	-9.733344163687663	-1.60369446518948	0.007264281900655208	0.3571460052755938	-0.7264281900655207	0.215605749486653	-0.4358452138492871	0.6425619834710744
1311.553955078125	-0.2634299679584493	-9.818509022973231	-1.885667734718357	-0.7247480775157102	0.3792154853836477	0.01103963562899358	0.215605749486653	-0.4358452138492871	0.6425619834710744
1315.460205078125	-0.5298574730627796	-9.847987249623632	-1.671417564574016	0.007189910072355707	1.100789916442297	-0.7189910072355706	0.215605749486653	-0.4358452138492871	0.6425619834710744
1319.366455078125	-0.1309981301866423	-10.01902272876035	-1.966728993778592	-0.3550911639001251	0.3608427701757418	-0.7227676679585114	0.215605749486653	-0.4358452138492871	0.6425619834710744
1323.272705078125	-0.1810375216574228	-9.621868798669233	-1.632082611419242	0.003501990250803478	1.479949847179528	-0.3501990250803478	0.215605749486653	-0.4358452138492871	0.6425619834710744
1327.178955078125	-0.2472711844490833	-9.579951016305204	-1.757627185030558	-0.3550911639001251	0.3608427701757418	-0.7227676679585114	0.215605749486653	-0.4358452138492871	0.6425619834710744
1331.085205078125	-0.3863487063904085	-9.718252748399566	-1.78837645365305	0.007189910072355707	1.100789916442297	-0.7189910072355706	0.215605749486653	-0.4358452138492871	0.6425619834710744
1334.991455078125	-0.4857193103377573	-9.677049243675874	-1.809356322074759	-0.3514404299927226	0.3535047950218628	-1.087841058698759	0.2053388090349076	-0.4093686354378818	0.6384297520661157
1338.897705078125	-0.4019010426319023	-9.799948003784314	-1.603298578936591	0.007227095986505457	0.7289679608589457	-0.7227095986505457	0.2053388090349076	-0.4093686354378818	0.6384297520661157
1342.803955078125	-0.3698452968003401	-9.709583312632111	-1.671823439988665	0.3658946219657335	1.104431126696028	-0.3575781386023321	0.2053388090349076	-0.4093686354378818	0.6384297520661157
1346.710205078125	-0.5197276744206222	-9.728045281396001	-1.675744185979265	0.003576362079102979	0.7363059360128246	-0.3576362079102978	0.2197125256673511	-0.4093686354378818	0.6528925619834711
1350.616455078125	-0.4182995660234962	-9.878583526347597	-1.723347799216797	-7.437182829950031e-05	0.7436439111667036	0.007437182829950031	0.2197125256673511	-0.4093686354378818	0.6528925619834711
1354.522705078125	-0.6444988766136113	-9.585054636771735	-1.850037446212964	-0.358667525979228	-0.3754631658370828	-0.3651314600482136	0.2197125256673511	-0.4093686354378818	0.6528925619834711
1358.428955078125	-0.5675652443414686	-9.676846095670408	-1.747825188617718	-1.076002577937684	-1.126389497511249	-1.095394380144641	0.2197125256673511	-0.4093686354378818	0.6528925619834711
1362.335205078125	-0.4560223210448243	-9.697447217137826	-1.799255965172525	0.003725105735701979	-0.7509818863205826	-0.3725105735701979	0.2217659137577002	-0.4378818737270875	0.6673553719008265
1366.241455078125	-0.3573283513703422	-9.91886950027641	-1.755721620988596	-0.3623554458007803	0.003696764900147988	0.003660522107009284	0.2217659137577002	-0.4378818737270875	0.6673553719008265
1370.147705078125	-0.4265209090242351	-9.797908427251169	-1.782636365858833	-0.717335051958456	-0.7509263316741656	-0.7302629200964272	0.2217659137577002	-0.4378818737270875	0.6673553719008265
1374.053955078125	-0.4601736063739265	-9.805456132727571	-1.99421312086912	-0.003576362079102979	-0.7363059360128246	0.3576362079102978	0.2114989733059548	-0.4215885947046843	0.6632231404958678
1377.960205078125	-0.4574639148103256	-9.577913332455338	-1.751202839655815	0.003762291649851729	-1.122803841903934	-0.3762291649851729	0.2114989733059548	-0.4215885947046843	0.6632231404958678
1381.866455078125	-0.5281603670543776	-9.927438518680916	-1.727987764854081	-0.7209485999517089	-1.115410312103638	-0.3689081207711543	0.2114989733059548	-0.4215885947046843	0.6632231404958678
1385.772705078125	-0.7364596255168406	-9.714788612250445	-1.784679149438648	-0.7172234942160068	-1.866392198424221	-0.7414186943413522	0.2114989733059548	-0.4215885947046843	0.6632231404958678
1389.678955078125	-0.4075538566970627	-9.748442413665384	-1.748204776764579	-1.079541754102638	-2.234517389107425	-0.7414767636493179	0.2114989733059548	-0.4215885947046843	0.6632231404958678
1393.585205078125	-0.3318717612443131	-9.777305202802328	-1.937607958522897	0.003762291649851729	-1.122803841903934	-0.3762291649851729	0.2114989733059548	-0.4215885947046843	0.6632231404958678
1397.491455078125	-0.6022683809119738	-9.404733443161538	-1.924387302934211	-0.7208742281234094	-1.859054223270342	-0.3763453036011044	0.2114989733059548	-0.4215885947046843	0.6632231404958678
1401.397705078125	-0.4089654829772855	-9.64889883949599	-1.701150567423819	-0.717186308301857	-2.238214154007573	-0.7451372857563272	0.2135523613963039	-0.4236252545824847	0.6570247933884298
1405.303955078125	-0.6070466175778229	-9.796278406350163	-1.765112747405907	-0.3657830642232843	-2.219896993446084	0.346422364357407	0.2135523613963039	-0.4236252545824847	0.6570247933884298
1409.210205078125	-0.4500390760235671	-9.758845967914286	-1.665364132547765	-0.3622067021441813	-1.483591057433259	-0.01121384355289078	0.2135523613963039	-0.4236252545824847	0.6570247933884298
1413.116455078125	-0.447349888528841	-9.65797646395766	-1.755003715705302	0.3623182598866305	0.3681251906832038	5.806930796573191e-05	0.2279260780287475	-0.415478615071283	0.6363636363636364
1417.022705078125	-0.4690502909606236	-9.568326260743936	-1.698323634645883	7.437182829950031e-05	-0.7436439111667036	-0.007437182829950031	0.2279260780287475	-0.415478615071283	0.6363636363636364
1420.928955078125	-0.4701929984913737	-9.858695736178879	-1.660233383620876	-0.3585559682367788	-1.490929032587138	-0.3762872342931387	0.2279260780287475	-0.415478615071283	0.6363636363636364
1424.835205078125	-0.3771510542640183	-9.818612174212033	-1.761631524532724	-1.079541754102638	-2.234517389107425	-0.7414767636493179	0.2279260780287475	-0.415478615071283	0.6363636363636364
1428.741455078125	-0.6869848845581492	-9.805458446007137	-1.767170514728362	-0.365820250137434	-1.848075037862732	0.3501409557723821	0.2299794661190965	-0.4521384928716904	0.6611570247933884
1432.647705078125	-0.3167208315819441	-9.919073068878161	-1.775972280601863	-0.7208742281234094	-1.859054223270342	-0.3763453036011044	0.2299794661190965	-0.4521384928716904	0.6611570247933884
1436.553955078125	-0.2793419140232848	-9.660320552200863	-1.688602865890509	-0.7208370422092596	-2.230876178853694	-0.3800638950160794	0.2299794661190965	-0.4521384928716904	0.6611570247933884
1440.460205078125	0.0517570015480572	-9.683265236166127	-1.72523338493524	0.0001487436565990006	-1.487287822333407	-0.01487436565990006	0.2176591375770021	-0.4195519348268839	0.6652892561983471
1444.366455078125	-0.2818505079883064	-9.671131664249554	-1.604983067056454	0.0001115577424492505	-1.115465866750055	-0.01115577424492505	0.2176591375770021	-0.4195519348268839	0.6652892561983471
1448.272705078125	-0.3052842928580385	-9.828708588024099	-1.82385690473205	0.003725105735701979	-0.7509818863205826	-0.3725105735701979	0.2176591375770021	-0.4195519348268839	0.6652892561983471
1452.178955078125	-0.1801960662155246	-9.551596728076353	-1.660131126149181	-0.717335051958456	-0.7509263316741656	-0.7302629200964272	0.2176591375770021	-0.4195519348268839	0.6652892561983471
1456.085205078125	-0.2230022530817222	-9.698770728496424	-1.899924897275929	0.365968993794033	0.3607872155293249	-0.3650153214322821	0.2176591375770021	-0.4195519348268839	0.6652892561983471
1459.991455078125	-0.3197443931229353	-9.726717353776415	-2.00852022923549	0.3622067021441813	1.483591057433259	0.01121384355289078	0.2176591375770021	-0.4195519348268839	0.6652892561983471
1463.897705078125	-0.3685543290792648	-9.939165899735631	-1.71485569735784	0.01095220172220744	-0.02201392546163695	-1.095220172220744	0.2176591375770021	-0.4195519348268839	0.6652892561983471
1467.803955078125	-0.6007384619267044	-10.0042387693563	-1.975384602443191	0.003576362079102979	0.7363059360128246	-0.3576362079102978	0.2176591375770021	-0.4175152749490835	0.6384297520661157
1471.710205078125	-0.3277961832464408	-9.829320765916348	-1.740127225118641	0.362243888058331	1.111769101849907	0.007495252137915762	0.2176591375770021	-0.4175152749490835	0.6384297520661157
1475.616455078125	-0.5328660508611315	-9.665626689778433	-1.904464971295618	0.007115538244056207	1.844433827609001	-0.7115538244056206	0.2176591375770021	-0.4175152749490835	0.6384297520661157
1479.522705078125	-0.4054356286586949	-9.687757519932978	-1.818812378043507	0.3658946219657335	1.104431126696028	-0.3575781386023321	0.2320328542094456	-0.4460285132382892	0.6363636363636364
1483.428955078125	-0.3950802852589152	-9.507742625567049	-1.830657158036162	0.362243888058331	1.111769101849907	0.007495252137915762	0.2320328542094456	-0.4460285132382892	0.6363636363636364
1487.335205078125	-0.5029742729138886	-9.815961681575491	-1.900857569537052	-0.3550539779859753	-0.01097918540760998	-0.7264862593734864	0.2320328542094456	-0.4460285132382892	0.6363636363636364
1491.241455078125	-0.6867443560578879	-9.755380675125384	-1.775188131403743	0	0	0	0.2320328542094456	-0.4460285132382892	0.6363636363636364
1495.147705078125	-0.6071065525483799	-9.756297785323977	-1.763114915054008	0.003725105735701979	-0.7509818863205826	-0.3725105735701979	0.2279260780287475	-0.4358452138492871	0.6673553719008265
1499.053955078125	-0.2457097207424681	-9.779446143040065	-1.809675975251063	-0.3586303400650783	-0.7472851214204346	-0.3688500514631886	0.2279260780287475	-0.4358452138492871	0.6673553719008265
1502.960205078125	-0.7342822511259495	-9.904084594530724	-1.857258295801687	-0.3585931541509285	-1.119107077003786	-0.3725686428781636	0.2279260780287475	-0.4358452138492871	0.6673553719008265
1506.866455078125	-0.5410834507717023	-9.868283649082851	-1.630551640943261	-0.3585931541509285	-1.119107077003786	-0.3725686428781636	0.2135523613963039	-0.4358452138492871	0.640495867768595
1510.772705078125	-0.5510074201070787	-9.844825732501288	-1.966419329764048	-0.7209114140375591	-1.48723226768699	-0.3726267121861294	0.2135523613963039	-0.4358452138492871	0.640495867768595
1514.678955078125	-0.4329386825820301	-9.446650174034858	-1.902043913932331	-0.7136099462227541	-1.501908217994748	-1.102773493666625	0.2135523613963039	-0.4358452138492871	0.640495867768595
1518.585205078125	-0.3590853923493011	-9.799437610192941	-1.697153588356633	-1.079578940016787	-1.862695433524073	-0.7377581722343429	0.2135523613963039	-0.4358452138492871	0.640495867768595
1522.491455078125	-0.3842454620946799	-9.647572699410613	-1.858484596844003	-0.3623182598866305	-0.3681251906832038	-5.806930796573191e-05	0.2135523613963039	-0.4358452138492871	0.640495867768595
1526.397705078125	-0.510108900264266	-9.688268544418779	-1.663036657857803	-0.3585559682367788	-1.490929032587138	-0.3762872342931387	0.2135523613963039	-0.4358452138492871	0.640495867768595
1530.303955078125	-0.4108281987727527	-9.669501117603192	-1.639060040908246	-0.3549052343293763	-1.498267007741017	-0.7413606250333865	0.2135523613963039	-0.4358452138492871	0.640495867768595
1534.210205078125	-0.2828015813368811	-9.59810584463226	-1.906613955437298	-0.358667525979228	-0.3754631658370828	-0.3651314600482136	0.2197125256673511	-0.4256619144602851	0.6673553719008265
1538.116455078125	-0.005113399330147851	-9.641653332450081	-1.829553355661738	-0.7210229717800084	-0.3717664009369348	-0.3614709379412043	0.2197125256673511	-0.4256619144602851	0.6673553719008265
1542.022705078125	-0.5628493085002773	-9.875321276415091	-1.90502304999076	-0.7209857858658586	-0.7435883565202867	-0.3651895293561793	0.2197125256673511	-0.4256619144602851	0.6673553719008265
1545.928955078125	-0.471379868632008	-9.909079490857684	-1.620671045599735	-0.7172606801301565	-1.494570242840869	-0.7377001029263772	0.2176591375770021	-0.4276985743380855	0.6487603305785125
1549.835205078125	-0.3390663235652475	-9.609631444619431	-1.69778921449175	-0.7209485999517089	-1.115410312103638	-0.3689081207711543	0.2176591375770021	-0.4276985743380855	0.6487603305785125
1553.741455078125	-0.5562343804340713	-9.726515783007018	-1.792187318864295	-0.362243888058331	-1.111769101849907	-0.007495252137915762	0.2176591375770021	-0.4276985743380855	0.6487603305785125
1557.647705078125	-0.4743127390991302	-9.566694452308719	-1.856242030028997	-0.7172606801301565	-1.494570242840869	-0.7377001029263772	0.2176591375770021	-0.4276985743380855	0.6487603305785125
1561.553955078125	-0.2038758999117537	-9.8959198743048	-2.204136669608212	-0.7172978660443063	-1.122748287257517	-0.7339815115114022	0.2053388090349076	-0.4358452138492871	0.6611570247933884
1565.460205078125	-0.733756242897509	-9.833914518536861	-1.874791903416372	-0.7209485999517089	-1.115410312103638	-0.3689081207711543	0.2053388090349076	-0.4358452138492871	0.6611570247933884
1569.366455078125	-0.4791406587010988	-9.854922146313355	-2.028644709963374	-0.7172234942160068	-1.866392198424221	-0.7414186943413522	0.2053388090349076	-0.4358452138492871	0.6611570247933884
1573.272705078125	-0.5880945489932897	-9.736817237507832	-1.730181700223678	0.003762291649851729	-1.122803841903934	-0.3762291649851729	0.2114989733059548	-0.4399185336048879	0.6466942148760331
1577.178955078125	-0.5245248379192786	-9.826263030927235	-1.849172069357379	-0.3694709840448365	-1.840737062708853	0.7152143465126299	0.2114989733059548	-0.4399185336048879	0.6466942148760331
1581.085205078125	-0.122985770964819	-9.749765399278624	-1.900474301172701	-0.3622067021441813	-1.483591057433259	-0.01121384355289078	0.2114989733059548	-0.4399185336048879	0.6466942148760331
1584.991455078125	-0.6244356452196737	-9.63523419195436	-1.852145159344217	-0.3621695162300315	-1.855413013016611	-0.0149324349678658	0.2114989733059548	-0.4399185336048879	0.6466942148760331
1588.897705078125	-0.5326507581379467	-9.668890411797937	-1.578308062068445	-0.7208370422092596	-2.230876178853694	-0.3800638950160794	0.2114989733059548	-0.4399185336048879	0.6466942148760331
1592.803955078125	-0.5184658855667917	-9.727637302999929	-1.71780381444028	-0.358518782322629	-1.86275098817049	-0.3800058257081136	0.2114989733059548	-0.4399185336048879	0.6466942148760331
1596.710205078125	-0.2832968334620096	-9.478265976152716	-1.89010555126635	-0.7208742281234094	-1.859054223270342	-0.3763453036011044	0.2114989733059548	-0.4399185336048879	0.6466942148760331
1600.616455078125	-0.2076399737863366	-9.560470258190916	-1.745334207122115	0.0001859295707487508	-1.859109777916759	-0.01859295707487508	0.2279260780287475	-0.4378818737270875	0.6528925619834711
1604.522705078125	-0.5979846077532194	-10.01668168984021	-1.733846408226022	-0.7208742281234094	-1.859054223270342	-0.3763453036011044	0.2279260780287475	-0.4378818737270875	0.6528925619834711
1608.428955078125	-0.4363944068054582	-9.6677675248671	-1.786853106484727	-1.079504568188488	-2.606339344690777	-0.745195355064293	0.2279260780287475	-0.4378818737270875	0.6528925619834711
1612.335205078125	-0.3947955941487697	-9.697650575441436	-1.840146861707679	-0.3621695162300315	-1.855413013016611	-0.0149324349678658	0.2073921971252567	-0.4175152749490835	0.6673553719008265
1616.241455078125	-0.2584230320628434	-9.860223447033652	-1.719232264571887	0.0001115577424492505	-1.115465866750055	-0.01115577424492505	0.2073921971252567	-0.4175152749490835	0.6673553719008265
1620.147705078125	-0.3992315705880173	-9.615751541156794	-2.025614313732758	-0.362243888058331	-1.111769101849907	-0.007495252137915762	0.2073921971252567	-0.4175152749490835	0.6673553719008265
1624.053955078125	-0.3846965516099243	-9.76771855168721	-1.84344827966919	-0.7172606801301565	-1.494570242840869	-0.7377001029263772	0.2073921971252567	-0.4175152749490835	0.6673553719008265
1627.960205078125	-0.6702906294039389	-9.643393970173939	-1.990312353202039	-0.7209485999517089	-1.115410312103638	-0.3689081207711543	0.2217659137577002	-0.3890020366598778	0.6528925619834711
1631.866455078125	-0.2756322547930233	-9.819121095716412	-1.812258173565892	0.0001115577424492505	-1.115465866750055	-0.01115577424492505	0.2217659137577002	-0.3890020366598778	0.6528925619834711
1635.772705078125	-0.4137121749217889	-9.640433603224711	-1.54292750260704	0.003725105735701979	-0.7509818863205826	-0.3725105735701979	0.2217659137577002	-0.3890020366598778	0.6528925619834711
1639.678955078125	-0.2250905136348116	-9.779445932741922	-1.83031621217295	0.3587047118933778	0.003641210253730994	0.3614128686332386	0.2279260780287475	-0.415478615071283	0.6322314049586777
1643.585205078125	-0.405419856298022	-9.487752420203028	-1.81933812339927	3.718591414975016e-05	-0.3718219555833518	-0.003718591414975016	0.2279260780287475	-0.415478615071283	0.6322314049586777
1647.491455078125	-0.2357455318873759	-9.759557721976918	-1.808482270420804	-0.3586303400650783	-0.7472851214204346	-0.3688500514631886	0.2279260780287475	-0.415478615071283	0.6322314049586777
1651.397705078125	-0.3626349621187328	-9.677251971085058	-1.912167929375575	-0.7172978660443063	-1.122748287257517	-0.7339815115114022	0.2279260780287475	-0.415478615071283	0.6322314049586777
1655.303955078125	-0.3827581284832273	-9.587091794876244	-1.908062383892424	0.003725105735701979	-0.7509818863205826	-0.3725105735701979	0.2279260780287475	-0.415478615071283	0.6322314049586777
1659.210205078125	-0.4025816199949371	-9.696834723798364	-1.913946000168764	0.0001487436565990006	-1.487287822333407	-0.01487436565990006	0.2279260780287475	-0.415478615071283	0.6322314049586777
1663.116455078125	-0.4803220085154976	-9.768637449420012	-1.655933049483416	-0.3585931541509285	-1.119107077003786	-0.3725686428781636	0.2279260780287475	-0.415478615071283	0.6322314049586777
1667.022705078125	-0.6392671845784168	-9.776696389680353	-1.691093847386112	0.00379947756400148	-1.494625797487286	-0.3799477564001479	0.2258726899383984	-0.4358452138492871	0.6632231404958678
1670.928955078125	-0.3737410698865415	-9.777509612596647	-1.875297670448616	-0.7208370422092596	-2.230876178853694	-0.3800638950160794	0.2258726899383984	-0.4358452138492871	0.6632231404958678
1674.835205078125	-0.2825760365792589	-9.538032918493959	-1.914132114024704	0.00383666347815123	-1.866447753070638	-0.3836663478151229	0.2258726899383984	-0.4358452138492871	0.6632231404958678
1678.741455078125	-0.3672909629893671	-9.518757411366563	-1.756967900354431	7.437182829950031e-05	-0.7436439111667036	-0.007437182829950031	0.2258726899383984	-0.4480651731160896	0.6528925619834711
1682.647705078125	-0.3784420219850936	-9.589029587108515	-1.718599267163549	-0.3549796061576758	-0.7546230965743135	-0.7339234422034364	0.2258726899383984	-0.4480651731160896	0.6528925619834711
1686.553955078125	-0.4749396904358772	-9.8502304999076	-1.502010318804097	0.007450211471403958	-1.501963772641165	-0.7450211471403958	0.2258726899383984	-0.4480651731160896	0.6528925619834711
1690.460205078125	-0.5055577855921064	-9.776797017341448	-1.814740480263125	-0.7209114140375591	-1.48723226768699	-0.3726267121861294	0.2258726899383984	-0.4480651731160896	0.6528925619834711
1694.366455078125	-0.2947940957745058	-9.738650090967091	-1.840196807516476	-0.3586303400650783	-0.7472851214204346	-0.3688500514631886	0.2197125256673511	-0.4541751527494908	0.6652892561983471
1698.272705078125	-0.06791736229349052	-9.641959947141562	-1.736087923550316	-0.3549796061576758	-0.7546230965743135	-0.7339234422034364	0.2197125256673511	-0.4541751527494908	0.6652892561983471
1702.178955078125	-0.5375685801957508	-9.897147174263292	-1.747713993474974	-0.3512916863361236	-1.133783027311544	-1.102715424358659	0.2197125256673511	-0.4541751527494908	0.6652892561983471
1706.085205078125	-0.2669897897623185	-9.759660032023149	-1.76700700792272	0.007301467814804958	-0.01467595030775797	-0.7301467814804957	0.2217659137577002	-0.4439918533604887	0.6528925619834711
1709.991455078125	-0.3517946186282621	-9.680413593356471	-1.606846045724599	0.003650733907402479	-0.007337975153878983	-0.3650733907402479	0.2217659137577002	-0.4439918533604887	0.6528925619834711
1713.897705078125	-0.4856751477278732	-9.917034964432011	-1.810828409070895	-0.3514032440785728	-0.01831716056148896	-1.091559650113734	0.2217659137577002	-0.4439918533604887	0.6528925619834711
1717.803955078125	-0.5580418929671833	-9.713766878726055	-2.065270234427225	-0.3514032440785728	-0.01831716056148896	-1.091559650113734	0.2217659137577002	-0.4439918533604887	0.6528925619834711
1721.710205078125	-0.3448248124469162	-9.698160022691171	-1.839172918436128	0.3696569136155852	-0.01837271520790595	-0.733807303587505	0.2217659137577002	-0.4439918533604887	0.6528925619834711
1725.616455078125	-0.4517669381352812	-9.869404643330407	-1.607768728823963	0.3658946219657335	1.104431126696028	-0.3575781386023321	0.2217659137577002	-0.4439918533604887	0.6528925619834711
1729.522705078125	-0.3574032700835384	-9.868893723993677	-1.753224330548723	0.01087782989390794	0.7216299857050666	-1.087782989390794	0.2217659137577002	-0.4439918533604887	0.6528925619834711
1733.428955078125	-0.3751526961667643	-9.677966038427254	-1.828243461107856	0.01084064397975819	1.093451941288418	-1.084064397975818	0.2217659137577002	-0.4358452138492871	0.6549586776859504
1737.335205078125	-0.6347602325161411	-9.625239141846887	-1.841325582795299	0.3659318078798833	0.7326091711126765	-0.3612967300173071	0.2217659137577002	-0.4358452138492871	0.6549586776859504
1741.241455078125	-0.4842169929836654	-9.626563494398052	-1.859433567211155	0.01087782989390794	0.7216299857050666	-1.087782989390794	0.2217659137577002	-0.4358452138492871	0.6549586776859504
1745.147705078125	-0.5469760047190904	-9.656855574859172	-1.767466509363656	0.007264281900655208	0.3571460052755938	-0.7264281900655207	0.2258726899383984	-0.4317718940936863	0.6528925619834711
1749.053955078125	-0.3540532206766185	-9.787810541352107	-1.864892644112716	0.003687919821552229	-0.3791599307372308	-0.3687919821552229	0.2258726899383984	-0.4317718940936863	0.6528925619834711
1752.960205078125	-0.4817241713793167	-9.815757482079311	-1.942527620689447	0.003725105735701979	-0.7509818863205826	-0.3725105735701979	0.2258726899383984	-0.4317718940936863	0.6528925619834711
1756.866455078125	-0.4717047792618693	-9.762517878628005	-2.27650735793769	-0.3586303400650783	-0.7472851214204346	-0.3688500514631886	0.2258726899383984	-0.4317718940936863	0.6528925619834711
1760.772705078125	-0.6578280986182624	-9.676031085219904	-1.739063379391255	-0.7209485999517089	-1.115410312103638	-0.3689081207711543	0.2073921971252567	-0.4175152749490835	0.6528925619834711
1764.678955078125	-0.584219279975963	-9.795564233858896	-1.859357334134569	-0.7172234942160068	-1.866392198424221	-0.7414186943413522	0.2073921971252567	-0.4175152749490835	0.6528925619834711
1768.585205078125	-0.6861134616309726	-9.755176685927349	-1.79621794563425	0.0001859295707487508	-1.859109777916759	-0.01859295707487508	0.2073921971252567	-0.4175152749490835	0.6528925619834711
1772.491455078125	-0.5969759652881887	-9.426355562109848	-1.767467823727046	0.0001487436565990006	-1.487287822333407	-0.01487436565990006	0.2238193018480493	-0.4460285132382892	0.6425619834710744
1776.397705078125	-0.3910953983349119	-9.709787512128287	-1.63015338883627	-0.3547936765869271	-2.613732874491073	-0.7525163992783116	0.2238193018480493	-0.4460285132382892	0.6425619834710744
1780.303955078125	-0.4262243886435849	-9.50447921899476	-2.125853711880504	-0.3547936765869271	-2.613732874491073	-0.7525163992783116	0.2238193018480493	-0.4460285132382892	0.6425619834710744
1784.210205078125	-0.3762796313368417	-9.768330414132247	-1.790678955438612	0.00379947756400148	-1.494625797487286	-0.3799477564001479	0.2279260780287475	-0.4175152749490835	0.6508264462809917
1788.116455078125	-0.5807485720098957	-9.584442038283202	-1.975047599670147	0.7285475550797117	-1.873841282870934	-0.3909873920291415	0.2279260780287475	-0.4175152749490835	0.6508264462809917
1792.022705078125	-0.2020376312753295	-9.718658834112356	-1.932078957489019	0.3624670035432295	-1.119162631650203	-0.01481629635193433	0.2279260780287475	-0.4175152749490835	0.6508264462809917
1795.928955078125	-0.3569821480535725	-9.728757561203988	-1.767261731547587	0.3697684713580345	-1.133838581957961	-0.7449630778324301	0.2279260780287475	-0.4175152749490835	0.6508264462809917
1799.835205078125	-0.4648004283773159	-9.876952138508667	-1.839985720756137	0.3660433656223325	-0.3828566956373787	-0.3724525042622321	0.2340862422997947	-0.4093686354378818	0.6322314049586777
1803.741455078125	-0.3227174831097733	-9.427678652872158	-1.909417229674224	0	0	0	0.2340862422997947	-0.4093686354378818	0.6322314049586777
1807.647705078125	-0.2898021436215391	-9.770369359770966	-1.673261879282032	-0.3513660581644231	-0.3901391161448408	-1.095278241528709	0.2340862422997947	-0.4093686354378818	0.6322314049586777
1811.553955078125	-0.4551059468897299	-9.677150922827678	-1.829801770342336	0.003725105735701979	-0.7509818863205826	-0.3725105735701979	0.2012320328542095	-0.4297352342158859	0.6549586776859504
1815.460205078125	-0.4826255617917719	-9.846048931646004	-1.912481273607609	-0.3587047118933778	-0.003641210253730994	-0.3614128686332386	0.2012320328542095	-0.4297352342158859	0.6549586776859504
1819.366455078125	-0.4400646351340375	-9.675620898693339	-1.997845495532085	-0.358667525979228	-0.3754631658370828	-0.3651314600482136	0.2012320328542095	-0.4297352342158859	0.6549586776859504
1823.272705078125	-0.01907824746991621	-9.65950196668194	-2.030725084336127	-0.717335051958456	-0.7509263316741656	-0.7302629200964272	0.2012320328542095	-0.4297352342158859	0.6549586776859504
1827.178955078125	-0.6633168801324248	-9.944472457909484	-1.889437328919175	-0.7136099462227541	-1.501908217994748	-1.102773493666625	0.2114989733059548	-0.4338085539714867	0.6652892561983471
1831.085205078125	-0.501982980045598	-9.845641163548075	-1.933900665146737	0.003762291649851729	-1.122803841903934	-0.3762291649851729	0.2114989733059548	-0.4338085539714867	0.6652892561983471
1834.991455078125	-0.444075546453151	-9.736917760019853	-1.864148451561634	-0.362243888058331	-1.111769101849907	-0.007495252137915762	0.2114989733059548	-0.4338085539714867	0.6652892561983471
1838.897705078125	-0.4937466533022198	-9.936311417901052	-1.875111556592676	-0.7209485999517089	-1.115410312103638	-0.3689081207711543	0.2217659137577002	-0.4175152749490835	0.6590909090909091
1842.803955078125	-0.4657767375029672	-9.857267811792626	-1.807442083234427	-0.3549052343293763	-1.498267007741017	-0.7413606250333865	0.2217659137577002	-0.4175152749490835	0.6590909090909091
1846.710205078125	-0.2328008321497491	-9.618605602395085	-1.906638928341696	-1.083266859838339	-1.483535502786842	-0.3689661900791201	0.2217659137577002	-0.4175152749490835	0.6590909090909091
1850.616455078125	-0.4520666129880659	-9.669501538199475	-1.597779567064472	-0.7172606801301565	-1.494570242840869	-0.7377001029263772	0.2299794661190965	-0.4276985743380855	0.640495867768595
1854.522705078125	-0.2556597144729548	-10.01932997434626	-1.811342850901509	-0.003539176164953228	-1.108127891596177	0.3539176164953228	0.2299794661190965	-0.4276985743380855	0.640495867768595
1858.428955078125	-0.6044631048996051	-9.835443070584207	-1.851229836679834	-0.7172606801301565	-1.494570242840869	-0.7377001029263772	0.2299794661190965	-0.4276985743380855	0.640495867768595
1862.335205078125	-0.2889307206943624	-9.720087599691178	-1.70230931018792	-0.3585559682367788	-1.490929032587138	-0.3762872342931387	0.2299794661190965	-0.4276985743380855	0.640495867768595
1866.241455078125	-0.3459067963890758	-9.818509864165801	-1.803106787030808	-0.3623182598866305	-0.3681251906832038	-5.806930796573191e-05	0.2279260780287475	-0.4317718940936863	0.6590909090909091
1870.147705078125	-0.6020136572871068	-9.574651082522831	-1.932878090429778	0.0001115577424492505	-1.115465866750055	-0.01115577424492505	0.2279260780287475	-0.4317718940936863	0.6590909090909091
1874.053955078125	-0.5159423078591309	-9.726821346207785	-1.801923071362309	-1.079653311845087	-1.11905152235737	-0.7303209894043929	0.2279260780287475	-0.4317718940936863	0.6590909090909091
1877.960205078125	-0.4768970403953817	-9.737530043061174	-1.770098653487282	-0.7210601576941581	5.555464641699391e-05	-0.3577523465262293	0.2258726899383984	-0.4317718940936863	0.6528925619834711
1881.866455078125	-0.4476211731324145	-9.898064179312813	-1.745960895586184	-0.358667525979228	-0.3754631658370828	-0.3651314600482136	0.2258726899383984	-0.4317718940936863	0.6528925619834711
1885.772705078125	-0.441731773657161	-9.616159940149149	-1.942274211427969	-0.7210229717800084	-0.3717664009369348	-0.3614709379412043	0.2258726899383984	-0.4317718940936863	0.6528925619834711
1889.678955078125	-0.6373587289369982	-9.576079322356296	-1.754709035433397	-1.076002577937684	-1.126389497511249	-1.095394380144641	0.2258726899383984	-0.4317718940936863	0.6528925619834711
1893.585205078125	-0.4571642399575409	-9.777816437586271	-1.761192001415306	-0.3622810739724808	-0.7399471462665556	-0.003776660722940747	0.2320328542094456	-0.4317718940936863	0.6487603305785125
1897.491455078125	-0.3457411866020105	-9.718456317001317	-1.808627113266317	-0.3660061797081828	0.01103474005402697	0.3687339128472572	0.2320328542094456	-0.4317718940936863	0.6487603305785125
1901.397705078125	-0.5508220948691722	-9.828099144007698	-1.639263504360926	-0.7209857858658586	-0.7435883565202867	-0.3651895293561793	0.2320328542094456	-0.4317718940936863	0.6487603305785125
1905.303955078125	-0.5359605880251507	-9.706627256794798	-1.80131373249498	-0.3586303400650783	-0.7472851214204346	-0.3688500514631886	0.2135523613963039	-0.4276985743380855	0.6632231404958678
1909.210205078125	-0.3577329124216016	-9.649000308349651	-1.742236252613283	-0.3660433656223325	0.3828566956373787	0.3724525042622321	0.2135523613963039	-0.4276985743380855	0.6632231404958678
1913.116455078125	-0.2157974387263504	-9.80310783852152	-1.473418709121656	0.7247108916015605	-0.007393529800295976	-0.007321044214018567	0.2135523613963039	-0.4276985743380855	0.6632231404958678
1917.022705078125	-0.4772582274547906	-9.917646826877048	-1.758059084840317	-0.3623554458007803	0.003696764900147988	0.003660522107009284	0.215605749486653	-0.4256619144602851	0.6549586776859504
1920.928955078125	-0.4551359143750084	-9.657160612314586	-1.828802854166387	-0.003650733907402479	0.007337975153878983	0.3650733907402479	0.215605749486653	-0.4256619144602851	0.6549586776859504
1924.835205078125	-0.6094495367263363	-9.667055350208182	-1.685015442455462	0.7210601576941581	-5.555464641699391e-05	0.3577523465262293	0.215605749486653	-0.4256619144602851	0.6549586776859504
1928.741455078125	-0.4635228671628127	-9.676539060382643	-1.882571094572915	0	0	0	0.215605749486653	-0.4256619144602851	0.6549586776859504
1932.647705078125	-0.5215951219242911	-9.675315756088855	-1.946829269190297	-0.3623554458007803	0.003696764900147988	0.003660522107009284	0.1950718685831622	-0.4419551934826884	0.6425619834710744
1936.553955078125	-0.4005383106697655	-9.586174053783225	-1.98205631100782	0	0	0	0.1950718685831622	-0.4419551934826884	0.6425619834710744
1940.460205078125	-0.5183002757797265	-9.627583755835445	-1.723324140675788	-0.3586303400650783	-0.7472851214204346	-0.3688500514631886	0.1950718685831622	-0.4419551934826884	0.6425619834710744
1944.366455078125	-0.5410235158011453	-9.908264270109038	-1.632549473295159	-0.362243888058331	-1.111769101849907	-0.007495252137915762	0.2094455852156057	-0.4256619144602851	0.6528925619834711
1948.272705078125	-0.4009144814718137	-9.756295682342554	-1.96951728427288	-0.3585931541509285	-1.119107077003786	-0.3725686428781636	0.2094455852156057	-0.4256619144602851	0.6528925619834711
1952.178955078125	-0.4514846128792366	-9.355980024830952	-1.950512904025448	-0.3549052343293763	-1.498267007741017	-0.7413606250333865	0.2094455852156057	-0.4256619144602851	0.6528925619834711
1956.085205078125	-0.4215037210941918	-9.776286203153788	-1.949875963526942	-0.3586303400650783	-0.7472851214204346	-0.3688500514631886	0.2094455852156057	-0.4256619144602851	0.6528925619834711
1959.991455078125	-0.4964997188576711	-9.713868242430648	-2.116676038077633	0.3623182598866305	0.3681251906832038	5.806930796573191e-05	0.2217659137577002	-0.4215885947046843	0.6549586776859504
1963.897705078125	-0.437086024820964	-9.837991148025447	-1.763799172634533	0.003687919821552229	-0.3791599307372308	-0.3687919821552229	0.2217659137577002	-0.4215885947046843	0.6549586776859504
1967.803955078125	-0.602564901292624	-9.698162651417949	-1.581169956912539	-0.3586303400650783	-0.7472851214204346	-0.3688500514631886	0.2217659137577002	-0.4215885947046843	0.6549586776859504
1971.710205078125	-0.4126057438205863	-9.676742523835323	-1.913141872647125	0.358667525979228	0.3754631658370828	0.3651314600482136	0.2197125256673511	-0.4419551934826884	0.6570247933884298
1975.616455078125	-0.1495077840543011	-9.601674183510891	-1.683073864856631	0.3623554458007803	-0.003696764900147988	-0.003660522107009284	0.2197125256673511	-0.4419551934826884	0.6570247933884298
1979.522705078125	-0.5287297492746685	-9.547622618932143	-1.709008357511048	-0.3587047118933778	-0.003641210253730994	-0.3614128686332386	0.2197125256673511	-0.4419551934826884	0.6570247933884298
1983.428955078125	-0.3659550440403741	-9.778325464239721	-1.80149853198753	0.003650733907402479	-0.007337975153878983	-0.3650733907402479	0.2073921971252567	-0.4358452138492871	0.6528925619834711
1987.335205078125	-0.3647531901571006	-9.737936864817465	-1.841560328096647	-0.3623554458007803	0.003696764900147988	0.003660522107009284	0.2073921971252567	-0.4358452138492871	0.6528925619834711
1991.241455078125	-0.4926039457714697	-9.645941942466109	-1.913201807617682	-0.0001859295707487508	1.859109777916759	0.01859295707487508	0.2073921971252567	-0.4358452138492871	0.6528925619834711
1995.147705078125	-0.4671134450699939	-9.807700013905967	-1.76288516433354	-0.3550539779859753	-0.01097918540760998	-0.7264862593734864	0.2073921971252567	-0.4358452138492871	0.6528925619834711
1999.053955078125	-0.1513310689480861	-9.788930378959881	-1.955631035063798	0.007338653728954708	-0.3864979058911098	-0.7338653728954707	0.2238193018480493	-0.4317718940936863	0.6632231404958678
2002.960205078125	-0.379599713258483	-9.869403907286911	-1.680009558050568	0.003650733907402479	-0.007337975153878983	-0.3650733907402479	0.2238193018480493	-0.4317718940936863	0.6632231404958678
2006.866455078125	-0.4163777038755057	-10.10796212425308	-1.78740987081648	-0.3550539779859753	-0.01097918540760998	-0.7264862593734864	0.2238193018480493	-0.4317718940936863	0.6632231404958678
2010.772705078125	-0.4020256442812181	-9.646654958317594	-1.932478523959399	0.01091501580805769	0.3498080301217149	-1.091501580805769	0.2279260780287475	-0.4338085539714867	0.640495867768595
2014.678955078125	-0.4091752553742348	-9.508966665904337	-1.694158154192175	0.007301467814804958	-0.01467595030775797	-0.7301467814804957	0.2279260780287475	-0.4338085539714867	0.640495867768595
2018.585205078125	-0.3377146322555817	-9.66919439776264	-1.742845591480612	0.3658946219657335	1.104431126696028	-0.3575781386023321	0.2279260780287475	-0.4338085539714867	0.640495867768595
2022.491455078125	-0.3677467842128133	-9.56557146022881	-2.075107192906223	0.369545355873136	1.097093151542149	-0.7226515293425799	0.2279260780287475	-0.4338085539714867	0.640495867768595
2026.397705078125	-0.6096001627707622	-9.777104052629213	-1.679994574307929	0.007189910072355707	1.100789916442297	-0.7189910072355706	0.2279260780287475	-0.4338085539714867	0.640495867768595
2030.303955078125	-0.4080341250795519	-9.638597700442388	-1.732195830681605	0.3621695162300315	1.855413013016611	0.0149324349678658	0.2279260780287475	-0.4338085539714867	0.640495867768595
2034.210205078125	-0.4222339813933462	-9.569855653983847	-1.592200620221796	0.007152724158205957	1.472611872025649	-0.7152724158205956	0.2279260780287475	-0.4338085539714867	0.640495867768595
2038.116455078125	-0.07920327497297014	-9.622275725574594	-1.693224167567663	0.3658946219657335	1.104431126696028	-0.3575781386023321	0.2197125256673511	-0.4399185336048879	0.6632231404958678
2042.022705078125	-0.477257438836757	-9.707646571890551	-1.758085372108105	0.007227095986505457	0.7289679608589457	-0.7227095986505457	0.2197125256673511	-0.4399185336048879	0.6632231404958678
2045.928955078125	-0.5475777202787607	-9.887050129556798	-1.74740932404131	-0.3514776159068723	0.7253267506052147	-1.084122467283784	0.2197125256673511	-0.4399185336048879	0.6632231404958678
2049.835205078125	-0.3007875928302003	-9.740587988348432	-1.640413572326657	0.728212881852364	1.472556317379232	-0.3575200692943664	0.2176591375770021	-0.4358452138492871	0.6735537190082644
2053.741455078125	-0.3278758336678388	-9.706013186219268	-2.070805544405373	0.365820250137434	1.848075037862732	-0.3501409557723821	0.2176591375770021	-0.4358452138492871	0.6735537190082644
2057.647705078125	-0.5465903705006384	-9.633397553128541	-2.113654316645387	0.3658574360515838	1.47625308227938	-0.3538595471873571	0.2176591375770021	-0.4358452138492871	0.6735537190082644
2061.553955078125	-0.4948278486263458	-9.846661004389185	-1.839071712455144	0.01087782989390794	0.7216299857050666	-1.087782989390794	0.2176591375770021	-0.4358452138492871	0.6735537190082644
2065.460205078125	-0.8442021985093544	-9.702958710851357	-1.85992671635486	0.007152724158205957	1.472611872025649	-0.7152724158205956	0.2197125256673511	-0.4175152749490835	0.6466942148760331
2069.366455078125	-0.6653688642559665	-9.698469266109431	-1.487704524801117	0.369545355873136	1.097093151542149	-0.7226515293425799	0.2197125256673511	-0.4175152749490835	0.6466942148760331
2073.272705078125	-0.5592398037602886	-10.03748753654916	-1.692006541323716	0.3660061797081828	-0.01103474005402697	-0.3687339128472572	0.2197125256673511	-0.4175152749490835	0.6466942148760331
2077.178955078125	-0.703292716875874	-9.734064645123199	-1.890242770804204	-0.7136843180510536	-0.7582643068280446	-1.095336310836675	0.2094455852156057	-0.4175152749490835	0.6673553719008265
2081.085205078125	-0.6586995215454391	-9.726312845299693	-1.710015948485367	0.3623554458007803	-0.003696764900147988	-0.003660522107009284	0.2094455852156057	-0.4175152749490835	0.6673553719008265
2084.991455078125	-0.5942875664114963	-9.535486313139717	-1.857081119616795	7.437182829950031e-05	-0.7436439111667036	-0.007437182829950031	0.2094455852156057	-0.4175152749490835	0.6673553719008265
2088.897705078125	-0.498267800489101	-9.867773255491477	-1.724406650363303	0.00383666347815123	-1.866447753070638	-0.3836663478151229	0.2094455852156057	-0.4175152749490835	0.6673553719008265
2092.803955078125	-0.5777100267262653	-9.786792908641491	-1.742999109124495	-0.3621323303158818	-2.227234968599963	-0.01865102638284081	0.2094455852156057	-0.4175152749490835	0.6673553719008265
2096.710205078125	-0.4410567166203617	-9.855941671707249	-1.964776112654612	-0.003427618422503978	-2.223593758346232	0.3427618422503977	0.2094455852156057	-0.4175152749490835	0.6673553719008265
2100.616455078125	-0.4786690651169797	-9.608102997721156	-1.711031162767345	-0.358518782322629	-1.86275098817049	-0.3800058257081136	0.2094455852156057	-0.4175152749490835	0.6673553719008265
2104.522705078125	-0.1714447718961769	-9.845433809579763	-2.285174270127438	-0.003464804336653728	-1.85177180276288	0.3464804336653728	0.2258726899383984	-0.4236252545824847	0.6508264462809917
2108.428955078125	-0.4029270346936732	-9.676946407884287	-1.902432176877561	-0.3622067021441813	-1.483591057433259	-0.01121384355289078	0.2258726899383984	-0.4236252545824847	0.6508264462809917
2112.335205078125	-0.09808121346234074	-9.941712925686158	-1.730626217921976	-0.003501990250803478	-1.479949847179528	0.3501990250803478	0.2258726899383984	-0.4236252545824847	0.6508264462809917
2116.241455078125	-0.1674133565081886	-9.657463651937647	-2.086221449727046	-0.003539176164953228	-1.108127891596177	0.3539176164953228	0.2012320328542095	-0.4317718940936863	0.6632231404958678
2120.147705078125	-0.2523388439332798	-9.708256226205092	-1.922038535557341	-0.3622810739724808	-0.7399471462665556	-0.003776660722940747	0.2012320328542095	-0.4317718940936863	0.6632231404958678
2124.053955078125	-0.1962791423936608	-9.630130256040617	-1.790695253544641	-0.003650733907402479	0.007337975153878983	0.3650733907402479	0.2012320328542095	-0.4317718940936863	0.6632231404958678
2127.960205078125	-0.3308639073973161	-9.396979330058466	-1.971203086756133	-0.003613547993252729	-0.3644839804294728	0.3613547993252729	0.2012320328542095	-0.4317718940936863	0.6632231404958678
2131.866455078125	-0.2859702485960628	-9.379130380379394	-1.800991713464575	0.7247108916015605	-0.007393529800295976	-0.007321044214018567	0.2114989733059548	-0.4195519348268839	0.6735537190082644
2135.772705078125	-0.02501180955505383	-9.70142048508947	-1.832939681498206	0.003613547993252729	0.3644839804294728	-0.3613547993252729	0.2114989733059548	-0.4195519348268839	0.6735537190082644
2139.678955078125	-0.181668416084338	-9.622072787867269	-1.611052797188734	0.3659318078798833	0.7326091711126765	-0.3612967300173071	0.2114989733059548	-0.4195519348268839	0.6735537190082644
2143.585205078125	-0.1602984446086523	-9.701829830423465	-1.656718513044925	-0.3588534555499768	1.483646612079676	-0.3465385029733385	0.2197125256673511	-0.4276985743380855	0.6487603305785125
2147.491455078125	-0.2606761137849644	-9.830951943457139	-1.644129540501188	0.3658574360515838	1.47625308227938	-0.3538595471873571	0.2197125256673511	-0.4276985743380855	0.6487603305785125
2151.397705078125	-0.3761739565203334	-9.628296245941575	-1.794201449322222	-0.3552399075567241	1.848130592509149	-0.7078933022986114	0.2197125256673511	-0.4276985743380855	0.6487603305785125
2155.303955078125	-0.3585144328929428	-9.759252999968718	-1.716185570235242	0.7281756959382143	1.844378272962584	-0.3538014778793914	0.2197125256673511	-0.4276985743380855	0.6487603305785125
2159.210205078125	-0.04741881374498145	-9.771998749777545	-1.752706208500619	-0.3589278273782763	2.22729052324638	-0.3391013201433885	0.2197125256673511	-0.4276985743380855	0.6487603305785125
2163.116455078125	-0.1847629532483571	-9.663073354883636	-1.507901558388096	0.3657830642232843	2.219896993446084	-0.346422364357407	0.2197125256673511	-0.4276985743380855	0.6487603305785125
2167.022705078125	-0.4590577118563202	-9.988428660166877	-1.698076271455996	0.007152724158205957	1.472611872025649	-0.7152724158205956	0.2197125256673511	-0.4276985743380855	0.6487603305785125
2170.928955078125	-0.5376127428056349	-9.657161453507156	-1.746241906478839	0.3657830642232843	2.219896993446084	-0.346422364357407	0.2238193018480493	-0.4358452138492871	0.6570247933884298
2174.835205078125	-0.4097328083240211	-9.979146941358101	-1.675573055865964	0.7244505902025123	2.595360159283167	0.01870909569080654	0.2238193018480493	-0.4358452138492871	0.6570247933884298
2178.741455078125	-0.5282352857675737	-9.877462742398183	-1.725490474414208	0.3621695162300315	1.855413013016611	0.0149324349678658	0.2238193018480493	-0.4358452138492871	0.6570247933884298
2182.647705078125	-0.4679399167692528	-9.887967239755392	-1.735336107691576	0.007152724158205957	1.472611872025649	-0.7152724158205956	0.2217659137577002	-0.4297352342158859	0.6425619834710744
2186.553955078125	-0.5646670730678268	-9.925909020291931	-1.844430897739111	0.3658946219657335	1.104431126696028	-0.3575781386023321	0.2217659137577002	-0.4297352342158859	0.6425619834710744
2190.460205078125	-0.7084005958797863	-9.905716192667798	-1.719980137340459	0.3622067021441813	1.483591057433259	0.01121384355289078	0.2217659137577002	-0.4297352342158859	0.6425619834710744
2194.366455078125	-0.4999199552695853	-9.818307452203832	-1.669334824347162	0.3622810739724808	0.7399471462665556	0.003776660722940747	0.2217659137577002	-0.4297352342158859	0.6425619834710744
2198.272705078125	-0.3228097514197096	-9.997708486292373	-1.906341619343013	0.7209485999517089	1.115410312103638	0.3689081207711543	0.2053388090349076	-0.4439918533604887	0.6528925619834711
2202.178955078125	-0.6057091213927627	-9.635845949250326	-1.809695953574582	0.724636519773261	0.7362503813664076	0.0001161386159314638	0.2053388090349076	-0.4439918533604887	0.6528925619834711
2206.085205078125	-0.5388595479168261	-9.667564587159776	-1.704681736105799	0.003650733907402479	-0.007337975153878983	-0.3650733907402479	0.2053388090349076	-0.4439918533604887	0.6528925619834711
2209.991455078125	-0.5547320630799794	-9.676030033729194	-1.842264564000691	0.3587047118933778	0.003641210253730994	0.3614128686332386	0.2238193018480493	-0.4378818737270875	0.6590909090909091
2213.897705078125	-0.408935515492007	-9.668889150009084	-1.702149483599768	0.003687919821552229	-0.3791599307372308	-0.3687919821552229	0.2238193018480493	-0.4378818737270875	0.6590909090909091
2217.803955078125	-0.5063243223208084	-9.897044864217062	-1.789189255973059	7.437182829950031e-05	-0.7436439111667036	-0.007437182829950031	0.2238193018480493	-0.4378818737270875	0.6590909090909091
2221.710205078125	-0.2819309470277381	-9.757824339538969	-1.935635099075398	0.003687919821552229	-0.3791599307372308	-0.3687919821552229	0.2238193018480493	-0.4378818737270875	0.6590909090909091
2225.616455078125	-0.4487173521991797	-9.798418610544402	-1.709421593360677	0.003725105735701979	-0.7509818863205826	-0.3725105735701979	0.2238193018480493	-0.4378818737270875	0.6590909090909091
2229.522705078125	-0.5058282815776463	-9.806884477710106	-1.805723947411795	-0.3586303400650783	-0.7472851214204346	-0.3688500514631886	0.2238193018480493	-0.4378818737270875	0.6590909090909091
2233.428955078125	-0.6651488398245798	-9.775064791543279	-1.82837200584734	-1.075965392023534	-1.4982114530946	-1.099112971559616	0.2238193018480493	-0.4378818737270875	0.6590909090909091
2237.335205078125	-0.5262661065375647	-9.506826041113813	-1.791129782081179	-0.3587047118933778	-0.003641210253730994	-0.3614128686332386	0.2340862422997947	-0.4236252545824847	0.6487603305785125
2241.241455078125	-0.3231244100151336	-9.787810225904893	-1.895852999495547	-0.003613547993252729	-0.3644839804294728	0.3613547993252729	0.2340862422997947	-0.4236252545824847	0.6487603305785125
2245.147705078125	-0.497711824775382	-9.817593490010706	-1.742939174153938	0.3697684713580345	-1.133838581957961	-0.7449630778324301	0.2340862422997947	-0.4236252545824847	0.6487603305785125
2249.053955078125	-0.4043244658492904	-9.797398243957938	-1.855851138356988	0.0001487436565990006	-1.487287822333407	-0.01487436565990006	0.2238193018480493	-0.4134419551934826	0.6652892561983471
2252.960205078125	-0.7282374938980681	-9.585463456360376	-1.725416870064401	0.0001115577424492505	-1.115465866750055	-0.01115577424492505	0.2238193018480493	-0.4134419551934826	0.6652892561983471
2256.866455078125	-0.3663154424817494	-9.7484419930691	-1.789485250608353	-0.7319008016739164	-1.093396386642001	0.7263120514495892	0.2238193018480493	-0.4134419551934826	0.6652892561983471
2260.772705078125	-0.3993325136963237	-9.82911751276181	-1.688916210122543	7.437182829950031e-05	-0.7436439111667036	-0.007437182829950031	0.2238193018480493	-0.4134419551934826	0.6652892561983471
2264.678955078125	-0.434066406370141	-9.747014804726346	-1.864453120995299	0.3587790837216773	-0.7400027009129726	0.3539756858032885	0.2053388090349076	-0.415478615071283	0.6342975206611571
2268.585205078125	-0.4914131325406671	-9.878890246188149	-1.619562248644431	-0.3585931541509285	-1.119107077003786	-0.3725686428781636	0.2053388090349076	-0.415478615071283	0.6342975206611571
2272.491455078125	-0.3247615810529786	-9.748339577873796	-1.841280631567381	-1.079616125930937	-1.490873477940721	-0.7340395808193679	0.2053388090349076	-0.415478615071283	0.6342975206611571
2276.397705078125	-0.3274957197756224	-9.819223616060784	-1.75014267414592	0.3660805515364823	-0.7546786512207306	-0.3761710956772072	0.2238193018480493	-0.4317718940936863	0.6528925619834711
2280.303955078125	-0.2591785281390744	-9.707134390764967	-2.027382395364188	0.3587418978075275	-0.3681807453296208	0.3576942772182636	0.2238193018480493	-0.4317718940936863	0.6528925619834711
2284.210205078125	-0.1611745992440308	-9.678779787088903	-1.960846691865642	0.3623554458007803	-0.003696764900147988	-0.003660522107009284	0.2238193018480493	-0.4317718940936863	0.6528925619834711
2288.116455078125	-0.08150209654104246	-9.773019011214938	-1.616596781965252	-0.3586303400650783	-0.7472851214204346	-0.3688500514631886	0.2238193018480493	-0.4317718940936863	0.6528925619834711
2292.022705078125	-0.5369826369967533	-9.866957719295618	-1.767245433441558	0.0001115577424492505	-1.115465866750055	-0.01115577424492505	0.2238193018480493	-0.4317718940936863	0.6528925619834711
2295.928955078125	-0.3451552434030131	-9.688266862033641	-1.8281585532329	-0.003687919821552229	0.3791599307372308	0.3687919821552229	0.2238193018480493	-0.4317718940936863	0.6528925619834711
2299.835205078125	-0.4698925350205554	-9.848598586323313	-1.670248832648156	-0.3623554458007803	0.003696764900147988	0.003660522107009284	0.2238193018480493	-0.4317718940936863	0.6528925619834711
2303.741455078125	-0.2664795538945507	-9.889495055759237	-1.784014870181642	-3.718591414975016e-05	0.3718219555833518	0.003718591414975016	0.2320328542094456	-0.4236252545824847	0.6487603305785125
2307.647705078125	-0.4421229282018484	-9.776286413451929	-1.929235726605055	-0.7174094237867555	-0.007282420507461989	-0.7228257372664771	0.2320328542094456	-0.4236252545824847	0.6487603305785125
2311.553955078125	-0.2036006722180119	-9.939164217350489	-1.879977592732937	-0.7173722378726058	-0.3791043760908138	-0.7265443286814521	0.2320328542094456	-0.4236252545824847	0.6487603305785125
2315.460205078125	-0.5262069601850414	-9.756806917126498	-1.793101327165289	-0.3550539779859753	-0.01097918540760998	-0.7264862593734864	0.215605749486653	-0.4134419551934826	0.6508264462809917
2319.366455078125	-0.3251819144649108	-9.678475485676987	-1.827269517836305	-0.3550539779859753	-0.01097918540760998	-0.7264862593734864	0.215605749486653	-0.4134419551934826	0.6508264462809917
2323.272705078125	-0.3141664977709712	-9.728247167612615	-1.861116740967629	-0.3586303400650783	-0.7472851214204346	-0.3688500514631886	0.215605749486653	-0.4134419551934826	0.6508264462809917
2327.178955078125	-0.3152177256098186	-9.658587064613842	-1.826075813006046	0.003613547993252729	0.3644839804294728	-0.3613547993252729	0.215605749486653	-0.4134419551934826	0.6508264462809917
2331.085205078125	-0.08216847877947167	-9.889901141472029	-1.927717374017612	0.003613547993252729	0.3644839804294728	-0.3613547993252729	0.215605749486653	-0.4236252545824847	0.6632231404958678
2334.991455078125	-0.52465495989483	-9.809638437032662	-1.511501336839003	0.365968993794033	0.3607872155293249	-0.3650153214322821	0.215605749486653	-0.4236252545824847	0.6632231404958678
2338.897705078125	-0.5397159871013635	-9.727841502496108	-1.676133763287885	0.007301467814804958	-0.01467595030775797	-0.7301467814804957	0.215605749486653	-0.4236252545824847	0.6632231404958678
2342.803955078125	-0.5441969147685288	-9.615957002441824	-1.860102841049041	-0.3550167920718256	-0.3828011409909618	-0.7302048507884614	0.2114989733059548	-0.4317718940936863	0.6570247933884298
2346.710205078125	-0.5795727425217324	-9.807395186748694	-1.680908582608922	0.007264281900655208	0.3571460052755938	-0.7264281900655207	0.2114989733059548	-0.4317718940936863	0.6570247933884298
2350.616455078125	-0.1958588089817286	-9.699994348237427	-1.804706367275716	0.003650733907402479	-0.007337975153878983	-0.3650733907402479	0.2114989733059548	-0.4317718940936863	0.6570247933884298
2354.522705078125	-0.7122955803479541	-9.76364223764584	-1.923480655068198	0.373419205265437	-1.14117655711184	-1.110036468572678	0.2114989733059548	-0.4317718940936863	0.6570247933884298
2358.428955078125	-0.1113339395177285	-9.662664640444065	-1.622202016075716	0.3660433656223325	-0.3828566956373787	-0.3724525042622321	0.2114989733059548	-0.4317718940936863	0.6570247933884298
2362.335205078125	-0.4022819451421524	-9.896737828929297	-1.923935161928255	0	0	0	0.2114989733059548	-0.4317718940936863	0.6570247933884298
2366.241455078125	-0.5846940280322167	-9.549051069063751	-1.510199065592779	0	0	0	0.2114989733059548	-0.4317718940936863	0.6570247933884298
2370.147705078125	-0.4289987468859446	-9.618709594826456	-1.700041770468515	0.01091501580805769	0.3498080301217149	-1.091501580805769	0.2197125256673511	-0.4236252545824847	0.6549586776859504
2374.053955078125	-0.3113582289531648	-9.917339160694857	-1.954725701561175	0.007301467814804958	-0.01467595030775797	-0.7301467814804957	0.2197125256673511	-0.4236252545824847	0.6549586776859504
2377.960205078125	-0.1038688812112542	-9.800250938258305	-1.871037292958193	-0.3587047118933778	-0.003641210253730994	-0.3614128686332386	0.2197125256673511	-0.4236252545824847	0.6549586776859504
2381.866455078125	-0.5436417276728435	-9.775777491947551	-1.878609077571887	0.3622810739724808	0.7399471462665556	0.003776660722940747	0.2053388090349076	-0.4358452138492871	0.6508264462809917
2385.772705078125	-0.5532305343439211	-9.835544539437869	-1.892315521869298	-0.358667525979228	-0.3754631658370828	-0.3651314600482136	0.2053388090349076	-0.4358452138492871	0.6508264462809917
2389.678955078125	-0.3352509895184778	-9.628397819944309	-1.824967016050743	-0.7174094237867555	-0.007282420507461989	-0.7228257372664771	0.2053388090349076	-0.4358452138492871	0.6508264462809917
2393.585205078125	-0.5911638503802323	-9.724476311622942	-1.961204987325594	-0.717483795615055	0.7363614906592416	-0.7153885544365272	0.2053388090349076	-0.4358452138492871	0.6508264462809917
2397.491455078125	-0.5206188127986399	-9.695000082804896	-1.979372906712007	0.3587047118933778	0.003641210253730994	0.3614128686332386	0.2217659137577002	-0.4175152749490835	0.6590909090909091
2401.397705078125	-0.691615649651707	-9.593622393387387	-1.946145011609772	0.007375839643104458	-0.7583198614744615	-0.7375839643104457	0.2217659137577002	-0.4175152749490835	0.6590909090909091
2405.303955078125	-0.6873894456094086	-9.535589254080376	-1.753685146353049	-0.7172606801301565	-1.494570242840869	-0.7377001029263772	0.2217659137577002	-0.4175152749490835	0.6590909090909091
2409.210205078125	-0.452447515498316	-9.766291363344456	-1.918416150056136	0.003762291649851729	-1.122803841903934	-0.3762291649851729	0.2135523613963039	-0.4236252545824847	0.6590909090909091
2413.116455078125	-0.1623409653157903	-9.602490245452106	-1.588634489473658	-0.365820250137434	-1.848075037862732	0.3501409557723821	0.2135523613963039	-0.4236252545824847	0.6590909090909091
2417.022705078125	-0.493520319926564	-9.666238236776257	-1.88265600244787	-0.7281756959382143	-1.844378272962584	0.3538014778793914	0.2135523613963039	-0.4236252545824847	0.6590909090909091
2420.928955078125	-0.4556461502427761	-9.527325588578497	-1.811794991907465	-0.7208742281234094	-1.859054223270342	-0.3763453036011044	0.2135523613963039	-0.4236252545824847	0.6590909090909091
2424.835205078125	-0.3666009222099286	-9.768534298181212	-1.779969259669048	-0.003501990250803478	-1.479949847179528	0.3501990250803478	0.2135523613963039	-0.4236252545824847	0.6590909090909091
2428.741455078125	-0.3421821534161751	-9.987305562937898	-1.927261552794166	0.0001487436565990006	-1.487287822333407	-0.01487436565990006	0.2135523613963039	-0.4236252545824847	0.6590909090909091
2432.647705078125	-0.4171426633681404	-9.8082094611557	-1.76191122106199	-0.7172606801301565	-1.494570242840869	-0.7377001029263772	0.2135523613963039	-0.4236252545824847	0.6590909090909091
2436.553955078125	-0.2874741431862219	-9.849616639630211	-1.750861893792603	-0.7209485999517089	-1.115410312103638	-0.3689081207711543	0.2176591375770021	-0.4276985743380855	0.6528925619834711
2440.460205078125	-0.2066794370213582	-9.780159684636905	-1.777352099288062	0	0	0	0.2176591375770021	-0.4276985743380855	0.6528925619834711
2444.366455078125	-0.4093716212646122	-9.799030157542225	-1.68761262451293	0	0	0	0.2176591375770021	-0.4276985743380855	0.6528925619834711
2448.272705078125	-0.6254876616765548	-9.775574343942086	-1.817077944114846	-0.358667525979228	-0.3754631658370828	-0.3651314600482136	0.2197125256673511	-0.4338085539714867	0.6487603305785125
2452.178955078125	-0.5126174942292877	-9.69907965646747	-1.579416859023749	0.7209857858658586	0.7435883565202867	0.3651895293561793	0.2197125256673511	-0.4338085539714867	0.6487603305785125
2456.085205078125	-0.4071634907704089	-9.7983161953491	-1.761216974319705	-3.718591414975016e-05	0.3718219555833518	0.003718591414975016	0.2197125256673511	-0.4338085539714867	0.6487603305785125
2459.991455078125	-0.4954279869499488	-9.656855049113817	-1.819067101668374	0.724636519773261	0.7362503813664076	0.0001161386159314638	0.2197125256673511	-0.4338085539714867	0.6487603305785125
2463.897705078125	-0.3560807576411174	-9.698466111637295	-1.797308078629424	0.003576362079102979	0.7363059360128246	-0.3576362079102978	0.2258726899383984	-0.4378818737270875	0.6673553719008265
2467.803955078125	-0.4047148317759442	-9.747524462274223	-1.842838940801862	0.003539176164953228	1.108127891596177	-0.3539176164953228	0.2258726899383984	-0.4378818737270875	0.6673553719008265
2471.710205078125	-0.3405087059487825	-9.700097814923442	-1.649709801707253	0.362243888058331	1.111769101849907	0.007495252137915762	0.2258726899383984	-0.4378818737270875	0.6673553719008265
2475.616455078125	-0.4374708704213823	-9.651448914769579	-1.417637652620591	0.3585559682367788	1.490929032587138	0.3762872342931387	0.2114989733059548	-0.4134419551934826	0.6363636363636364
2479.522705078125	-0.4408406352791432	-9.649205138740257	-1.638645490695227	0.3621695162300315	1.855413013016611	0.0149324349678658	0.2114989733059548	-0.4134419551934826	0.6363636363636364
2483.428955078125	-0.2975723971070336	-9.569548408397941	-1.74758676309888	0.007152724158205957	1.472611872025649	-0.7152724158205956	0.2114989733059548	-0.4134419551934826	0.6363636363636364
2487.335205078125	-0.334335403981417	-9.818101780620658	-1.855486533952766	0.7281756959382143	1.844378272962584	-0.3538014778793914	0.2114989733059548	-0.4134419551934826	0.6363636363636364
2491.241455078125	-0.5109353719635249	-9.768535770268207	-1.635487601215839	0.01087782989390794	0.7216299857050666	-1.087782989390794	0.2114989733059548	-0.4134419551934826	0.6363636363636364
2495.147705078125	-0.4877476359202897	-9.797705068947559	-1.741745469323678	0.7281756959382143	1.844378272962584	-0.3538014778793914	0.2114989733059548	-0.4134419551934826	0.6363636363636364
2499.053955078125	-0.3876412513475511	-9.908670671269041	-1.745291621748298	0.01087782989390794	0.7216299857050666	-1.087782989390794	0.2114989733059548	-0.4134419551934826	0.6363636363636364
2502.960205078125	-0.3652184747969506	-9.638087306851014	-1.826050840101648	0.7355515355813188	1.086058411488122	-1.091385442189837	0.2217659137577002	-0.4317718940936863	0.6673553719008265
2506.866455078125	-0.603200527427741	-9.625034837201637	-1.893315752408637	0.369545355873136	1.097093151542149	-0.7226515293425799	0.2217659137577002	-0.4317718940936863	0.6673553719008265
2510.772705078125	-0.6833146562295699	-9.797605072180893	-1.556178125681005	0.01460293562960992	-0.02935190061551593	-1.460293562960991	0.2217659137577002	-0.4317718940936863	0.6673553719008265
2514.678955078125	-0.509599453014532	-10.02810382314136	-1.680018232848938	-0.3477153242570206	-0.3974770912987198	-1.460351632268957	0.2258726899383984	-0.4317718940936863	0.6508264462809917
2518.585205078125	-0.5342177421707973	-9.606063736635225	-1.859408594306756	-0.3476037665145714	-1.512942958048775	-1.471507406513882	0.2258726899383984	-0.4317718940936863	0.6508264462809917
2522.491455078125	-0.5885898011184182	-9.616977369028289	-1.71367329605273	0.3623554458007803	-0.003696764900147988	-0.003660522107009284	0.2258726899383984	-0.4317718940936863	0.6508264462809917
2526.397705078125	-0.3535571799334565	-9.697650154845151	-1.881427335551453	-0.3513288722502733	-0.7619610717281925	-1.098996832943684	0.2258726899383984	-0.4317718940936863	0.6508264462809917
2530.303955078125	-0.4239066402427051	-9.647063147011806	-1.869778658576497	-0.3549424202435261	-1.126445052157665	-0.7376420336184115	0.2217659137577002	-0.4338085539714867	0.6776859504132231
2534.210205078125	-0.6009190554564088	-10.09429716126424	-1.969364818119709	0.003725105735701979	-0.7509818863205826	-0.3725105735701979	0.2217659137577002	-0.4338085539714867	0.6776859504132231
2538.116455078125	-0.6754584433784082	-9.775064896692351	-1.818051887386396	0.007450211471403958	-1.501963772641165	-0.7450211471403958	0.2217659137577002	-0.4338085539714867	0.6776859504132231
2542.022705078125	-0.4850434646829244	-9.706830720247478	-1.83188451056919	0.3625041894573793	-1.490984587233555	-0.01853488776690934	0.2217659137577002	-0.4297352342158859	0.6508264462809917
2545.928955078125	-0.5299079446169328	-9.954670235426141	-2.003068512768909	0.0001487436565990006	-1.487287822333407	-0.01487436565990006	0.2217659137577002	-0.4297352342158859	0.6508264462809917
2549.835205078125	-0.4911323845206899	-9.78546613766169	-1.96225384931034	-0.724487776116662	-2.223538203699815	-0.01499050427583152	0.2217659137577002	-0.4297352342158859	0.6508264462809917
2553.741455078125	-0.4355387562389544	-9.817490864517262	-1.815374792034853	-0.7245249620308118	-1.851716248116463	-0.01127191286085651	0.2217659137577002	-0.4297352342158859	0.6508264462809917
2557.647705078125	-0.3933839678685469	-9.79719414961083	-1.887201071048439	-0.724487776116662	-2.223538203699815	-0.01499050427583152	0.2217659137577002	-0.4297352342158859	0.6508264462809917
2561.553955078125	-0.2856863461039509	-9.779038585240277	-1.810455129868303	-0.7207998562951099	-2.602698134437046	-0.3837824864310544	0.2217659137577002	-0.4297352342158859	0.6508264462809917
2565.460205078125	-0.4609945577469499	-9.749054907004846	-1.633514741768339	-0.724487776116662	-2.223538203699815	-0.01499050427583152	0.2217659137577002	-0.4297352342158859	0.6508264462809917
2569.366455078125	-0.4178926391181358	-9.518451953314864	-1.736912029395474	-0.724487776116662	-2.223538203699815	-0.01499050427583152	0.2217659137577002	-0.4032586558044806	0.6549586776859504
2573.272705078125	-0.2848906305080041	-9.888781303864254	-1.836978983066531	-0.003501990250803478	-1.479949847179528	0.3501990250803478	0.2217659137577002	-0.4032586558044806	0.6549586776859504
2577.178955078125	-0.4834614969074345	-9.779652550666736	-1.551283436418854	-1.075853834281085	-2.613677319844656	-1.110268745804541	0.2217659137577002	-0.4032586558044806	0.6549586776859504
2581.085205078125	-0.2187910327820631	-9.630742433932868	-1.706965573931232	-0.7172234942160068	-1.866392198424221	-0.7414186943413522	0.215605749486653	-0.4338085539714867	0.6632231404958678
2584.991455078125	-0.194021328963338	-9.732733563031481	-1.532622367888735	7.437182829950031e-05	-0.7436439111667036	-0.007437182829950031	0.215605749486653	-0.4338085539714867	0.6632231404958678
2588.897705078125	-0.2504863801722499	-9.750990596255695	-1.650453994258335	0.003725105735701979	-0.7509818863205826	-0.3725105735701979	0.215605749486653	-0.4338085539714867	0.6632231404958678
2592.803955078125	-0.2310232871019155	-9.611364196162953	-1.632557096602818	-0.3549424202435261	-1.126445052157665	-0.7376420336184115	0.215605749486653	-0.4338085539714867	0.6632231404958678
2596.710205078125	-0.3497363255604512	-9.579748078597879	-1.675455814651629	0.7320495453305153	-0.3938914356914057	-0.7411864171094893	0.2299794661190965	-0.4236252545824847	0.6611570247933884
2600.616455078125	-0.2365664832603994	-9.703156496254197	-1.447783891320023	0.3660061797081828	-0.01103474005402697	-0.3687339128472572	0.2299794661190965	-0.4236252545824847	0.6611570247933884
2604.522705078125	-0.2814459469370471	-9.941000856176313	-1.618468435431767	0.3696569136155852	-0.01837271520790595	-0.733807303587505	0.2299794661190965	-0.4236252545824847	0.6611570247933884
2608.428955078125	-0.3329529565684391	-9.687654789290463	-1.901568114385366	-0.7137215039652034	-0.3864423512446928	-1.0916177194217	0.215605749486653	-0.4114052953156823	0.6590909090909091
2612.335205078125	-0.1961442887099077	-9.720086653349536	-1.795190376336412	0.362243888058331	1.111769101849907	0.007495252137915762	0.215605749486653	-0.4114052953156823	0.6590909090909091
2616.241455078125	-0.08620856896583	-9.721207437298952	-1.793047701139001	0.3658946219657335	1.104431126696028	-0.3575781386023321	0.215605749486653	-0.4114052953156823	0.6590909090909091
2620.147705078125	-0.3802148353247253	-9.669602796754996	-1.659505489175823	0.007227095986505457	0.7289679608589457	-0.7227095986505457	0.2217659137577002	-0.4175152749490835	0.6425619834710744
2624.053955078125	-0.4949776860527381	-9.746709451823719	-1.834077131575399	0.007189910072355707	1.100789916442297	-0.7189910072355706	0.2217659137577002	-0.4175152749490835	0.6425619834710744
2627.960205078125	-0.4300807308281042	-9.739059436301087	-1.663975639063195	0.3658574360515838	1.47625308227938	-0.3538595471873571	0.2217659137577002	-0.4175152749490835	0.6425619834710744
2631.866455078125	-0.2897169728739056	-9.757008487895895	-2.009434237536484	0.007227095986505457	0.7289679608589457	-0.7227095986505457	0.2217659137577002	-0.4175152749490835	0.6425619834710744
2635.772705078125	-0.4372405939555583	-9.664707792045631	-2.091980201481392	0.007189910072355707	1.100789916442297	-0.7189910072355706	0.2217659137577002	-0.4114052953156823	0.6425619834710744
2639.678955078125	-0.4718199174947814	-9.755888439989979	-1.939336083507289	0.7245993338591113	1.108072336949759	0.003834730030906479	0.2217659137577002	-0.4114052953156823	0.6425619834710744
2643.585205078125	-0.4238774613754603	-9.877053712511399	-1.870751287484658	-0.3514032440785728	-0.01831716056148896	-1.091559650113734	0.2217659137577002	-0.4114052953156823	0.6425619834710744
2647.491455078125	-0.3615987180225245	-9.736916918827285	-1.946709399249183	-0.3550539779859753	-0.01097918540760998	-0.7264862593734864	0.2258726899383984	-0.4297352342158859	0.6446280991735538
2651.397705078125	-0.6853776810055827	-9.824938783525139	-1.820743966480579	-0.3550911639001251	0.3608427701757418	-0.7227676679585114	0.2258726899383984	-0.4297352342158859	0.6446280991735538
2655.303955078125	-0.7255490950213757	-9.694594207390246	-1.81503016595415	-0.358667525979228	-0.3754631658370828	-0.3651314600482136	0.2258726899383984	-0.4297352342158859	0.6446280991735538
2659.210205078125	-0.5200013248782965	-9.264800428377317	-1.999955837390116	0.007375839643104458	-0.7583198614744615	-0.7375839643104457	0.2258726899383984	-0.4297352342158859	0.6446280991735538
2663.116455078125	-0.5295719933346004	-9.827894944511522	-1.680933555513321	-0.3585931541509285	-1.119107077003786	-0.3725686428781636	0.2176591375770021	-0.4215885947046843	0.6570247933884298
2667.022705078125	-0.6810820785763237	-9.953549872073012	-1.963930714122545	-0.3549796061576758	-0.7546230965743135	-0.7339234422034364	0.2176591375770021	-0.4215885947046843	0.6570247933884298
2670.928955078125	-0.2815405811010843	-9.807698121222685	-1.948647296630524	-0.358667525979228	-0.3754631658370828	-0.3651314600482136	0.2176591375770021	-0.4215885947046843	0.6570247933884298
2674.835205078125	-0.275677206020941	-9.789135629946772	-1.810759799301968	0.007338653728954708	-0.3864979058911098	-0.7338653728954707	0.2135523613963039	-0.4215885947046843	0.640495867768595
2678.741455078125	-0.5019538011783532	-10.07563172904767	-1.934873294054898	-0.7209857858658586	-0.7435883565202867	-0.3651895293561793	0.2135523613963039	-0.4215885947046843	0.640495867768595
2682.647705078125	-0.3462821785730903	-9.778631237738633	-1.790594047563657	-0.3549796061576758	-0.7546230965743135	-0.7339234422034364	0.2135523613963039	-0.4215885947046843	0.640495867768595
2686.553955078125	-0.5663799514369016	-10.0464628509646	-1.787334952103284	-0.7172978660443063	-1.122748287257517	-0.7339815115114022	0.2217659137577002	-0.4195519348268839	0.6508264462809917
2690.460205078125	-0.5173547227573874	-9.837278027024889	-1.754842574753761	0.3733820193512872	-0.7693546015284886	-1.106317877157703	0.2217659137577002	-0.4195519348268839	0.6508264462809917
2694.366455078125	-0.3568315220091465	-9.618708858782957	-1.77228259969512	-0.358667525979228	-0.3754631658370828	-0.3651314600482136	0.2217659137577002	-0.4195519348268839	0.6508264462809917
2698.272705078125	-0.3227789953163975	-9.807698541818969	-1.90736682278675	-0.7136843180510536	-0.7582643068280446	-1.095336310836675	0.2217659137577002	-0.4195519348268839	0.6508264462809917
2702.178955078125	-0.6786886228442141	-9.936109321386295	-1.710379238526199	-1.075965392023534	-1.4982114530946	-1.099112971559616	0.2217659137577002	-0.45010183299389	0.6425619834710744
2706.085205078125	-0.4955786129943748	-9.76690375153485	-1.81404623352084	0.003725105735701979	-0.7509818863205826	-0.3725105735701979	0.2217659137577002	-0.45010183299389	0.6425619834710744
2709.991455078125	-0.3855529907944617	-9.827995467023543	-1.814900306851277	-0.362243888058331	-1.111769101849907	-0.007495252137915762	0.2217659137577002	-0.45010183299389	0.6425619834710744
2713.897705078125	-0.5034545412963778	-9.706116968352495	-1.884848623454079	-0.3585931541509285	-1.119107077003786	-0.3725686428781636	0.2340862422997947	-0.4338085539714867	0.6466942148760331
2717.803955078125	-0.3373842012994848	-9.679087558420168	-1.75385995668384	-0.3622067021441813	-1.483591057433259	-0.01121384355289078	0.2340862422997947	-0.4338085539714867	0.6466942148760331
2721.710205078125	-0.4241921199708842	-9.66715545212392	-1.860262667637193	3.718591414975016e-05	-0.3718219555833518	-0.003718591414975016	0.2340862422997947	-0.4338085539714867	0.6466942148760331
2725.616455078125	-0.1140278587206565	-9.690202340986344	-1.865738042644783	-0.7209857858658586	-0.7435883565202867	-0.3651895293561793	0.2340862422997947	-0.4338085539714867	0.6466942148760331
2729.522705078125	-0.1758499922321124	-9.573524830821716	-1.471666925596254	3.718591414975016e-05	-0.3718219555833518	-0.003718591414975016	0.2217659137577002	-0.415478615071283	0.6425619834710744
2733.428955078125	-0.528190334539656	-9.907448208167823	-1.726988848678132	-0.3623182598866305	-0.3681251906832038	-5.806930796573191e-05	0.2217659137577002	-0.415478615071283	0.6425619834710744
2737.335205078125	-0.2254958633041046	-9.71957699580166	-1.816804556529849	0.3660433656223325	-0.3828566956373787	-0.3724525042622321	0.2217659137577002	-0.415478615071283	0.6425619834710744
2741.241455078125	-0.2973626247100843	-9.709480581989594	-1.754579176330523	-0.7137215039652034	-0.3864423512446928	-1.0916177194217	0.2135523613963039	-0.4175152749490835	0.640495867768595
2745.147705078125	-0.3653383447380645	-9.558126064798643	-1.822055175397851	0.003613547993252729	0.3644839804294728	-0.3613547993252729	0.2135523613963039	-0.4175152749490835	0.640495867768595
2749.053955078125	-0.4063969540417069	-9.678068348473486	-1.786768198609771	-0.3550539779859753	-0.01097918540760998	-0.7264862593734864	0.2135523613963039	-0.4175152749490835	0.640495867768595
2752.960205078125	-0.5165235193499265	-9.830342604589809	-1.449216021669121	0.3695825417872857	0.7252711959587976	-0.726370120757555	0.2053388090349076	-0.4215885947046843	0.6446280991735538
2756.866455078125	-0.4589520370398119	-9.848394491976205	-1.701598765339607	0.003613547993252729	0.3644839804294728	-0.3613547993252729	0.2053388090349076	-0.4215885947046843	0.6446280991735538
2760.772705078125	-0.5264317163246299	-9.606879588278298	-1.785609455845671	-0.7174094237867555	-0.007282420507461989	-0.7228257372664771	0.2053388090349076	-0.4215885947046843	0.6446280991735538
2764.678955078125	-0.1291740566748236	-9.621766278324861	-1.694198110839213	-0.3476037665145714	-1.512942958048775	-1.471507406513882	0.2053388090349076	-0.4215885947046843	0.6446280991735538
2768.585205078125	-0.2416089069675192	-9.778120213252832	-1.94636976774936	0.003687919821552229	-0.3791599307372308	-0.3687919821552229	0.2217659137577002	-0.4236252545824847	0.6549586776859504
2772.491455078125	-0.5828313122367496	-9.528448790956549	-1.572289592108352	0.007338653728954708	-0.3864979058911098	-0.7338653728954707	0.2217659137577002	-0.4236252545824847	0.6549586776859504
2776.397705078125	-0.3273466709672637	-10.12917542361275	-1.755110967757877	-0.7136471321369039	-1.130086262411396	-1.09905490225165	0.2217659137577002	-0.4236252545824847	0.6549586776859504
2780.303955078125	-0.4701030960355383	-9.918666667718158	-1.663230132148724	-0.7172606801301565	-1.494570242840869	-0.7377001029263772	0.2505133470225873	-0.4338085539714867	0.6487603305785125
2784.210205078125	-0.4983577029449364	-9.807802323952197	-1.721409901835456	0.00398540713475023	-3.353735575404045	-0.398540713475023	0.2505133470225873	-0.4338085539714867	0.6487603305785125
2788.116455078125	-0.3852525273236433	-9.817898317167977	-1.824915755878556	-0.358518782322629	-1.86275098817049	-0.3800058257081136	0.2505133470225873	-0.4338085539714867	0.6487603305785125
2792.022705078125	-0.5023276061263005	-9.615752592647503	-1.922413129123322	-0.7172234942160068	-1.866392198424221	-0.7414186943413522	0.2505133470225873	-0.4338085539714867	0.6487603305785125
2795.928955078125	-0.3559451153393306	-9.578422253959717	-1.801829488688983	-0.717186308301857	-2.238214154007573	-0.7451372857563272	0.2320328542094456	-0.4338085539714867	0.6508264462809917
2799.835205078125	-0.3457411866020105	-9.718456317001317	-1.808627113266317	-0.3658574360515838	-1.47625308227938	0.3538595471873571	0.2320328542094456	-0.4338085539714867	0.6508264462809917
2803.741455078125	-0.4769569753659386	-9.697549422034987	-1.768100821135384	-0.717186308301857	-2.238214154007573	-0.7451372857563272	0.2320328542094456	-0.4338085539714867	0.6508264462809917
2807.647705078125	-0.4458325874321099	-9.617485869936383	-1.805580418929672	-0.003539176164953228	-1.108127891596177	0.3539176164953228	0.2525667351129364	-0.4134419551934826	0.6570247933884298
2811.553955078125	-0.3359157945208397	-9.325279440228405	-2.136140182638679	-0.362243888058331	-1.111769101849907	-0.007495252137915762	0.2525667351129364	-0.4134419551934826	0.6570247933884298
2815.460205078125	-0.1868267666424036	-9.900407321214377	-1.772441111919883	-0.3623554458007803	0.003696764900147988	0.003660522107009284	0.2525667351129364	-0.4134419551934826	0.6570247933884298
2819.366455078125	-0.4404699848033305	-9.615751961753077	-1.984333839888984	-0.358667525979228	-0.3754631658370828	-0.3651314600482136	0.2176591375770021	-0.4175152749490835	0.6508264462809917
2823.272705078125	-0.3292078095266636	-9.729777191746955	-1.693073015777881	-0.007264281900655208	-0.3571460052755938	0.7264281900655207	0.2176591375770021	-0.4175152749490835	0.6508264462809917
2827.178955078125	-0.533777693308024	-9.759254787502929	-1.540743556399202	0.003650733907402479	-0.007337975153878983	-0.3650733907402479	0.2176591375770021	-0.4175152749490835	0.6508264462809917
2831.085205078125	-0.1778538706556019	-9.850839418178643	-1.738204311479939	-0.003650733907402479	0.007337975153878983	0.3650733907402479	0.2176591375770021	-0.4175152749490835	0.6508264462809917
2834.991455078125	-0.3385552990794462	-9.529466213369023	-1.714823364018461	-7.437182829950031e-05	0.7436439111667036	0.007437182829950031	0.2114989733059548	-0.4317718940936863	0.6466942148760331
2838.897705078125	-0.4542652800658654	-9.816879107221295	-1.857823997804487	0.003613547993252729	0.3644839804294728	-0.3613547993252729	0.2114989733059548	-0.4317718940936863	0.6466942148760331
2842.803955078125	-0.3885126742747277	-9.958952431348829	-1.71624419084241	-0.7174094237867555	-0.007282420507461989	-0.7228257372664771	0.2114989733059548	-0.4317718940936863	0.6466942148760331
2846.710205078125	-0.4823495454799964	-9.679293019705199	-1.588348484000123	0.3623182598866305	0.3681251906832038	5.806930796573191e-05	0.2217659137577002	-0.4236252545824847	0.6508264462809917
2850.616455078125	-0.4455329125793251	-9.817388975067315	-1.815569580689163	0.003687919821552229	-0.3791599307372308	-0.3687919821552229	0.2217659137577002	-0.4236252545824847	0.6508264462809917
2854.522705078125	-0.3323015580726491	-9.560777503776823	-1.589948064245031	0.36239263171493	-0.3755187204834998	-0.007379113521984299	0.2217659137577002	-0.4236252545824847	0.6508264462809917
2858.428955078125	-0.400579318807515	-9.83952064641443	-1.647356039749503	-0.7136099462227541	-1.501908217994748	-1.102773493666625	0.2217659137577002	-0.4236252545824847	0.6508264462809917
2862.335205078125	-0.4485517424121145	-9.698365063379917	-1.714941919596185	0.7283988114231127	-0.3865534605375267	-0.3761130263692414	0.2217659137577002	-0.4236252545824847	0.6508264462809917
2866.241455078125	-0.3449296986453909	-9.628193935895345	-1.835676711820307	-3.718591414975016e-05	0.3718219555833518	0.003718591414975016	0.2217659137577002	-0.4236252545824847	0.6508264462809917
2870.147705078125	-0.4211086234593361	-9.899491788251852	-1.629712551355464	0.007301467814804958	-0.01467595030775797	-0.7301467814804957	0.2217659137577002	-0.4236252545824847	0.6508264462809917
2874.053955078125	-0.4465234168295821	-9.577709238108232	-1.782552772347266	0.007264281900655208	0.3571460052755938	-0.7264281900655207	0.2114989733059548	-0.4358452138492871	0.6508264462809917
2877.960205078125	-0.5244183744847367	-9.476228607750066	-1.852720850508777	0.7209485999517089	1.115410312103638	0.3689081207711543	0.2114989733059548	-0.4358452138492871	0.6508264462809917
2881.866455078125	-0.6530971790344319	-9.884501421221133	-1.896760698852272	0.003576362079102979	0.7363059360128246	-0.3576362079102978	0.2114989733059548	-0.4358452138492871	0.6508264462809917
2885.772705078125	-0.4245525184122595	-9.637271980953296	-1.848249386258015	-0.3587790837216773	0.7400027009129726	-0.3539756858032885	0.2114989733059548	-0.4195519348268839	0.6549586776859504
2889.678955078125	-0.4687805835931173	-9.748239055361775	-1.707313880229425	1.086917593745742	1.476197527632963	0.00389279933887221	0.2114989733059548	-0.4195519348268839	0.6549586776859504
2893.585205078125	-0.4868620178685075	-9.967418719110817	-1.771266071049753	0.3695081699589862	1.468915107125501	-0.7189329379276049	0.2114989733059548	-0.4195519348268839	0.6549586776859504
2897.491455078125	-0.4865449934189826	-9.547316214538805	-1.781833552700583	-7.437182829950031e-05	0.7436439111667036	0.007437182829950031	0.2114989733059548	-0.4195519348268839	0.6549586776859504
2901.397705078125	-0.4427246437615188	-10.00648096814956	-1.909178541282708	0.003613547993252729	0.3644839804294728	-0.3613547993252729	0.2135523613963039	-0.4419551934826884	0.6652892561983471
2905.303955078125	-0.4927545718158957	-9.75599064488714	-1.908180939470149	0.003687919821552229	-0.3791599307372308	-0.3687919821552229	0.2135523613963039	-0.4419551934826884	0.6652892561983471
2909.210205078125	-0.436820260543626	-9.73457188424244	-2.105991315212468	-0.7210973436083078	0.3718775102297688	-0.3540337551112543	0.2135523613963039	-0.4419551934826884	0.6652892561983471
2913.116455078125	-0.5754766604549854	-9.732737453547113	-2.150777984833824	-0.358667525979228	-0.3754631658370828	-0.3651314600482136	0.2073921971252567	-0.4317718940936863	0.6508264462809917
2917.022705078125	-0.6040419828696392	-9.695306907794517	-1.865267237678698	-0.717335051958456	-0.7509263316741656	-0.7302629200964272	0.2073921971252567	-0.4317718940936863	0.6508264462809917
2920.928955078125	-0.6062501133638425	-9.696020869987644	-1.791662887871922	-0.7172606801301565	-1.494570242840869	-0.7377001029263772	0.2073921971252567	-0.4317718940936863	0.6508264462809917
2924.835205078125	-0.2863172405308662	-9.779242574438314	-1.789425315637796	0.3624670035432295	-1.119162631650203	-0.01481629635193433	0.2073921971252567	-0.4317718940936863	0.6508264462809917
2928.741455078125	-0.3703760367369825	-9.706421585211624	-1.987465442100584	0.3624298176290798	-0.7473406760668516	-0.01109770493695932	0.2073921971252567	-0.4317718940936863	0.6508264462809917
2932.647705078125	-0.5234878052050368	-9.675927723682962	-1.883739826498775	0.003762291649851729	-1.122803841903934	-0.3762291649851729	0.2073921971252567	-0.4317718940936863	0.6508264462809917
2936.553955078125	-0.4337959103846011	-9.716927344357687	-1.873469653846629	-0.7208742281234094	-1.859054223270342	-0.3763453036011044	0.2073921971252567	-0.4317718940936863	0.6508264462809917
2940.460205078125	-0.4871616927212922	-9.767515613979885	-1.761276909290262	-0.362243888058331	-1.111769101849907	-0.007495252137915762	0.2238193018480493	-0.4215885947046843	0.6570247933884298
2944.366455078125	-0.2108748849603444	-9.648182879470513	-1.970837167988522	-0.7245249620308118	-1.851716248116463	-0.01127191286085651	0.2238193018480493	-0.4215885947046843	0.6570247933884298
2948.272705078125	-0.4421024241329737	-9.649613117136328	-1.596585862234213	-0.724487776116662	-2.223538203699815	-0.01499050427583152	0.2238193018480493	-0.4215885947046843	0.6570247933884298
2952.178955078125	-0.4189146880897385	-9.678782415815682	-1.702843730342052	-1.079430196360188	-3.34998325585748	-0.752632537894243	0.2217659137577002	-0.4317718940936863	0.6632231404958678
2956.085205078125	-0.2879244440834327	-9.759762236920309	-1.735851863885579	-0.003390432508354228	-2.595415713929583	0.3390432508354227	0.2217659137577002	-0.4317718940936863	0.6632231404958678
2959.991455078125	-0.1301961056464263	-9.782096740825677	-1.660129811785791	-0.003464804336653728	-1.85177180276288	0.3464804336653728	0.2217659137577002	-0.4317718940936863	0.6632231404958678
2963.897705078125	-0.3070405452189637	-9.499276442954132	-1.765315159367875	-0.7208370422092596	-2.230876178853694	-0.3800638950160794	0.2217659137577002	-0.4317718940936863	0.6632231404958678
2967.803955078125	-0.07743125025137201	-9.75170277091461	-1.7522916582876	-0.3584815964084793	-2.234572943753842	-0.3837244171230887	0.2258726899383984	-0.4256619144602851	0.6714876033057852
2971.710205078125	-0.3076564559032398	-9.509475587408716	-1.744784803225343	3.718591414975016e-05	-0.3718219555833518	-0.003718591414975016	0.2258726899383984	-0.4256619144602851	0.6714876033057852
2975.616455078125	-0.08503195085963311	-9.734160330777948	-1.498934971345564	-0.3549052343293763	-1.498267007741017	-0.7413606250333865	0.2258726899383984	-0.4256619144602851	0.6714876033057852
2979.522705078125	-0.3211820437982684	-9.890515527494774	-1.627265206724388	0.003687919821552229	-0.3791599307372308	-0.3687919821552229	0.2053388090349076	-0.4439918533604887	0.6611570247933884
2983.428955078125	-0.3128739528138286	-9.537829244743138	-1.904201572872381	-0.7137215039652034	-0.3864423512446928	-1.0916177194217	0.2053388090349076	-0.4439918533604887	0.6611570247933884
2987.335205078125	-0.3855821696617066	-9.598004901523952	-1.813927677943116	-0.3552027216425743	1.476308636925797	-0.7116118937135864	0.2053388090349076	-0.4439918533604887	0.6611570247933884
2991.241455078125	-0.1571439724740762	-9.700809884433285	-1.761867584197462	0.003576362079102979	0.7363059360128246	-0.3576362079102978	0.2053388090349076	-0.4439918533604887	0.6611570247933884
2995.147705078125	-0.568361748555449	-9.777103632032928	-1.721275048151703	0.003539176164953228	1.108127891596177	-0.3539176164953228	0.2053388090349076	-0.4439918533604887	0.6611570247933884
2999.053955078125	-0.4720596573770092	-9.595965955885234	-1.931344754099696	0.01091501580805769	0.3498080301217149	-1.091501580805769	0.2053388090349076	-0.4439918533604887	0.6611570247933884
3002.960205078125	-0.3680275322327906	-9.65899556875527	-1.732415592240314	0.003539176164953228	1.108127891596177	-0.3539176164953228	0.2053388090349076	-0.4439918533604887	0.6611570247933884
3006.866455078125	-0.625562580389751	-9.725598567659354	-1.814580653674973	0.007152724158205957	1.472611872025649	-0.7152724158205956	0.2361396303901437	-0.4236252545824847	0.6466942148760331
3010.772705078125	-0.522782780682959	-9.935699765754158	-1.907240643901367	0.3658574360515838	1.47625308227938	-0.3538595471873571	0.2361396303901437	-0.4236252545824847	0.6466942148760331
3014.678955078125	-0.6775206795363874	-9.5923983530501	-2.082644015453759	0.007189910072355707	1.100789916442297	-0.7189910072355706	0.2361396303901437	-0.4236252545824847	0.6466942148760331
3018.585205078125	-0.4970951254730724	-9.597394090569628	-1.763495817564259	-0.3514404299927226	0.3535047950218628	-1.087841058698759	0.2279260780287475	-0.4480651731160896	0.6735537190082644
3022.491455078125	-0.5461795005051099	-9.556598038496652	-1.794016649829671	-0.3696569136155852	0.01837271520790595	0.733807303587505	0.2279260780287475	-0.4480651731160896	0.6735537190082644
3026.397705078125	-0.6077374469752951	-9.756501774522011	-1.742085100823501	0.007227095986505457	0.7289679608589457	-0.7227095986505457	0.2279260780287475	-0.4480651731160896	0.6735537190082644
3030.303955078125	-0.4280374215029325	-9.628398766285947	-1.732085949902251	-0.7137215039652034	-0.3864423512446928	-1.0916177194217	0.2279260780287475	-0.4480651731160896	0.6735537190082644
3034.210205078125	-0.6970539596117161	-9.755380780274455	-1.764868012942799	0.003650733907402479	-0.007337975153878983	-0.3650733907402479	0.2094455852156057	-0.4317718940936863	0.6714876033057852
3038.116455078125	-0.6957574715644054	-9.848294915805823	-1.474750947853158	-0.358667525979228	-0.3754631658370828	-0.3651314600482136	0.2094455852156057	-0.4317718940936863	0.6714876033057852
3042.022705078125	-0.4483269862725259	-9.848292392228116	-1.722433790915804	-0.717335051958456	-0.7509263316741656	-0.7302629200964272	0.2094455852156057	-0.4317718940936863	0.6714876033057852
3045.928955078125	-0.5392704179123546	-9.74436410179166	-2.024319402921514	-0.7172606801301565	-1.494570242840869	-0.7377001029263772	0.2299794661190965	-0.4317718940936863	0.6466942148760331
3049.835205078125	-0.7944569615651229	-9.763541084239391	-1.851434614495903	0	0	0	0.2299794661190965	-0.4317718940936863	0.6466942148760331
3053.741455078125	-0.5216400731522088	-9.645330290319215	-1.945330894926373	-0.007189910072355707	-1.100789916442297	0.7189910072355706	0.2299794661190965	-0.4317718940936863	0.6466942148760331
3057.647705078125	-0.5384691819901722	-9.717438368843489	-1.717693933660925	-0.7245249620308118	-1.851716248116463	-0.01127191286085651	0.2299794661190965	-0.4317718940936863	0.6466942148760331
3061.553955078125	-0.407043620829295	-9.878277437401474	-1.765212639023501	-1.086843221917442	-2.219841438799667	-0.01132998216882224	0.2299794661190965	-0.4317718940936863	0.6466942148760331
3065.460205078125	-0.1672729824982	-9.610751597674417	-1.757567250060001	-0.7281756959382143	-1.844378272962584	0.3538014778793914	0.2299794661190965	-0.4317718940936863	0.6466942148760331
3069.366455078125	-0.4883635466045657	-9.807904213402143	-1.721215113181146	-1.086806036003293	-2.591663394383019	-0.01504857358379726	0.2299794661190965	-0.4317718940936863	0.6466942148760331
3073.272705078125	-0.47653743057204	-9.977413769218293	-1.782085647598671	-0.3584815964084793	-2.234572943753842	-0.3837244171230887	0.2073921971252567	-0.4338085539714867	0.6508264462809917
3077.178955078125	-0.2598346583430662	-9.760679872864259	-1.672178055231127	0.0001487436565990006	-1.487287822333407	-0.01487436565990006	0.2073921971252567	-0.4338085539714867	0.6508264462809917
3081.085205078125	-0.2868432487593067	-9.849412650432175	-1.771891708023111	-0.3621695162300315	-1.855413013016611	-0.0149324349678658	0.2073921971252567	-0.4338085539714867	0.6508264462809917
3084.991455078125	-0.3330878102521922	-9.597698391981544	-1.897072991593594	0.0001115577424492505	-1.115465866750055	-0.01115577424492505	0.2361396303901437	-0.415478615071283	0.6466942148760331
3088.897705078125	-0.2651570414521297	-9.719067443402855	-1.828098618262343	-0.362243888058331	-1.111769101849907	-0.007495252137915762	0.2361396303901437	-0.415478615071283	0.6466942148760331
3092.803955078125	-0.1261702105846735	-9.730795034755712	-1.794326313844216	-0.3549796061576758	-0.7546230965743135	-0.7339234422034364	0.2361396303901437	-0.415478615071283	0.6466942148760331
3096.710205078125	-0.2562149015686401	-9.859509484840528	-1.792836614378662	-0.7210601576941581	5.555464641699391e-05	-0.3577523465262293	0.2361396303901437	-0.415478615071283	0.6466942148760331
3100.616455078125	-0.3839749661091401	-9.617485239041955	-1.867501129695333	0.007301467814804958	-0.01467595030775797	-0.7301467814804957	0.2114989733059548	-0.4378818737270875	0.6446280991735538
3104.522705078125	-0.1980661508578982	-9.490708055444054	-1.731128304736729	-0.3514032440785728	-0.01831716056148896	-1.091559650113734	0.2114989733059548	-0.4378818737270875	0.6446280991735538
3108.428955078125	-0.2169890405751865	-9.780159789785976	-1.767031980827118	-0.3513288722502733	-0.7619610717281925	-1.098996832943684	0.2114989733059548	-0.4378818737270875	0.6446280991735538
3112.335205078125	-0.268131708675035	-9.840029252471595	-1.728943044165501	-0.0001115577424492505	1.115465866750055	0.01115577424492505	0.2135523613963039	-0.405295315682281	0.6446280991735538
3116.241455078125	-0.2643605372381493	-9.618809907040335	-1.854648758728359	0.3585931541509285	1.119107077003786	0.3725686428781636	0.2135523613963039	-0.405295315682281	0.6446280991735538
3120.147705078125	-0.3164195794930921	-9.698975664036102	-1.78601401689693	0.003501990250803478	1.479949847179528	-0.3501990250803478	0.2135523613963039	-0.405295315682281	0.6446280991735538
3124.053955078125	-0.264556114510493	-9.698873143691726	-1.848129516316901	0.007189910072355707	1.100789916442297	-0.7189910072355706	0.2135523613963039	-0.405295315682281	0.6446280991735538
3127.960205078125	-0.4100624506620844	-9.759253525714074	-1.664584977930524	0.3621323303158818	2.227234968599963	0.01865102638284081	0.2135523613963039	-0.405295315682281	0.6446280991735538
3131.866455078125	-0.3463578859043202	-9.938655716442398	-1.788070469855996	0.3622067021441813	1.483591057433259	0.01121384355289078	0.2135523613963039	-0.405295315682281	0.6446280991735538
3135.772705078125	-0.5152814459469371	-9.746607667522841	-1.823951801768765	0.3622067021441813	1.483591057433259	0.01121384355289078	0.2135523613963039	-0.405295315682281	0.6446280991735538
3139.678955078125	-0.6962882115010478	-9.845133188385338	-1.790392949965077	0.724487776116662	2.223538203699815	0.01499050427583152	0.2258726899383984	-0.4012219959266802	0.6590909090909091
3143.585205078125	-0.4199209647006683	-9.639107778586549	-1.669301176644393	0.3621695162300315	1.855413013016611	0.0149324349678658	0.2258726899383984	-0.4012219959266802	0.6590909090909091
3147.491455078125	-0.4293954217568675	-9.915504519701386	-2.020152608104417	-0.3587790837216773	0.7400027009129726	-0.3539756858032885	0.2258726899383984	-0.4012219959266802	0.6590909090909091
3151.397705078125	-0.561090690285251	-9.574752656525565	-1.963643657158299	0.3658574360515838	1.47625308227938	-0.3538595471873571	0.2053388090349076	-0.4338085539714867	0.6652892561983471
3155.303955078125	-0.6548092687854731	-9.795054996907304	-1.839691040484232	0.3695825417872857	0.7252711959587976	-0.726370120757555	0.2053388090349076	-0.4338085539714867	0.6652892561983471
3159.210205078125	-0.3455219507886575	-10.00505209742167	-2.149268307044751	0.7209857858658586	0.7435883565202867	0.3651895293561793	0.2053388090349076	-0.4338085539714867	0.6652892561983471
3163.116455078125	-0.3229138490001506	-9.717742144510048	-1.902871699994979	0.007264281900655208	0.3571460052755938	-0.7264281900655207	0.2053388090349076	-0.4338085539714867	0.6652892561983471
3167.022705078125	-0.527964789782034	-9.847375282029525	-1.734507007265538	0.01091501580805769	0.3498080301217149	-1.091501580805769	0.2012320328542095	-0.4175152749490835	0.6528925619834711
3170.928955078125	-0.640128355471156	-9.763641501602342	-1.995721484294803	-0.7100707700578009	-0.3937803263985717	-1.456691110161948	0.2012320328542095	-0.4175152749490835	0.6528925619834711
3174.835205078125	-0.5740445301058879	-9.705607731400903	-1.865182329803742	-0.358816269635827	1.111824656496325	-0.3502570943883135	0.2012320328542095	-0.4175152749490835	0.6528925619834711
3178.741455078125	-0.6047635683704236	-9.845540220439769	-1.841214387652555	0	0	0	0.2279260780287475	-0.4338085539714867	0.6590909090909091
3182.647705078125	-0.4695061121840698	-9.615140309606183	-2.016462927197675	-0.3549424202435261	-1.126445052157665	-0.7376420336184115	0.2279260780287475	-0.4338085539714867	0.6590909090909091
3186.553955078125	-0.6074977070930673	-9.916424258626757	-1.750076430231094	0.003762291649851729	-1.122803841903934	-0.3762291649851729	0.2279260780287475	-0.4338085539714867	0.6590909090909091
3190.460205078125	-0.7017454482938644	-9.713564361615015	-1.941818390204523	-0.365820250137434	-1.848075037862732	0.3501409557723821	0.2279260780287475	-0.4338085539714867	0.6590909090909091
3194.366455078125	-0.4147089881163149	-9.747422572824275	-1.843033729456172	0.00383666347815123	-1.866447753070638	-0.3836663478151229	0.2279260780287475	-0.4338085539714867	0.6590909090909091
3198.272705078125	-0.483165765144818	-9.696223597396825	-1.894474495172737	0.007450211471403958	-1.501963772641165	-0.7450211471403958	0.2279260780287475	-0.4338085539714867	0.6590909090909091
3202.178955078125	-0.4838423994176845	-9.876442375811719	-1.871920019410519	-0.358518782322629	-1.86275098817049	-0.3800058257081136	0.2279260780287475	-0.4338085539714867	0.6590909090909091
3206.085205078125	-0.2657579683937665	-9.739261743113985	-1.808067720207785	-0.003613547993252729	-0.3644839804294728	0.3613547993252729	0.2114989733059548	-0.4358452138492871	0.6487603305785125
3209.991455078125	-0.3958917732155349	-9.598005006673024	-1.803607559482172	-0.003539176164953228	-1.108127891596177	0.3539176164953228	0.2114989733059548	-0.4358452138492871	0.6487603305785125
3213.897705078125	-0.4245075671843418	-9.667257446722937	-1.849747760521939	-0.3621695162300315	-1.855413013016611	-0.0149324349678658	0.2114989733059548	-0.4358452138492871	0.6487603305785125
3217.803955078125	-0.5259057080961894	-9.536709512284435	-1.803143063460356	0.0001115577424492505	-1.115465866750055	-0.01115577424492505	0.2258726899383984	-0.4134419551934826	0.6590909090909091
3221.710205078125	-0.3567865707812288	-9.648694324552597	-1.773780973959044	-1.087029151488191	-0.3607316608829078	0.007262974906052836	0.2258726899383984	-0.4134419551934826	0.6590909090909091
3225.616455078125	-0.5922150782190797	-9.654816208624169	-1.926164059364011	-0.3622810739724808	-0.7399471462665556	-0.003776660722940747	0.2258726899383984	-0.4134419551934826	0.6590909090909091
3229.522705078125	-0.197525947504852	-9.640533389693235	-1.749135083171601	0.3697684713580345	-1.133838581957961	-0.7449630778324301	0.2258726899383984	-0.4134419551934826	0.6590909090909091
3233.428955078125	-0.6001769658867498	-9.817390552303383	-1.660767803775009	0	0	0	0.2114989733059548	-0.4276985743380855	0.6384297520661157
3237.335205078125	-0.4268261042032553	-9.734673773692387	-2.105796526558158	3.718591414975016e-05	-0.3718219555833518	-0.003718591414975016	0.2114989733059548	-0.4276985743380855	0.6384297520661157
3241.241455078125	-0.4087856780656147	-9.768840702574551	-1.707144064479513	-0.358667525979228	-0.3754631658370828	-0.3651314600482136	0.2114989733059548	-0.4276985743380855	0.6384297520661157
3245.147705078125	-0.4044695715674809	-9.770778494806819	-1.517680947750638	0.003762291649851729	-1.122803841903934	-0.3762291649851729	0.2258726899383984	-0.415478615071283	0.6446280991735538
3249.053955078125	-0.3239004101602393	-9.761394465951811	-1.53665299465869	-0.3549424202435261	-1.126445052157665	-0.7376420336184115	0.2258726899383984	-0.415478615071283	0.6446280991735538
3252.960205078125	-0.3081225291611234	-9.619626284428763	-1.729249027962555	0.003650733907402479	-0.007337975153878983	-0.3650733907402479	0.2258726899383984	-0.415478615071283	0.6446280991735538
3256.866455078125	-0.2761629947296657	-9.815959368295925	-2.12790017567781	-0.3549796061576758	-0.7546230965743135	-0.7339234422034364	0.2258726899383984	-0.415478615071283	0.6446280991735538
3260.772705078125	-0.481794358384311	-9.839113509210927	-1.606854720522969	0.3733076475229877	-0.02571069036178494	-1.098880694327753	0.2258726899383984	-0.415478615071283	0.6446280991735538
3264.678955078125	-0.3968696595772535	-9.998321189929978	-1.771011347424886	0.007301467814804958	-0.01467595030775797	-0.7301467814804957	0.2258726899383984	-0.415478615071283	0.6446280991735538
3268.585205078125	-0.499639207249608	-9.724883343677373	-2.012026425013071	-7.437182829950031e-05	0.7436439111667036	0.007437182829950031	0.2258726899383984	-0.415478615071283	0.6446280991735538
3272.491455078125	-0.5370575557099495	-9.816981943012884	-1.764748143001685	0.7245993338591113	1.108072336949759	0.003834730030906479	0.2238193018480493	-0.4215885947046843	0.6611570247933884
3276.397705078125	-0.446479254219698	-9.817694958864369	-1.784024859343402	0.003576362079102979	0.7363059360128246	-0.3576362079102978	0.2238193018480493	-0.4215885947046843	0.6611570247933884
3280.303955078125	-0.5330766118761144	-9.735694771173279	-1.897446270796186	-0.3587790837216773	0.7400027009129726	-0.3539756858032885	0.2238193018480493	-0.4215885947046843	0.6611570247933884
3284.210205078125	-0.4559174348463497	-9.767413303933653	-1.802752171788346	0.7209485999517089	1.115410312103638	0.3689081207711543	0.2012320328542095	-0.4399185336048879	0.6570247933884298
3288.116455078125	-0.4664872823512806	-9.734164221293582	-2.117090588290652	0.3623182598866305	0.3681251906832038	5.806930796573191e-05	0.2012320328542095	-0.4399185336048879	0.6570247933884298
3292.022705078125	-0.3821729739022635	-9.766902594895065	-1.927567536591219	0.3695825417872857	0.7252711959587976	-0.726370120757555	0.2012320328542095	-0.4399185336048879	0.6570247933884298
3295.928955078125	-0.447965799213117	-9.668175608412241	-1.734473359562769	0.3623182598866305	0.3681251906832038	5.806930796573191e-05	0.2012320328542095	-0.4399185336048879	0.6570247933884298
3299.835205078125	-0.5403823693397928	-9.844723632753199	-1.987254355340245	-0.3550167920718256	-0.3828011409909618	-0.7302048507884614	0.2320328542094456	-0.4236252545824847	0.6673553719008265
3303.741455078125	-0.5302817495648801	-9.494791099025978	-1.990608347837333	-0.3549796061576758	-0.7546230965743135	-0.7339234422034364	0.2320328542094456	-0.4236252545824847	0.6673553719008265
3307.647705078125	-0.4133572968066491	-9.806985525967484	-1.888090106445034	-0.3549424202435261	-1.126445052157665	-0.7376420336184115	0.2320328542094456	-0.4236252545824847	0.6673553719008265
3311.553955078125	-0.2998720072931396	-9.930291949024781	-1.670933090228681	-0.7209485999517089	-1.115410312103638	-0.3689081207711543	0.2135523613963039	-0.4256619144602851	0.6632231404958678
3315.460205078125	-0.3540082694487008	-9.817796007121746	-1.86639101837664	0.003762291649851729	-1.122803841903934	-0.3762291649851729	0.2135523613963039	-0.4256619144602851	0.6632231404958678
3319.366455078125	-0.2575413571012294	-9.746605038796064	-2.081954763292354	-0.3549052343293763	-1.498267007741017	-0.7413606250333865	0.2135523613963039	-0.4256619144602851	0.6632231404958678
3323.272705078125	-0.2863621917587839	-9.749257108668674	-1.787926941373873	0.01102657355050694	-0.7656578366283405	-1.102657355050694	0.2135523613963039	-0.4256619144602851	0.6632231404958678
3327.178955078125	-0.4870268390375391	-9.857472011288804	-1.765772032082033	0.003762291649851729	-1.122803841903934	-0.3762291649851729	0.2135523613963039	-0.4256619144602851	0.6632231404958678
3331.085205078125	-0.3563812211119357	-9.708563261492859	-1.787292629602145	-0.3549424202435261	-1.126445052157665	-0.7376420336184115	0.2135523613963039	-0.4256619144602851	0.6632231404958678
3334.991455078125	-0.4424833266432237	-9.746402942281309	-1.917222445225877	0.7248224493440097	-1.122859396550351	-0.01847681845894361	0.2135523613963039	-0.4256619144602851	0.6632231404958678
3338.897705078125	-0.3893525524805586	-9.609223991968713	-1.688248250648047	-0.3622810739724808	-0.7399471462665556	-0.003776660722940747	0.2217659137577002	-0.4297352342158859	0.6652892561983471
3342.803955078125	-0.3498569841195987	-9.709787091532004	-1.671433862680045	3.718591414975016e-05	-0.3718219555833518	-0.003718591414975016	0.2217659137577002	-0.4297352342158859	0.6652892561983471
3346.710205078125	-0.4396995049844603	-9.778836173278309	-1.676683167184657	0.0001487436565990006	-1.487287822333407	-0.01487436565990006	0.2217659137577002	-0.4297352342158859	0.6652892561983471
3350.616455078125	-0.6066262841658907	-9.866142498546971	-1.779123861136982	0.0001487436565990006	-1.487287822333407	-0.01487436565990006	0.2258726899383984	-0.4317718940936863	0.6590909090909091
3354.522705078125	-0.4227197701020708	-9.596679392333003	-1.909340996597639	-0.7172234942160068	-1.866392198424221	-0.7414186943413522	0.2258726899383984	-0.4317718940936863	0.6590909090909091
3358.428955078125	-0.3078228543083386	-9.819529389559696	-1.739238189722046	0.0001487436565990006	-1.487287822333407	-0.01487436565990006	0.2258726899383984	-0.4317718940936863	0.6590909090909091
3362.335205078125	-0.2631594719729094	-9.788421562604574	-1.894684267569687	0.00379947756400148	-1.494625797487286	-0.3799477564001479	0.2258726899383984	-0.4317718940936863	0.6590909090909091
3366.241455078125	-0.3388257950649861	-9.55955367373768	-1.705806831167131	0.0001115577424492505	-1.115465866750055	-0.01115577424492505	0.2176591375770021	-0.4175152749490835	0.6466942148760331
3370.147705078125	-0.6181976765735494	-9.866550582092115	-1.726744114215024	-0.3622067021441813	-1.483591057433259	-0.01121384355289078	0.2176591375770021	-0.4175152749490835	0.6466942148760331
3374.053955078125	-0.288495403539791	-9.799946847144533	-1.71681988200697	-0.3549052343293763	-1.498267007741017	-0.7413606250333865	0.2176591375770021	-0.4175152749490835	0.6466942148760331
3377.960205078125	-0.451240141288807	-9.589234312350047	-1.625328623706436	-0.003539176164953228	-1.108127891596177	0.3539176164953228	0.2197125256673511	-0.4195519348268839	0.6694214876033058
3381.866455078125	-0.303315902246063	-9.668072141726229	-1.889469925131233	7.437182829950031e-05	-0.7436439111667036	-0.007437182829950031	0.2197125256673511	-0.4195519348268839	0.6694214876033058
3385.772705078125	-0.5989751120034763	-9.777001952881124	-1.700829599884126	0.003725105735701979	-0.7509818863205826	-0.3725105735701979	0.2197125256673511	-0.4195519348268839	0.6694214876033058
3389.678955078125	-0.2851903053607889	-9.688878198733322	-1.82698982130704	0.3623182598866305	0.3681251906832038	5.806930796573191e-05	0.2197125256673511	-0.4195519348268839	0.6694214876033058
3393.585205078125	-0.3996329771671421	-9.839214662617376	-1.678900761095264	-0.3587047118933778	-0.003641210253730994	-0.3614128686332386	0.2197125256673511	-0.4195519348268839	0.6694214876033058
3397.491455078125	-0.2489840628181581	-9.700504846977873	-1.70053123939473	-0.3550911639001251	0.3608427701757418	-0.7227676679585114	0.2197125256673511	-0.4195519348268839	0.6694214876033058
3401.397705078125	-0.3183264578984434	-9.479592221387163	-1.722451403385222	0.3659318078798833	0.7326091711126765	-0.3612967300173071	0.2197125256673511	-0.4195519348268839	0.6694214876033058
3405.303955078125	-0.5029829477122587	-9.459297819760298	-1.567235076258049	0.3659318078798833	0.7326091711126765	-0.3612967300173071	0.2299794661190965	-0.4358452138492871	0.6652892561983471
3409.210205078125	-0.2956047951130918	-9.618912217086566	-1.813173496230274	0.7245993338591113	1.108072336949759	0.003834730030906479	0.2299794661190965	-0.4358452138492871	0.6652892561983471
3413.116455078125	-0.4345924145985816	-9.817184880720209	-1.846919513380614	0.007227095986505457	0.7289679608589457	-0.7227095986505457	0.2299794661190965	-0.4358452138492871	0.6652892561983471
3417.022705078125	-0.4009886115669762	-9.496319651073323	-1.967046281100795	0.007227095986505457	0.7289679608589457	-0.7227095986505457	0.2258726899383984	-0.4358452138492871	0.6632231404958678
3420.928955078125	-0.3774057778888853	-9.64869453485074	-1.753140737037157	-0.3514404299927226	0.3535047950218628	-1.087841058698759	0.2258726899383984	-0.4358452138492871	0.6632231404958678
3424.835205078125	-0.1404213270706547	-9.978736229086179	-1.985955764311511	0.362243888058331	1.111769101849907	0.007495252137915762	0.2258726899383984	-0.4358452138492871	0.6632231404958678
3428.741455078125	-0.4005990342583561	-9.756193687743536	-1.980032191388133	0.3695825417872857	0.7252711959587976	-0.726370120757555	0.2258726899383984	-0.4358452138492871	0.6632231404958678
3432.647705078125	-0.5143051368212859	-9.766291994238882	-1.856495439290475	0.3660061797081828	-0.01103474005402697	-0.3687339128472572	0.2217659137577002	-0.4236252545824847	0.6590909090909091
3436.553955078125	-0.4601286551460088	-9.83544159849721	-1.995711495133044	0.3660433656223325	-0.3828566956373787	-0.3724525042622321	0.2217659137577002	-0.4236252545824847	0.6590909090909091
3440.460205078125	-0.6013685677355859	-9.79444250356784	-1.954381075480472	0.003650733907402479	-0.007337975153878983	-0.3650733907402479	0.2217659137577002	-0.4236252545824847	0.6590909090909091
3444.366455078125	-0.4016660344578764	-9.886538684474713	-1.944465518070788	0.003650733907402479	-0.007337975153878983	-0.3650733907402479	0.2279260780287475	-0.415478615071283	0.6528925619834711
3448.272705078125	-0.5058132978350071	-9.816879632966652	-1.806223405499769	0.01098938763635719	-0.3938358810449887	-1.098938763635719	0.2279260780287475	-0.415478615071283	0.6528925619834711
3452.178955078125	-0.4002173431300723	-9.449403607612057	-1.659421895664257	0.3623554458007803	-0.003696764900147988	-0.003660522107009284	0.2279260780287475	-0.415478615071283	0.6528925619834711
3456.085205078125	-0.5416141907083447	-9.865121921662364	-1.94619364305518	-0.7172978660443063	-1.122748287257517	-0.7339815115114022	0.2197125256673511	-0.4338085539714867	0.6508264462809917
3459.991455078125	-0.3267599391502325	-9.888985713658574	-1.774668694992249	3.718591414975016e-05	-0.3718219555833518	-0.003718591414975016	0.2197125256673511	-0.4338085539714867	0.6508264462809917
3463.897705078125	-0.3331934850687005	-9.737732560172216	-1.893550497709985	-0.3623554458007803	0.003696764900147988	0.003660522107009284	0.2197125256673511	-0.4338085539714867	0.6508264462809917
3467.803955078125	-0.4980012475937293	-9.554353736721973	-2.066625080209026	-0.3549796061576758	-0.7546230965743135	-0.7339234422034364	0.2197125256673511	-0.4338085539714867	0.6508264462809917
3471.710205078125	-0.6528858294014153	-9.604433084839791	-1.903805686619491	0.3587047118933778	0.003641210253730994	0.3614128686332386	0.2135523613963039	-0.4317718940936863	0.6652892561983471
3475.616455078125	-0.6356174603187122	-9.895516312169716	-1.812751322709597	7.437182829950031e-05	-0.7436439111667036	-0.007437182829950031	0.2135523613963039	-0.4317718940936863	0.6652892561983471
3479.522705078125	-0.2238886597515381	-9.739057333319664	-1.870378008282066	0.36239263171493	-0.3755187204834998	-0.007379113521984299	0.2135523613963039	-0.4317718940936863	0.6652892561983471
3483.428955078125	-0.02460567126772716	-9.551289167043233	-1.846477624409095	-0.3548680484152266	-1.870088963324369	-0.7450792164483615	0.2443531827515401	-0.4317718940936863	0.6570247933884298
3487.335205078125	-0.5571058033612478	-9.776797543086804	-1.763139887958407	0.358816269635827	-1.111824656496325	0.3502570943883135	0.2443531827515401	-0.4317718940936863	0.6570247933884298
3491.241455078125	-0.4519522633731875	-9.886131231823995	-1.934924554227085	0.003650733907402479	-0.007337975153878983	-0.3650733907402479	0.2443531827515401	-0.4317718940936863	0.6570247933884298
3495.147705078125	-0.1809334240769818	-9.901835140451556	-1.635552530767275	-0.3549052343293763	-1.498267007741017	-0.7413606250333865	0.2443531827515401	-0.4317718940936863	0.6570247933884298
3499.053955078125	-0.2434708341449528	-9.588722236373536	-1.884305528501576	-0.3585559682367788	-1.490929032587138	-0.3762872342931387	0.2258726899383984	-0.4195519348268839	0.6756198347107438
3502.960205078125	-0.3914904959697676	-9.586581927030224	-1.950316801007749	0.003725105735701979	-0.7509818863205826	-0.3725105735701979	0.2258726899383984	-0.4195519348268839	0.6756198347107438
3506.866455078125	-0.376930241214598	-9.685207444659387	-2.102325292846735	-0.3549052343293763	-1.498267007741017	-0.7413606250333865	0.2258726899383984	-0.4195519348268839	0.6756198347107438
3510.772705078125	-0.6950863576177743	-9.80474458896308	-1.830454746074194	0.007413025557254208	-1.130141817057813	-0.7413025557254208	0.2176591375770021	-0.4338085539714867	0.6466942148760331
3514.678955078125	-0.3930984881403677	-9.777101844498718	-1.896717061987743	0.003687919821552229	-0.3791599307372308	-0.3687919821552229	0.2176591375770021	-0.4338085539714867	0.6466942148760331
3518.585205078125	-0.5123328031191422	-9.888987606341855	-1.588906562695265	-0.3622810739724808	-0.7399471462665556	-0.003776660722940747	0.2176591375770021	-0.4338085539714867	0.6466942148760331
3522.491455078125	-0.6355867042154002	-9.705506367696312	-1.813776526153334	-0.3622067021441813	-1.483591057433259	-0.01121384355289078	0.2197125256673511	-0.405295315682281	0.6549586776859504
3526.397705078125	-0.5271233343401357	-9.777103211436645	-1.762555521995477	-0.358518782322629	-1.86275098817049	-0.3800058257081136	0.2197125256673511	-0.405295315682281	0.6549586776859504
3530.303955078125	-0.3847564865804813	-9.727737930661023	-1.841450447317292	-0.717186308301857	-2.238214154007573	-0.7451372857563272	0.2197125256673511	-0.405295315682281	0.6549586776859504
3534.210205078125	-0.4661213635836696	-9.627379240892054	-1.795954547211013	0.00383666347815123	-1.866447753070638	-0.3836663478151229	0.2197125256673511	-0.405295315682281	0.6549586776859504
3538.116455078125	-0.6071365200336583	-9.736307474810884	-1.762115998878059	-0.3585559682367788	-1.490929032587138	-0.3762872342931387	0.2135523613963039	-0.4114052953156823	0.6694214876033058
3542.022705078125	-0.2037647047690099	-9.619217254541979	-1.874509841033005	0.003762291649851729	-1.122803841903934	-0.3762291649851729	0.2135523613963039	-0.4114052953156823	0.6694214876033058
3545.928955078125	-0.3003065358296775	-9.640432446584928	-1.656448805677419	-0.7245993338591113	-1.108072336949759	-0.003834730030906479	0.2135523613963039	-0.4114052953156823	0.6694214876033058
3549.835205078125	-0.4570435813983934	-9.647777424652146	-1.765213953386891	7.437182829950031e-05	-0.7436439111667036	-0.007437182829950031	0.215605749486653	-0.4215885947046843	0.6528925619834711
3553.741455078125	-0.295619778855731	-9.608917061830018	-1.8126740381423	7.437182829950031e-05	-0.7436439111667036	-0.007437182829950031	0.215605749486653	-0.4215885947046843	0.6528925619834711
3557.647705078125	-0.2473618755229524	-9.729980339752423	-1.754604149234922	3.718591414975016e-05	-0.3718219555833518	-0.003718591414975016	0.215605749486653	-0.4215885947046843	0.6528925619834711
3561.553955078125	-0.2867675414280769	-9.689388171728412	-1.774415285730772	-0.717335051958456	-0.7509263316741656	-0.7302629200964272	0.215605749486653	-0.4215885947046843	0.6528925619834711
3565.460205078125	-0.4153848337711478	-9.71764109625267	-1.820505540961741	0.3696197277014355	0.3534492403754458	-0.73008871217253	0.2073921971252567	-0.4236252545824847	0.6487603305785125
3569.366455078125	-0.2354300846739183	-9.759455727377899	-1.818997177536057	0.3623554458007803	-0.003696764900147988	-0.003660522107009284	0.2073921971252567	-0.4236252545824847	0.6487603305785125
3573.272705078125	-0.255778795796035	-9.729368477307386	-1.8073734734655	-0.3550539779859753	-0.01097918540760998	-0.7264862593734864	0.2073921971252567	-0.4236252545824847	0.6487603305785125
3577.178955078125	-0.4881529855895828	-9.737836132007299	-1.728233813680577	-0.3549052343293763	-1.498267007741017	-0.7413606250333865	0.2073921971252567	-0.4175152749490835	0.6652892561983471
