Time Stamp	Accelerometer X	Accelerometer Y	Accelerometer Z	Gyroscope X	Gyroscope Y	Gyroscope Z	Magnetometer X	Magnetometer Y	Magnetometer Z
1367.218017578125	-2.47659578830653	-3.384099304885778	8.886526276884316	57.1516504391669	-17.48243550674895	9.472637242730622	0.1806981519507187	-0.3767820773930753	0.737603305785124
1371.124267578125	-0.2050115098802011	-9.629620388194599	-1.832949670659966	-16.99587849402011	-19.5988574719956	-3.31070132262647	0.1950718685831622	-0.3890020366598778	0.737603305785124
1375.030517578125	0.1995314031644087	-9.662151512976841	-1.984380105480291	-13.70994243457257	-11.50341115934035	-5.817350745641838	0.1950718685831622	-0.3890020366598778	0.737603305785124
1378.936767578125	0.0118789534407799	-10.09949247172081	-2.06263178135933	-30.77417433883056	-4.570826232148147	-2.292711044480621	0.1950718685831622	-0.3890020366598778	0.737603305785124
1382.843017578125	0.178476090284147	-9.792292730808125	-1.949203009471565	-51.79913286868681	6.069276838702044	-1.246133421174286	0.1950718685831622	-0.3890020366598778	0.737603305785124
1386.749267578125	0.03690416950240567	-10.16140098519422	-1.896805650080189	-68.10955956782647	14.05123030161297	-0.6382461159041455	0.1663244353182751	-0.3890020366598778	0.7107438016528926
1390.655517578125	0.2033317534685393	-9.670922733045172	-2.111058448951309	5.805546389339535	-5.651153522460403	-0.8444940064172695	0.1663244353182751	-0.3890020366598778	0.7107438016528926
1394.561767578125	0.0651154024199533	-9.822279353217549	-1.83718008066511	7.613710070350185	-6.034121327390616	-0.5014418176270431	0.1663244353182751	-0.3890020366598778	0.7107438016528926
1398.468017578125	0.05243284720289013	-9.713046712737732	-1.747761573429671	6.885236887098772	-4.903923955686385	-0.1178916084278516	0.1745379876796715	-0.4012219959266802	0.6880165289256198
1402.374267578125	0.2226181960993375	-9.904686783261216	-1.753939869977916	5.439391465974754	-4.152830960072969	-0.4608857279101123	0.1745379876796715	-0.4012219959266802	0.6880165289256198
1406.280517578125	0.08149894206890787	-9.73364867539772	-1.716631402296929	3.257734207870369	-1.885042686864212	0.3135357347022892	0.1745379876796715	-0.4012219959266802	0.6880165289256198
1410.186767578125	0.125200999021325	-9.692851676983105	-1.840033300710834	1.819115882732856	-0.4049817303918497	-0.7521679834305172	0.1745379876796715	-0.4012219959266802	0.6880165289256198
1414.093017578125	0.04559316299709552	-9.711924877297605	-1.853105433236517	0.007115538244056207	1.844433827609001	-0.7115538244056206	0.1745379876796715	-0.4012219959266802	0.6880165289256198
1417.999267578125	0.07733346161520013	-9.621662180744417	-1.911115387173338	-1.804773248502294	2.978383518859796	-0.6820954396256492	0.1745379876796715	-0.4012219959266802	0.6880165289256198
1421.905517578125	-0.01210370958036847	-9.750580199430985	-1.929876347321051	-1.442417802701514	2.974686753959649	-0.6857559617326585	0.1745379876796715	-0.4012219959266802	0.6880165289256198
1425.811767578125	0.1045218569431115	-9.65287126625506	-1.817395231437049	-2.170816614124627	3.361240214497175	-0.309642935363417	0.1848049281314169	-0.3849287169042769	0.6942148760330579
1429.718017578125	-0.158591086565813	-9.717944451322946	-2.046963781139569	-1.083638718979837	2.234684053046676	-0.3317802759293699	0.1848049281314169	-0.3849287169042769	0.6942148760330579
1433.624267578125	-0.05362760352386083	-9.770672925139383	-1.879079882537972	-1.453184074852973	1.137590901504526	0.3908712534132101	0.1848049281314169	-0.3849287169042769	0.6942148760330579
1437.530517578125	-0.2270029123663983	-9.696730941665136	-2.099902921120058	-0.7210973436083078	0.3718775102297688	-0.3540337551112543	0.2012320328542095	-0.3910386965376782	0.6942148760330579
1441.436767578125	-0.05830884017157176	-9.665519858322142	-2.389705327614275	-0.3587047118933778	-0.003641210253730994	-0.3614128686332386	0.2012320328542095	-0.3910386965376782	0.6942148760330579
1445.343017578125	-0.3686489632433021	-9.805863164782002	-2.045034558556598	3.718591414975016e-05	-0.3718219555833518	-0.003718591414975016	0.2012320328542095	-0.3910386965376782	0.6942148760330579
1449.249267578125	0.01122992079909087	-9.596368992274961	-2.374330693303029	0.3697312854438847	-0.7620166263746095	-0.741244486417455	0.2012320328542095	-0.3910386965376782	0.6942148760330579
1453.155517578125	-0.3719532728042705	-9.706931558206714	-1.934890906524316	0.007375839643104458	-0.7583198614744615	-0.7375839643104457	0.1765913757700205	-0.395112016293279	0.6838842975206612
1457.061767578125	-0.03012363164913438	-9.58973997423322	-1.995878945028854	0.003725105735701979	-0.7509818863205826	-0.3725105735701979	0.1765913757700205	-0.395112016293279	0.6838842975206612
1460.968017578125	-0.3273805815427104	-9.825853054698811	-2.087313948576321	-1.44558511972497	-1.851660693470046	-0.3690242593870858	0.1765913757700205	-0.395112016293279	0.6838842975206612
1464.874267578125	-0.05862034429486113	-9.948953911322006	-2.045988523504629	-0.3585559682367788	-1.490929032587138	-0.3762872342931387	0.1806981519507187	-0.4093686354378818	0.7004132231404959
1468.780517578125	-0.1582606556097161	-9.727837611980474	-2.057978146342797	-0.3584815964084793	-2.234572943753842	-0.3837244171230887	0.1806981519507187	-0.4093686354378818	0.7004132231404959
1472.686767578125	-0.1652154780484228	-9.720086337902323	-1.826150731719242	-0.7172234942160068	-1.866392198424221	-0.7414186943413522	0.1806981519507187	-0.4093686354378818	0.7004132231404959
1476.593017578125	0.03394290878607237	-9.379025126159171	-2.131430292869079	-1.08315530209589	-2.599001369536898	-0.3801219643240451	0.1806981519507187	-0.4093686354378818	0.7004132231404959
1480.499267578125	-0.1585611190805345	-9.737934761836041	-2.047962697315518	-1.079504568188488	-2.606339344690777	-0.745195355064293	0.1806981519507187	-0.4093686354378818	0.7004132231404959
1484.405517578125	-0.1026512549673079	-9.559857239106096	-1.911624834423072	-0.3621323303158818	-2.227234968599963	-0.01865102638284081	0.1806981519507187	-0.4093686354378818	0.7004132231404959
1488.311767578125	0.1052734099291742	-9.522628264122901	-1.84244699763914	-0.7208370422092596	-2.230876178853694	-0.3800638950160794	0.1806981519507187	-0.4093686354378818	0.7004132231404959
1492.218017578125	0.1686325599882023	-9.682142138937147	-1.954418666273409	-0.362243888058331	-1.111769101849907	-0.007495252137915762	0.188911704312115	-0.3788187372708757	0.6962809917355373
1496.124267578125	-0.06832823228901908	-9.718759461773448	-2.055725590366032	-1.441971571731717	-1.487176713040573	-0.7303790587123586	0.188911704312115	-0.3788187372708757	0.6962809917355373
1500.030517578125	5.283740825414335e-05	-9.929982915904665	-2.001761246941805	-0.7282500677665138	-1.10073436179588	0.3612386607093414	0.188911704312115	-0.3788187372708757	0.6962809917355373
1503.936767578125	0.008666123571714151	-9.640531286711813	-1.955537452390472	0.003762291649851729	-1.122803841903934	-0.3762291649851729	0.1971252566735113	-0.3910386965376782	0.6776859504132231
1507.843017578125	0.05276327815898697	-9.72293987339526	-1.758775938632899	0.3624298176290798	-0.7473406760668516	-0.01109770493695932	0.1971252566735113	-0.3910386965376782	0.6776859504132231
1511.749267578125	0.07108445231660492	-9.663682693750964	-1.702815077220163	-0.7172978660443063	-1.122748287257517	-0.7339815115114022	0.1971252566735113	-0.3910386965376782	0.6776859504132231
1515.655517578125	0.09825313219367512	-9.611564820590711	-1.941771073122504	-0.3587047118933778	-0.003641210253730994	-0.3614128686332386	0.1971252566735113	-0.3910386965376782	0.6776859504132231
1519.561767578125	0.07679246964412034	-9.681837101481733	-1.893082321470678	-0.3587790837216773	0.7400027009129726	-0.3539756858032885	0.1745379876796715	-0.3930753564154786	0.6942148760330579
1523.468017578125	-0.1023216126292447	-9.779750654750121	-1.922612912358512	-0.0001487436565990006	1.487287822333407	0.01487436565990006	0.1745379876796715	-0.3930753564154786	0.6942148760330579
1527.374267578125	-0.01486702717025713	-9.591473672118383	-1.83776576099143	-0.3550911639001251	0.3608427701757418	-0.7227676679585114	0.1745379876796715	-0.3930753564154786	0.6942148760330579
1531.280517578125	-0.06139864562738902	-9.779852228752855	-1.953378479087033	-0.358816269635827	1.111824656496325	-0.3502570943883135	0.1868583162217659	-0.3890020366598778	0.6983471074380165
1535.186767578125	0.2701513594591973	-9.682651060441525	-2.005045315306576	0.003539176164953228	1.108127891596177	-0.3539176164953228	0.1868583162217659	-0.3890020366598778	0.6983471074380165
1539.093017578125	-0.1315233497970492	-9.879192549767714	-1.949221673431695	-0.7211345295224576	0.7436994658131205	-0.3503151636962792	0.1868583162217659	-0.3890020366598778	0.6983471074380165
1542.999267578125	0.3611499943613811	-9.753228168489819	-2.038333145379369	-0.3550911639001251	0.3608427701757418	-0.7227676679585114	0.1868583162217659	-0.3890020366598778	0.6983471074380165
1546.905517578125	-0.1096423538355621	-9.878784361073498	-2.011921538814597	-1.079727683673386	-0.3754076111906658	-0.7228838065744428	0.1868583162217659	-0.3890020366598778	0.6983471074380165
1550.811767578125	0.03716125898137362	-9.701317859596024	-1.905375299379121	-7.437182829950031e-05	0.7436439111667036	0.007437182829950031	0.1868583162217659	-0.3890020366598778	0.6983471074380165
1554.718017578125	0.1017522304089537	-9.840433445501105	-2.058407680298455	-0.36239263171493	0.3755187204834998	0.007379113521984299	0.1868583162217659	-0.3890020366598778	0.6983471074380165
1558.624267578125	-0.0009526505846419822	-9.680308023689035	-1.968244980511934	-0.3550539779859753	-0.01097918540760998	-0.7264862593734864	0.1827515400410678	-0.3808553971486761	0.7004132231404959
1562.530517578125	-0.03981811313672037	-9.789541189914205	-2.006062895442655	-0.003650733907402479	0.007337975153878983	0.3650733907402479	0.1827515400410678	-0.3808553971486761	0.7004132231404959
1566.436767578125	-0.02042993877958206	-9.599939013538734	-1.985668707347265	-0.3623554458007803	0.003696764900147988	0.003660522107009284	0.1827515400410678	-0.3808553971486761	0.7004132231404959
1570.343017578125	0.1187816482274627	-9.761593933739787	-1.959388274248756	0.003650733907402479	-0.007337975153878983	-0.3650733907402479	0.1745379876796715	-0.3767820773930753	0.6735537190082644
1574.249267578125	-0.2031038428568162	-9.639003575857036	-1.896538571439462	0.3695825417872857	0.7252711959587976	-0.726370120757555	0.1745379876796715	-0.3767820773930753	0.6735537190082644
1578.155517578125	0.149649735300357	-9.931613252252884	-1.9883245100119	-0.7137586898793531	-0.01462039566134097	-1.087899128006725	0.1745379876796715	-0.3767820773930753	0.6735537190082644
1582.061767578125	-0.225796326774923	-9.729674145657226	-1.80678910750257	-1.072463401772731	-0.01826160591507197	-1.449311996639964	0.1745379876796715	-0.3767820773930753	0.6735537190082644
1585.968017578125	-0.2389954268040229	-9.837275187999969	-2.033485773199237	0.003539176164953228	1.108127891596177	-0.3539176164953228	0.1642710472279261	-0.3971486761710794	0.6962809917355373
1589.874267578125	-0.08887173206544585	-9.558735193367829	-2.037608931151806	0.003650733907402479	-0.007337975153878983	-0.3650733907402479	0.1642710472279261	-0.3971486761710794	0.6962809917355373
1593.780517578125	-0.1022364418816111	-9.766389782875054	-2.258785270612964	-0.7136843180510536	-0.7582643068280446	-1.095336310836675	0.1642710472279261	-0.3971486761710794	0.6962809917355373
1597.686767578125	-0.1636540143418076	-9.919581464637183	-1.878199521939748	-0.3623182598866305	-0.3681251906832038	-5.806930796573191e-05	0.1724845995893224	-0.3828920570264766	0.7024793388429752
1601.593017578125	-0.178219000805179	-9.747624143593674	-2.059366639827366	-0.3586303400650783	-0.7472851214204346	-0.3688500514631886	0.1724845995893224	-0.3828920570264766	0.7024793388429752
1605.499267578125	-0.100023579679206	-9.839007624096277	-1.999214010693135	-0.7245993338591113	-1.108072336949759	-0.003834730030906479	0.1724845995893224	-0.3828920570264766	0.7024793388429752
1609.405517578125	-0.003055894880370593	-9.750988072677986	-1.89813683732098	0.0001487436565990006	-1.487287822333407	-0.01487436565990006	0.1868583162217659	-0.3828920570264766	0.6983471074380165
1613.311767578125	-0.003887098287831402	-9.757923495113065	-2.20376339040562	-0.003464804336653728	-1.85177180276288	0.3464804336653728	0.1868583162217659	-0.3828920570264766	0.6983471074380165
1617.218017578125	0.06708379303192878	-9.661642906919678	-1.902793101064292	-0.007152724158205957	-1.472611872025649	0.7152724158205956	0.1868583162217659	-0.3828920570264766	0.6983471074380165
1621.124267578125	0.02199534557636542	-9.549554838263642	-2.066511519212181	-0.3621323303158818	-2.227234968599963	-0.01865102638284081	0.1868583162217659	-0.3828920570264766	0.6983471074380165
1625.030517578125	0.03948925941669078	-9.78056513945527	-1.982975313889693	-0.003539176164953228	-1.108127891596177	0.3539176164953228	0.1848049281314169	-0.3828920570264766	0.7045454545454546
1628.936767578125	0.2994429990828373	-9.643180096963215	-1.981433302761241	-0.365968993794033	-0.3607872155293249	0.3650153214322821	0.1848049281314169	-0.3828920570264766	0.7045454545454546
1632.843017578125	0.3163817258274773	-9.714369908649116	-1.879390860915906	-0.007264281900655208	-0.3571460052755938	0.7264281900655207	0.1848049281314169	-0.3828920570264766	0.7045454545454546
1636.749267578125	0.1789413749239969	-9.892142288774574	-1.964712497466564	-0.3623182598866305	-0.3681251906832038	-5.806930796573191e-05	0.1806981519507187	-0.3767820773930753	0.6962809917355373
1640.655517578125	-0.103297921754896	-9.760066328034084	-1.890069274836802	-1.083341231666639	-0.7398915916201386	-0.36152900724917	0.1806981519507187	-0.3767820773930753	0.6962809917355373
1644.561767578125	0.1639757704995343	-9.733647834205151	-1.799192349984477	-0.3586303400650783	-0.7472851214204346	-0.3688500514631886	0.1806981519507187	-0.3767820773930753	0.6962809917355373
1648.468017578125	0.06682906940706176	-9.491725267558385	-1.894302313568725	-0.3587047118933778	-0.003641210253730994	-0.3614128686332386	0.1806981519507187	-0.3767820773930753	0.6962809917355373
1652.374267578125	0.0331605996966975	-9.699278072764736	-2.10535332322325	-0.7173722378726058	-0.3791043760908138	-0.7265443286814521	0.1786447638603696	-0.3869653767820774	0.7024793388429752
1656.280517578125	0.1993673706134108	-9.342204550168329	-1.978912353780359	-0.3514032440785728	-0.01831716056148896	-1.091559650113734	0.1786447638603696	-0.3869653767820774	0.7024793388429752
1660.186767578125	0.01219440065423751	-10.0993904771218	-2.073146688474584	-0.3514032440785728	-0.01831716056148896	-1.091559650113734	0.1786447638603696	-0.3869653767820774	0.7024793388429752
1664.093017578125	0.1271488855644258	-9.658888527000837	-2.238296185480858	-0.3587418978075275	0.3681807453296208	-0.3576942772182636	0.1806981519507187	-0.395112016293279	0.7066115702479339
1667.999267578125	-0.04834543993451317	-9.855631692245492	-2.388485335516228	-0.0001115577424492505	1.115465866750055	0.01115577424492505	0.1806981519507187	-0.395112016293279	0.7066115702479339
1671.905517578125	-0.3524302447633791	-9.607285779140158	-1.918991841220697	-7.437182829950031e-05	0.7436439111667036	0.007437182829950031	0.1806981519507187	-0.395112016293279	0.7066115702479339
1675.811767578125	-0.132458650784951	-9.606161630420466	-2.251378307168301	-0.0001115577424492505	1.115465866750055	0.01115577424492505	0.1806981519507187	-0.3808553971486761	0.6962809917355373
1679.718017578125	-0.304372650411146	-9.735080490299605	-2.187578319628466	0.7245993338591113	1.108072336949759	0.003834730030906479	0.1806981519507187	-0.3808553971486761	0.6962809917355373
1683.624267578125	-0.1601825177577066	-9.49845901407499	-1.993916074743114	0.003576362079102979	0.7363059360128246	-0.3576362079102978	0.1806981519507187	-0.3808553971486761	0.6962809917355373
1687.530517578125	0.2516046405439572	-9.80198116622412	-2.053488018131906	-7.437182829950031e-05	0.7436439111667036	0.007437182829950031	0.1806981519507187	-0.3808553971486761	0.6962809917355373
1691.436767578125	-0.1390380910396431	-9.638288982769483	-2.032063632011899	-0.0001487436565990006	1.487287822333407	0.01487436565990006	0.1848049281314169	-0.3910386965376782	0.6818181818181819
1695.343017578125	-0.1089507358200563	-9.70856073791515	-2.03497547266479	-0.366117737450632	1.126500606804082	0.3798896870921822	0.1848049281314169	-0.3910386965376782	0.6818181818181819
1699.249267578125	-0.1330848135036644	-9.679697423032851	-1.897172883211189	-0.36239263171493	0.3755187204834998	0.007379113521984299	0.1848049281314169	-0.3910386965376782	0.6818181818181819
1703.155517578125	0.09720111573679401	-9.751904972578437	-1.906703857893133	3.718591414975016e-05	-0.3718219555833518	-0.003718591414975016	0.1786447638603696	-0.4032586558044806	0.7148760330578513
1707.061767578125	-0.146794149400532	-9.657463441639507	-2.106861686648933	0	0	0	0.1786447638603696	-0.4032586558044806	0.7148760330578513
1710.968017578125	0.004430456113012106	-9.551900819190127	-1.814348537100404	-0.003687919821552229	0.3791599307372308	0.3687919821552229	0.1786447638603696	-0.4032586558044806	0.7148760330578513
1714.874267578125	-0.1126351592732412	-9.496418701498348	-2.245494690891961	-0.7210229717800084	-0.3717664009369348	-0.3614709379412043	0.1786447638603696	-0.4032586558044806	0.7148760330578513
1718.780517578125	-0.1123007852269761	-9.789643920556721	-1.923307159100797	-0.3623554458007803	0.003696764900147988	0.003660522107009284	0.1786447638603696	-0.4032586558044806	0.7148760330578513
1722.686767578125	0.08125368186044457	-9.710394642865122	-2.041789395348153	-0.36239263171493	0.3755187204834998	0.007379113521984299	0.1786447638603696	-0.4032586558044806	0.7148760330578513
1726.593017578125	-0.2164228128270301	-9.666643376147407	-2.119239572432332	-0.3550167920718256	-0.3828011409909618	-0.7302048507884614	0.1786447638603696	-0.4032586558044806	0.7148760330578513
1730.499267578125	-0.08159830794114706	-10.05971678623431	-1.946723068628433	-0.3586303400650783	-0.7472851214204346	-0.3688500514631886	0.1971252566735113	-0.3910386965376782	0.6962809917355373
1734.405517578125	-0.113417468362616	-9.816671648103913	-2.219417721246132	-0.3586303400650783	-0.7472851214204346	-0.3688500514631886	0.1971252566735113	-0.3910386965376782	0.6962809917355373
1738.311767578125	-0.08011097432969443	-9.999235881699935	-1.996300855676854	0.007413025557254208	-1.130141817057813	-0.7413025557254208	0.1971252566735113	-0.3910386965376782	0.6962809917355373
1742.218017578125	-0.1282032678754078	-9.778119056613047	-2.059891070819739	0.7284731832514122	-1.13019737170423	-0.3835502091991915	0.1765913757700205	-0.3869653767820774	0.7252066115702479
1746.124267578125	0.06906637876850985	-9.72100187086485	-1.968879292283662	0.007375839643104458	-0.7583198614744615	-0.7375839643104457	0.1765913757700205	-0.3869653767820774	0.7252066115702479
1750.030517578125	-0.177722960062017	-9.65746375708672	-2.075901331266103	-0.3550167920718256	-0.3828011409909618	-0.7302048507884614	0.1765913757700205	-0.3869653767820774	0.7252066115702479
1753.936767578125	0.02772859868095747	-9.514367753093158	-1.590953289365249	-0.7210601576941581	5.555464641699391e-05	-0.3577523465262293	0.1765913757700205	-0.3869653767820774	0.7252066115702479
1757.843017578125	0.0009550164387429031	-9.689691211351473	-2.03183388129143	-0.003650733907402479	0.007337975153878983	0.3650733907402479	0.1786447638603696	-0.3747454175152749	0.6983471074380165
1761.749267578125	0.04293394298764788	-9.832784691767326	-1.764464766254929	-0.3622810739724808	-0.7399471462665556	-0.003776660722940747	0.1786447638603696	-0.3747454175152749	0.6983471074380165
1765.655517578125	-0.05265129439820953	-9.790357251855422	-1.911623520059683	-1.441971571731717	-1.487176713040573	-0.7303790587123586	0.1786447638603696	-0.3747454175152749	0.6983471074380165
1769.561767578125	-0.04423358550709324	-9.580968859313959	-1.858880483096892	-0.7282872536806635	-0.7289124062125286	0.3649572521243164	0.1663244353182751	-0.3849287169042769	0.7004132231404959
1773.468017578125	0.09249464331200648	-9.700093398662451	-2.083154777066882	-0.3659318078798833	-0.7326091711126765	0.3612967300173071	0.1663244353182751	-0.3849287169042769	0.7004132231404959
1777.374267578125	0.05630811622021685	-9.771793709088797	-1.876937207340562	-0.7245621479449615	-1.479894292533111	-0.007553321445881495	0.1663244353182751	-0.3849287169042769	0.7004132231404959
1781.280517578125	-0.002965992424535179	-9.810959004217267	-1.901133585848828	-0.7245621479449615	-1.479894292533111	-0.007553321445881495	0.1663244353182751	-0.3849287169042769	0.7004132231404959
1785.186767578125	-0.0425506746232969	-9.440424718128199	-1.914977512556771	-0.728212881852364	-1.472556317379232	0.3575200692943664	0.1663244353182751	-0.3849287169042769	0.7004132231404959
1789.093017578125	0.1590437533171246	-9.741909186427465	-1.96812511057082	-0.7245993338591113	-1.108072336949759	-0.003834730030906479	0.1663244353182751	-0.3849287169042769	0.7004132231404959
1792.999267578125	-0.04829496838035995	-9.748948706442983	-2.056834387321335	-0.717186308301857	-2.238214154007573	-0.7451372857563272	0.1663244353182751	-0.3849287169042769	0.7004132231404959
1796.905517578125	-0.0403133652618488	-9.669701321434665	-1.989554491271707	-0.7135355743944546	-2.245552129161452	-1.110210676496575	0.1806981519507187	-0.395112016293279	0.6983471074380165
1800.811767578125	0.1434717016247898	-9.740277483141318	-2.115723387492991	-0.7136099462227541	-1.501908217994748	-1.102773493666625	0.1806981519507187	-0.395112016293279	0.6983471074380165
1804.718017578125	0.1401973595490998	-9.661336187079124	-2.006578651636658	-0.3549424202435261	-1.126445052157665	-0.7376420336184115	0.1806981519507187	-0.395112016293279	0.6983471074380165
1808.624267578125	0.07996192552133567	-9.6908123107481	-1.998730850711189	-1.072389029944431	-0.7619055170817756	-1.456749179469914	0.188911704312115	-0.3767820773930753	0.7045454545454546
1812.530517578125	0.1545620370319256	-9.840024941359678	-2.152067901064187	-1.076076949765984	-0.3827455863445448	-1.087957197314691	0.188911704312115	-0.3767820773930753	0.7045454545454546
1816.436767578125	0.0007744229090384218	-9.779749603259411	-2.025814096967947	-1.076114135680133	-0.01092363076119298	-1.084238605899716	0.188911704312115	-0.3767820773930753	0.7045454545454546
1820.343017578125	-0.124563007032107	-9.750275372273714	-1.847899765596433	-1.076114135680133	-0.01092363076119298	-1.084238605899716	0.188911704312115	-0.3767820773930753	0.7045454545454546
1824.249267578125	0.05284844890662052	-9.709579001520192	-2.094948296887351	-0.7137586898793531	-0.01462039566134097	-1.087899128006725	0.1848049281314169	-0.3930753564154786	0.6818181818181819
1828.155517578125	-0.2178793903351706	-9.537114336208372	-2.070686988827648	-1.076039763851834	-0.7545675419278965	-1.091675788729666	0.1848049281314169	-0.3930753564154786	0.6818181818181819
1832.061767578125	-0.1349222935220549	-9.646958208238797	-2.16925688259817	-0.7172978660443063	-1.122748287257517	-0.7339815115114022	0.1848049281314169	-0.3930753564154786	0.6818181818181819
1835.968017578125	-0.143579742295399	-9.696424116675514	-2.214008590153368	-0.3622067021441813	-1.483591057433259	-0.01121384355289078	0.1909650924024641	-0.3828920570264766	0.6962809917355373
1839.874267578125	-0.05224988781908473	-9.566894130394838	-2.258337072697176	-1.086768850089143	-2.96348534996637	-0.01876716499877227	0.1909650924024641	-0.3828920570264766	0.6962809917355373
1843.780517578125	-0.133690472153503	-9.626559919329633	-2.210317594883236	-1.086731664174993	-3.335307305549722	-0.02248575641374729	0.1909650924024641	-0.3828920570264766	0.6962809917355373
1847.686767578125	-0.1486568651959992	-9.678065719746707	-2.044771160133361	-1.449087109975773	-3.331610540649574	-0.018825234306738	0.1909650924024641	-0.3828920570264766	0.6962809917355373
1851.593017578125	0.01178510789477627	-9.756189481780689	-2.392836929825876	-1.086768850089143	-2.96348534996637	-0.01876716499877227	0.1909650924024641	-0.3828920570264766	0.6962809917355373
1855.499267578125	0.1104404352856099	-9.600957592590987	-2.014681176186995	-1.094070317903948	-2.948809399658613	0.7113796164817234	0.1909650924024641	-0.3828920570264766	0.6962809917355373
1859.405517578125	0.1227476083186585	-9.670311606643635	-2.091586943955282	-1.807754635955001	-3.707073706486657	-0.3839566943549516	0.1909650924024641	-0.3828920570264766	0.6962809917355373
1863.311767578125	0.1521591178834123	-9.710801885217696	-2.071970596113743	-1.090419583996545	-2.956147374812491	0.3463062257414756	0.1991786447638604	-0.395112016293279	0.7066115702479339
1867.218017578125	0.2425867933292378	-9.821563603490212	-2.086226444307926	-1.090456769910695	-2.58432541922914	0.3500248171564506	0.1991786447638604	-0.395112016293279	0.7066115702479339
1871.124267578125	0.02223587407662685	-9.499477067381889	-2.074529135887562	-1.08315530209589	-2.599001369536898	-0.3801219643240451	0.1991786447638604	-0.395112016293279	0.7066115702479339
1875.030517578125	0.1768838704742197	-9.782807548546668	-1.896129015807323	-0.7208742281234094	-1.859054223270342	-0.3763453036011044	0.1724845995893224	-0.4175152749490835	0.7107438016528926
1878.936767578125	0.07208678583736645	-9.420025272579252	-2.069559527912215	-0.7209857858658586	-0.7435883565202867	-0.3651895293561793	0.1724845995893224	-0.4175152749490835	0.7107438016528926
1882.843017578125	-0.03748459237516769	-9.732120018201305	-1.750513587494411	-0.717335051958456	-0.7509263316741656	-0.7302629200964272	0.1724845995893224	-0.4175152749490835	0.7107438016528926
1886.749267578125	0.2319483360553799	-9.391670038008762	-2.06494453517933	-0.7136471321369039	-1.130086262411396	-1.09905490225165	0.1724845995893224	-0.4175152749490835	0.7107438016528926
1890.655517578125	0.1942445078668592	-9.503860942456381	-1.80815026222864	0.003613547993252729	0.3644839804294728	-0.3613547993252729	0.1786447638603696	-0.3930753564154786	0.6983471074380165
1894.561767578125	-0.1462034744933327	-9.700605790086177	-1.793217516888912	0.3585931541509285	1.119107077003786	0.3725686428781636	0.1786447638603696	-0.3930753564154786	0.6983471074380165
1898.468017578125	-0.129625146190068	-9.741912130601456	-1.6791617936644	0.369545355873136	1.097093151542149	-0.7226515293425799	0.1786447638603696	-0.3930753564154786	0.6983471074380165
1902.374267578125	-0.07589975403003532	-9.931207587136377	-1.803341532332156	-0.358816269635827	1.111824656496325	-0.3502570943883135	0.1806981519507187	-0.395112016293279	0.6921487603305785
1906.280517578125	-0.1199062175434391	-9.698769677005712	-2.003126081885365	0.007189910072355707	1.100789916442297	-0.7189910072355706	0.1806981519507187	-0.395112016293279	0.6921487603305785
1910.186767578125	-0.1411563190780109	-9.69897387650189	-1.96145603073297	0.3622067021441813	1.483591057433259	0.01121384355289078	0.1806981519507187	-0.395112016293279	0.6921487603305785
1914.093017578125	-0.3016487637229396	-9.727533100270419	-1.945041209235348	0.3622067021441813	1.483591057433259	0.01121384355289078	0.1806981519507187	-0.395112016293279	0.6921487603305785
1917.999267578125	0.006137025537817775	-9.778015695076105	-2.204567517927259	0.7245621479449615	1.479894292533111	0.007553321445881495	0.1806981519507187	-0.395112016293279	0.6921487603305785
1921.905517578125	-0.1209424616396473	-9.639104729263487	-1.968584612011757	0.3585931541509285	1.119107077003786	0.3725686428781636	0.1806981519507187	-0.395112016293279	0.6921487603305785
1925.811767578125	-0.2959549415200297	-9.525692097758144	-2.134835282665676	0.3586303400650783	0.7472851214204346	0.3688500514631886	0.1806981519507187	-0.395112016293279	0.6921487603305785
1929.718017578125	-0.2425544599898584	-9.568425942063387	-1.914851333671387	0.3586303400650783	0.7472851214204346	0.3688500514631886	0.1806981519507187	-0.3686354378818737	0.7169421487603306
1933.624267578125	-0.07716469735600034	-9.438283252145109	-2.094510088133323	0.3623182598866305	0.3681251906832038	5.806930796573191e-05	0.1806981519507187	-0.3686354378818737	0.7169421487603306
1937.530517578125	0.02817416786996635	-9.530890352388711	-1.939138928998878	-3.718591414975016e-05	0.3718219555833518	0.003718591414975016	0.1806981519507187	-0.3686354378818737	0.7169421487603306
1941.436767578125	0.3345215178373571	-9.955171375899255	-1.8173839279119	-7.437182829950031e-05	0.7436439111667036	0.007437182829950031	0.1971252566735113	-0.4012219959266802	0.7086776859504132
1945.343017578125	0.2600073656924343	-9.582597618426114	-2.000245523081141	0.3585931541509285	1.119107077003786	0.3725686428781636	0.1971252566735113	-0.4012219959266802	0.7086776859504132
1949.249267578125	-0.01105169312348735	-9.610240047443261	-1.964943562550422	-0.358816269635827	1.111824656496325	-0.3502570943883135	0.1971252566735113	-0.4012219959266802	0.7086776859504132
1953.155517578125	0.05191709100888693	-9.719880140573792	-2.063903033629564	-0.3550911639001251	0.3608427701757418	-0.7227676679585114	0.1971252566735113	-0.4012219959266802	0.7086776859504132
1957.061767578125	0.05967236075174225	-9.91070593669027	-1.989078691724742	-0.3733820193512872	0.7693546015284886	1.106317877157703	0.1724845995893224	-0.3971486761710794	0.6900826446280992
1960.968017578125	0.06921621619490222	-9.820953423430316	-1.973873873163407	-0.003576362079102979	-0.7363059360128246	0.3576362079102978	0.1724845995893224	-0.3971486761710794	0.6900826446280992
1964.874267578125	-0.0391272837392482	-9.829317821742357	-2.02909054202506	0.01102657355050694	-0.7656578366283405	-1.102657355050694	0.1724845995893224	-0.3971486761710794	0.6900826446280992
1968.780517578125	-0.09150098458961503	-9.699585318350643	-1.949967180346166	-0.3587047118933778	-0.003641210253730994	-0.3614128686332386	0.1642710472279261	-0.3991853360488798	0.7004132231404959
1972.686767578125	-0.009655050585903786	-9.699788466356109	-2.011498313803208	0.003613547993252729	0.3644839804294728	-0.3613547993252729	0.1642710472279261	-0.3991853360488798	0.7004132231404959
1976.593017578125	-0.06241990598095804	-9.730182436267176	-1.919336467301399	-0.7209857858658586	-0.7435883565202867	-0.3651895293561793	0.1642710472279261	-0.3991853360488798	0.7004132231404959
1980.499267578125	0.01166996966186424	-9.749560043142663	-2.055665655395475	-0.7173722378726058	-0.3791043760908138	-0.7265443286814521	0.1642710472279261	-0.3991853360488798	0.7004132231404959
1984.405517578125	-0.1192910954771967	-9.898570787537627	-2.02363015076011	-1.079653311845087	-1.11905152235737	-0.7303209894043929	0.1642710472279261	-0.3991853360488798	0.7004132231404959
1988.311767578125	0.011654985919225	-9.739564887886118	-2.0551661973075	-0.7245249620308118	-1.851716248116463	-0.01127191286085651	0.1642710472279261	-0.3991853360488798	0.7004132231404959
1992.218017578125	-0.1999343869796009	-9.647978785123403	-2.002187100679973	-0.3622067021441813	-1.483591057433259	-0.01121384355289078	0.1642710472279261	-0.3991853360488798	0.7004132231404959
1996.124267578125	-0.1321692279666036	-9.869401383709201	-1.927692401113213	-0.7245621479449615	-1.479894292533111	-0.007553321445881495	0.1663244353182751	-0.3767820773930753	0.7086776859504132
2000.06103515625	-0.110632858085819	-9.639104624114413	-1.9789047304727	-0.3586303400650783	-0.7472851214204346	-0.3688500514631886	0.1663244353182751	-0.3767820773930753	0.7086776859504132
2003.936767578125	0.03340585990516079	-9.722532105297333	-1.780195330172026	-0.3623182598866305	-0.3681251906832038	-5.806930796573191e-05	0.1663244353182751	-0.3767820773930753	0.7086776859504132
2007.843017578125	-0.1712586580402369	-9.618706966099676	-1.958044731992104	-0.003650733907402479	0.007337975153878983	0.3650733907402479	0.2012320328542095	-0.3890020366598778	0.6962809917355373
2011.749267578125	0.09801260369341371	-9.661642591472464	-1.933753456447123	-0.003576362079102979	-0.7363059360128246	0.3576362079102978	0.2012320328542095	-0.3890020366598778	0.6962809917355373
2015.655517578125	-0.2222664724563323	-9.768532826094214	-1.924450918122258	3.718591414975016e-05	-0.3718219555833518	-0.003718591414975016	0.2012320328542095	-0.3890020366598778	0.6962809917355373
2019.561767578125	0.008636156086435682	-9.62054097619872	-1.954538536214523	-0.3622067021441813	-1.483591057433259	-0.01121384355289078	0.2012320328542095	-0.3890020366598778	0.6962809917355373
2023.468017578125	-0.002664740335683155	-9.590861599375204	-1.911175322143895	-0.01441700605886117	-1.829757877301243	1.441700605886116	0.1950718685831622	-0.3991853360488798	0.6900826446280992
2027.374267578125	0.000309138269188454	-9.679900045292962	-2.010304608972949	-0.362095144401732	-2.599056924183315	-0.02236961779781583	0.1950718685831622	-0.3991853360488798	0.6900826446280992
2031.280517578125	-0.04093006456415844	-9.889900720875744	-1.968997847861386	-0.7207626703809601	-2.974520090020397	-0.3875010778460294	0.1950718685831622	-0.3991853360488798	0.6900826446280992
2035.186767578125	-0.06943939509842351	-9.60911873774849	-2.018686830052551	-0.362095144401732	-2.599056924183315	-0.02236961779781583	0.1868583162217659	-0.3930753564154786	0.6921487603305785
2039.093017578125	-0.01278034385323505	-9.930798977845878	-1.907321871558832	-0.003390432508354228	-2.595415713929583	0.3390432508354227	0.1868583162217659	-0.3930753564154786	0.6921487603305785
2042.999267578125	0.08075764111728248	-9.800555029372079	-2.025254703909416	-0.3584444104943295	-2.606394899337194	-0.3874430085380637	0.1868583162217659	-0.3930753564154786	0.6921487603305785
2046.905517578125	0.06788029724590924	-9.561385370557158	-1.929343241530308	0.0001859295707487508	-1.859109777916759	-0.01859295707487508	0.1868583162217659	-0.3930753564154786	0.6921487603305785
2050.811767578125	0.08499961752025367	-9.542516790335117	-1.833320584008456	0.0001115577424492505	-1.115465866750055	-0.01115577424492505	0.1868583162217659	-0.3930753564154786	0.6921487603305785
2054.718017578125	0.1390854081216617	-9.761695718040663	-1.969513604055389	3.718591414975016e-05	-0.3718219555833518	-0.003718591414975016	0.1868583162217659	-0.3930753564154786	0.6921487603305785
2058.624267578125	0.2005826310032562	-9.731811615975614	-2.019421033441874	-0.7173722378726058	-0.3791043760908138	-0.7265443286814521	0.1868583162217659	-0.3930753564154786	0.6921487603305785
2062.530517578125	0.1499959386171267	-9.741501313180462	-1.999864620570891	-3.718591414975016e-05	0.3718219555833518	0.003718591414975016	0.1827515400410678	-0.3747454175152749	0.7045454545454546
2066.436767578125	0.4342533088441147	-9.81625809680707	-1.808443628137155	0.365820250137434	1.848075037862732	-0.3501409557723821	0.1827515400410678	-0.3747454175152749	0.7045454545454546
2070.343017578125	0.1637896566435944	-9.960374677685238	-2.126321888119811	0.7281385100240645	2.216200228545936	-0.3500828864644163	0.1827515400410678	-0.3747454175152749	0.7045454545454546
2074.249267578125	-0.04345285365378566	-9.680716422681391	-1.884904878207145	0.7245249620308118	1.851716248116463	0.01127191286085651	0.1909650924024641	-0.3747454175152749	0.6776859504132231
2078.155517578125	0.09097734221527537	-9.740583992683728	-2.032578073842513	0.7245249620308118	1.851716248116463	0.01127191286085651	0.1909650924024641	-0.3747454175152749	0.6776859504132231
2082.061767578125	0.007238724930818472	-9.740992812272371	-1.907957497693949	0.3621695162300315	1.855413013016611	0.0149324349678658	0.1909650924024641	-0.3747454175152749	0.6776859504132231
2085.968017578125	-0.1185844937190517	-9.738342319635828	-2.047183542698277	-0.358816269635827	1.111824656496325	-0.3502570943883135	0.1909650924024641	-0.3747454175152749	0.6776859504132231
2089.874267578125	-0.109972784791659	-9.86889120041597	-2.000907173611369	-0.3587418978075275	0.3681807453296208	-0.3576942772182636	0.188911704312115	-0.3910386965376782	0.6859504132231405
2093.780517578125	-0.05499901028436779	-9.62778301332528	-2.166699657187741	-0.3587418978075275	0.3681807453296208	-0.3576942772182636	0.188911704312115	-0.3910386965376782	0.6859504132231405
2097.686767578125	0.05445565245918704	-9.729059339038196	-2.148521748639568	-0.358667525979228	-0.3754631658370828	-0.3651314600482136	0.188911704312115	-0.3910386965376782	0.6859504132231405
2101.593017578125	0.02017758100881595	-9.600142582140483	-2.005919366960532	-0.3623182598866305	-0.3681251906832038	-5.806930796573191e-05	0.1642710472279261	-0.405295315682281	0.7107438016528926
2105.499267578125	-0.07937361646823726	-9.648997469324732	-2.020879451058759	-0.3622810739724808	-0.7399471462665556	-0.003776660722940747	0.1642710472279261	-0.405295315682281	0.7107438016528926
2109.405517578125	-0.06357680863631383	-9.800556501459075	-1.880773045456206	-1.083304045752489	-1.11171354720349	-0.3652475986641451	0.1642710472279261	-0.405295315682281	0.7107438016528926
2113.311767578125	-0.07908813674005813	-9.62890516421262	-2.030395441998063	0.0001487436565990006	-1.487287822333407	-0.01487436565990006	0.188911704312115	-0.4032586558044806	0.7024793388429752
2117.218017578125	-0.1939408899239063	-9.646040887742062	-2.201970335869792	0.3551655357284246	-1.104486681342445	0.7153304851285613	0.188911704312115	-0.4032586558044806	0.7024793388429752
2121.124267578125	-0.05256060332434048	-9.640327928408203	-1.914646555855318	0.0002231154848985009	-2.230931733500111	-0.02231154848985009	0.188911704312115	-0.4032586558044806	0.7024793388429752
2125.030517578125	0.01172990463242118	-9.78954066416885	-2.057663487747373	0.00383666347815123	-1.866447753070638	-0.3836663478151229	0.188911704312115	-0.4032586558044806	0.7024793388429752
2128.936767578125	-0.06916968773091725	-9.78903153236633	-2.027677075636093	-0.362243888058331	-1.111769101849907	-0.007495252137915762	0.1909650924024641	-0.3849287169042769	0.7107438016528926
2132.843017578125	0.09656548960167692	-9.678777158362124	-2.21884965338923	0.003725105735701979	-0.7509818863205826	-0.3725105735701979	0.1909650924024641	-0.3849287169042769	0.7107438016528926
2136.749267578125	-0.2831935244996022	-9.968232572921538	-1.893549183346595	-0.3585931541509285	-1.119107077003786	-0.3725686428781636	0.1909650924024641	-0.3849287169042769	0.7107438016528926
2140.655517578125	0.05567249008509977	-9.698665894872484	-2.189083002836659	-0.7172606801301565	-1.494570242840869	-0.7377001029263772	0.1745379876796715	-0.3788187372708757	0.6921487603305785
2144.561767578125	0.01267624627279401	-9.789234680371797	-2.089208209093134	0.0001487436565990006	-1.487287822333407	-0.01487436565990006	0.1745379876796715	-0.3788187372708757	0.6921487603305785
2148.468017578125	0.0002034634526801487	-9.819934213483632	-2.006782115089338	0.7211717154366073	-1.115521421396473	0.3465965722813042	0.1745379876796715	-0.3788187372708757	0.6921487603305785
2152.374267578125	-0.07672859158339521	-9.308142244611966	-2.109046947220161	-0.358518782322629	-1.86275098817049	-0.3800058257081136	0.1745379876796715	-0.3788187372708757	0.6921487603305785
2156.280517578125	0.01463359623229847	-9.901935137218222	-1.821119874409949	0.0001487436565990006	-1.487287822333407	-0.01487436565990006	0.188911704312115	-0.3849287169042769	0.7024793388429752
2160.186767578125	-0.01688510071835218	-9.648792849232269	-2.103829976054928	-0.7245621479449615	-1.479894292533111	-0.007553321445881495	0.188911704312115	-0.3849287169042769	0.7024793388429752
2164.093017578125	-0.02171696341048911	-9.653688484836058	-1.609434552983697	-0.7209114140375591	-1.48723226768699	-0.3726267121861294	0.188911704312115	-0.3849287169042769	0.7024793388429752
2167.999267578125	0.0312994611372976	-9.29987984089894	-2.043315371243254	-0.3622067021441813	-1.483591057433259	-0.01121384355289078	0.1745379876796715	-0.3910386965376782	0.7045454545454546
2171.905517578125	0.1011418400509132	-9.713964138383536	-1.704728001697106	-0.3585559682367788	-1.490929032587138	-0.3762872342931387	0.1745379876796715	-0.3910386965376782	0.7045454545454546
2175.811767578125	0.1243595435794269	-9.763123747575985	-1.811984785980895	-0.362243888058331	-1.111769101849907	-0.007495252137915762	0.1745379876796715	-0.3910386965376782	0.7045454545454546
2179.718017578125	0.1166042738365715	-9.572297951459507	-1.886809127885718	-0.003687919821552229	0.3791599307372308	0.3687919821552229	0.188911704312115	-0.3625254582484725	0.7004132231404959
2183.624267578125	0.01688746657245309	-9.721206385808239	-1.896248885748437	-0.3587047118933778	-0.003641210253730994	-0.3614128686332386	0.188911704312115	-0.3625254582484725	0.7004132231404959
2187.530517578125	0.08487895896110614	-9.672555803269244	-1.829298632036871	-0.3660433656223325	0.3828566956373787	0.3724525042622321	0.188911704312115	-0.3625254582484725	0.7004132231404959
2191.436767578125	-0.02475629731215317	-9.661337869464264	-1.841456756261561	-0.7210973436083078	0.3718775102297688	-0.3540337551112543	0.188911704312115	-0.3625254582484725	0.7004132231404959
2195.343017578125	0.0237271507782477	-9.722328221248366	-1.79090502594159	-0.003762291649851729	1.122803841903934	0.3762291649851729	0.1765913757700205	-0.3869653767820774	0.7024793388429752
2199.249267578125	-0.06075276745783458	-9.789643394811367	-1.974907751405514	0.3623182598866305	0.3681251906832038	5.806930796573191e-05	0.1765913757700205	-0.3869653767820774	0.7024793388429752
2203.155517578125	-0.07860786835756892	-9.738749877435616	-2.046404388081037	-0.3514032440785728	-0.01831716056148896	-1.091559650113734	0.1765913757700205	-0.3869653767820774	0.7024793388429752
2207.061767578125	-0.1049500765353802	-9.71060052474644	-1.834997448820661	-0.7137586898793531	-0.01462039566134097	-1.087899128006725	0.1724845995893224	-0.4175152749490835	0.7004132231404959
2210.968017578125	-0.06870361447303362	-9.678880835346281	-2.04321285089888	-0.3587047118933778	-0.003641210253730994	-0.3614128686332386	0.1724845995893224	-0.4175152749490835	0.7004132231404959
2214.874267578125	-0.1016907182023294	-9.779546665552086	-1.943642726589019	-0.3549424202435261	-1.126445052157665	-0.7376420336184115	0.1724845995893224	-0.4175152749490835	0.7004132231404959
2218.780517578125	0.08495387767430232	-9.722531579551976	-1.831795922476744	-0.7172978660443063	-1.122748287257517	-0.7339815115114022	0.1724845995893224	-0.4175152749490835	0.7004132231404959
2222.686767578125	0.007704798188702086	-9.630842115252321	-1.923493272956737	-0.3586303400650783	-0.7472851214204346	-0.3688500514631886	0.1724845995893224	-0.4175152749490835	0.7004132231404959
2226.593017578125	0.2180323822336975	-9.722836196411105	-1.93441274112325	-0.3550167920718256	-0.3828011409909618	-0.7302048507884614	0.1724845995893224	-0.4175152749490835	0.7004132231404959
2230.499267578125	0.1299776584511069	-9.721307223767475	-1.999255281703562	-0.3623554458007803	0.003696764900147988	0.003660522107009284	0.1724845995893224	-0.4175152749490835	0.7004132231404959
2234.405517578125	-0.002800382637469929	-9.710905457052782	-1.906653912084336	-0.3623554458007803	0.003696764900147988	0.003660522107009284	0.1868583162217659	-0.3665987780040733	0.6942148760330579
2238.311767578125	-0.003761708020481994	-9.70121628559329	-1.8746097326506	-0.3587047118933778	-0.003641210253730994	-0.3614128686332386	0.1868583162217659	-0.3665987780040733	0.6942148760330579
2242.218017578125	0.2261038878080441	-9.703559742942067	-1.870129593601469	-0.358667525979228	-0.3754631658370828	-0.3651314600482136	0.1868583162217659	-0.3665987780040733	0.6942148760330579
2246.124267578125	-0.04885015547604534	-9.589128216937256	-2.038328150798489	-0.3550539779859753	-0.01097918540760998	-0.7264862593734864	0.1848049281314169	-0.3788187372708757	0.6838842975206612
2250.030517578125	-0.04050894253419252	-9.749764558086055	-1.98303524886025	-0.3623182598866305	-0.3681251906832038	-5.806930796573191e-05	0.1848049281314169	-0.3788187372708757	0.6838842975206612
2253.936767578125	0.06040892999516577	-9.770467779301564	-2.013630999838859	0.3622810739724808	0.7399471462665556	0.003776660722940747	0.1848049281314169	-0.3788187372708757	0.6838842975206612
2257.843017578125	-0.02959841203872747	-9.729570153225856	-2.013386265375751	-0.7248224493440097	1.122859396550351	0.01847681845894361	0.1848049281314169	-0.3788187372708757	0.6838842975206612
2261.749267578125	0.1297323982426436	-9.698053191234878	-2.324413274754786	-0.72478526342986	0.7510374409669995	0.0147582270439686	0.1786447638603696	-0.3910386965376782	0.6983471074380165
2265.655517578125	-0.2419243541809768	-9.778222207851849	-1.935854860634107	-0.7210601576941581	5.555464641699391e-05	-0.3577523465262293	0.1786447638603696	-0.3910386965376782	0.6983471074380165
2269.561767578125	0.05343518072365168	-9.469389291566019	-2.114506024121722	-0.7283244395948133	-0.3570904506291769	0.3686758435392914	0.1786447638603696	-0.3910386965376782	0.6983471074380165
2273.468017578125	-0.02692420828664059	-9.618705494012682	-2.102526390445314	-0.007301467814804958	0.01467595030775797	0.7301467814804957	0.1930184804928131	-0.405295315682281	0.7169421487603306
2277.374267578125	0.04207356071294224	-9.609729548702816	-2.069118690431408	-0.3586303400650783	-0.7472851214204346	-0.3688500514631886	0.1930184804928131	-0.405295315682281	0.7169421487603306
2281.280517578125	-0.09416493630726455	-9.747113329406014	-2.194502123091183	-0.362243888058331	-1.111769101849907	-0.007495252137915762	0.1930184804928131	-0.405295315682281	0.7169421487603306
2285.186767578125	0.01375823021495361	-9.668884838897167	-2.125274340498454	-0.003576362079102979	-0.7363059360128246	0.3576362079102978	0.1930184804928131	-0.405295315682281	0.7169421487603306
2289.093017578125	0.03698145406970279	-9.581375996517464	-1.899381802323426	-0.7283244395948133	-0.3570904506291769	0.3686758435392914	0.1930184804928131	-0.405295315682281	0.7169421487603306
2292.999267578125	0.1143362083718113	-9.533031292626449	-1.811206945727044	0	0	0	0.1930184804928131	-0.405295315682281	0.7169421487603306
2296.905517578125	-0.04173997528471084	-9.560162592008723	-1.942000823842972	-0.7210229717800084	-0.3717664009369348	-0.3614709379412043	0.1930184804928131	-0.405295315682281	0.7169421487603306
2300.811767578125	-0.0976648231405767	-9.728244959482121	-2.077839228647444	-0.717335051958456	-0.7509263316741656	-0.7302629200964272	0.1950718685831622	-0.3849287169042769	0.71900826446281
2304.718017578125	0.1183912823008089	-9.711720152056071	-1.94637607669363	-0.36239263171493	0.3755187204834998	0.007379113521984299	0.1950718685831622	-0.3849287169042769	0.71900826446281
2308.624267578125	-0.123240494589686	-9.579847759917332	-1.891983513677134	-0.3549796061576758	-0.7546230965743135	-0.7339234422034364	0.1950718685831622	-0.3849287169042769	0.71900826446281
2312.530517578125	-0.0001119837607774604	-9.820036208082652	-1.996267207974085	-0.7246737056874109	-0.3644284257830558	0.003602452799043552	0.2032854209445585	-0.395112016293279	0.6962809917355373
2316.436767578125	-0.01428187258929326	-9.771284472137205	-1.857270913690225	-0.003613547993252729	-0.3644839804294728	0.3613547993252729	0.2032854209445585	-0.395112016293279	0.6962809917355373
2320.343017578125	-0.1203123558307657	-9.848900995051947	-1.989588138974476	0.7209857858658586	0.7435883565202867	0.3651895293561793	0.2032854209445585	-0.395112016293279	0.6962809917355373
2324.249267578125	0.1070604183934116	-9.662050464719464	-1.902013946447052	-0.00379947756400148	1.494625797487286	0.3799477564001479	0.2032854209445585	-0.395112016293279	0.6962809917355373
2328.155517578125	-0.02591319996750895	-9.731711934656163	-1.802893334416369	0.7209114140375591	1.48723226768699	0.3726267121861294	0.1724845995893224	-0.3849287169042769	0.6818181818181819
2332.061767578125	-0.07041649284210845	-9.799434666018948	-1.986116905263053	0.358518782322629	1.86275098817049	0.3800058257081136	0.1724845995893224	-0.3849287169042769	0.6818181818181819
2335.968017578125	0.01036322958011609	-9.719982555769096	-2.012107652670537	0.3622067021441813	1.483591057433259	0.01121384355289078	0.1724845995893224	-0.3849287169042769	0.6818181818181819
2339.874267578125	0.1198178923236709	-9.821258881482013	-1.993929744122364	0.003501990250803478	1.479949847179528	-0.3501990250803478	0.1806981519507187	-0.3788187372708757	0.6900826446280992
2343.780517578125	0.02835318416360354	-9.860832470453769	-1.945106138786785	0.3622067021441813	1.483591057433259	0.01121384355289078	0.1806981519507187	-0.3788187372708757	0.6900826446280992
2347.686767578125	0.3185449050937628	-9.683670480686351	-1.951496836458758	0.003464804336653728	1.85177180276288	-0.3464804336653728	0.1806981519507187	-0.3788187372708757	0.6900826446280992
2351.593017578125	0.01642139331456947	-9.831357082828289	-1.880713110485649	0.3621695162300315	1.855413013016611	0.0149324349678658	0.1806981519507187	-0.3788187372708757	0.6900826446280992
2355.499267578125	0.155073061517727	-9.759859710109268	-2.169102050590898	0.003576362079102979	0.7363059360128246	-0.3576362079102978	0.1806981519507187	-0.3788187372708757	0.6900826446280992
2359.405517578125	-0.05095418838980759	-9.869808520912706	-1.968193720339747	-0.3550539779859753	-0.01097918540760998	-0.7264862593734864	0.1806981519507187	-0.3788187372708757	0.6900826446280992
2363.311767578125	0.03980549524818203	-9.570462889869754	-1.993516508272735	0.01095220172220744	-0.02201392546163695	-1.095220172220744	0.1806981519507187	-0.3788187372708757	0.6900826446280992
2367.218017578125	-0.04127469064486087	-9.660012149975172	-1.957510311837972	-3.718591414975016e-05	0.3718219555833518	0.003718591414975016	0.1909650924024641	-0.3706720977596741	0.6962809917355373
2371.124267578125	-0.04249152827077359	-9.690405594140882	-1.916949057640881	-0.3550539779859753	-0.01097918540760998	-0.7264862593734864	0.1909650924024641	-0.3706720977596741	0.6962809917355373
2375.030517578125	0.1311140570375879	-9.777606454891179	-2.370468567919596	0.007338653728954708	-0.3864979058911098	-0.7338653728954707	0.1909650924024641	-0.3706720977596741	0.6962809917355373
2378.936767578125	-0.3184826042691049	-9.726309375380344	-2.050579857696504	-0.3586303400650783	-0.7472851214204346	-0.3688500514631886	0.1806981519507187	-0.4032586558044806	0.6880165289256198
2382.843017578125	0.08374256037462512	-9.616256572145538	-2.458085345820837	0.0001115577424492505	-1.115465866750055	-0.01115577424492505	0.1806981519507187	-0.4032586558044806	0.6880165289256198
2386.749267578125	-0.1868464820932446	-9.817080362543482	-2.105117263558513	-0.3622067021441813	-1.483591057433259	-0.01121384355289078	0.1806981519507187	-0.4032586558044806	0.6880165289256198
2390.655517578125	0.01493011661294862	-9.608505928961813	-2.164337220431621	-0.717186308301857	-2.238214154007573	-0.7451372857563272	0.1806981519507187	-0.4032586558044806	0.6880165289256198
2394.561767578125	-0.1459526939586339	-9.587191371046625	-2.134910201378872	-0.003464804336653728	-1.85177180276288	0.3464804336653728	0.1765913757700205	-0.3930753564154786	0.6880165289256198
2398.468017578125	-0.1644489413197208	-9.599838491026711	-1.851701956009309	0.3588906414641265	-1.855468567663028	0.3428199115583635	0.1765913757700205	-0.3930753564154786	0.6880165289256198
2402.374267578125	0.03391136406472661	-9.779035325619072	-2.130378802157554	-0.7208370422092596	-2.230876178853694	-0.3800638950160794	0.1765913757700205	-0.3930753564154786	0.6880165289256198
2406.280517578125	-0.03617785229341954	-9.761697505574872	-1.794071590219349	-1.086843221917442	-2.219841438799667	-0.01132998216882224	0.1950718685831622	-0.3808553971486761	0.7004132231404959
2410.186767578125	0.1640002176585773	-9.890306596290394	-2.133340588619243	-0.3621695162300315	-1.855413013016611	-0.0149324349678658	0.1950718685831622	-0.3808553971486761	0.7004132231404959
2414.093017578125	0.1862621161303144	-9.793108582451199	-1.87540387101048	-0.365820250137434	-1.848075037862732	0.3501409557723821	0.1950718685831622	-0.3808553971486761	0.7004132231404959
2417.999267578125	0.309075968363799	-9.823398770229039	-1.969198945459965	-0.3622067021441813	-1.483591057433259	-0.01121384355289078	0.1950718685831622	-0.3808553971486761	0.7004132231404959
2421.905517578125	0.1951750771465592	-9.703560058389279	-1.839169238218638	-0.003613547993252729	-0.3644839804294728	0.3613547993252729	0.1950718685831622	-0.3808553971486761	0.7004132231404959
2425.811767578125	0.01771314965367839	-9.850939414945309	-1.923771655122613	-0.717335051958456	-0.7509263316741656	-0.7302629200964272	0.1950718685831622	-0.3808553971486761	0.7004132231404959
2429.718017578125	0.2976552020005663	-9.713758151353149	-1.921840066685541	-0.3624670035432295	1.119162631650203	0.01481629635193433	0.1950718685831622	-0.3808553971486761	0.7004132231404959
2433.624267578125	-0.03747512895876398	-9.878783625030001	-2.084162368041202	-0.358816269635827	1.111824656496325	-0.3502570943883135	0.1765913757700205	-0.4012219959266802	0.7024793388429752
2437.530517578125	-0.1256899422021844	-9.840639747978708	-1.810335259927189	-0.3551283498142748	0.7326647257590937	-0.7190490765435364	0.1765913757700205	-0.4012219959266802	0.7024793388429752
2441.436767578125	-0.06354526391496806	-9.400546301999173	-1.881824536167732	0.003650733907402479	-0.007337975153878983	-0.3650733907402479	0.1765913757700205	-0.4012219959266802	0.7024793388429752
2445.343017578125	0.03327100622140766	-9.632575707988414	-1.775700207380255	0.7209857858658586	0.7435883565202867	0.3651895293561793	0.188911704312115	-0.3828920570264766	0.6838842975206612
2449.249267578125	-0.1125854763371216	-9.599735970682335	-1.91381745542928	0.3586303400650783	0.7472851214204346	0.3688500514631886	0.188911704312115	-0.3828920570264766	0.6838842975206612
2453.155517578125	0.06415486565497489	-9.602589926771559	-1.805162188499162	-0.003762291649851729	1.122803841903934	0.3762291649851729	0.188911704312115	-0.3828920570264766	0.6838842975206612
2457.061767578125	-0.1829649041316488	-9.529158652335902	-1.901169862278375	-0.3624670035432295	1.119162631650203	0.01481629635193433	0.188911704312115	-0.3828920570264766	0.6838842975206612
2460.968017578125	0.03711709637148956	-9.461332138839886	-1.903903212382986	0.003501990250803478	1.479949847179528	-0.3501990250803478	0.1806981519507187	-0.3788187372708757	0.6921487603305785
2464.874267578125	-0.08698930081913757	-9.621459873931522	-1.767023306028748	-0.7248224493440097	1.122859396550351	0.01847681845894361	0.1806981519507187	-0.3788187372708757	0.6921487603305785
2468.780517578125	0.01860034494152791	-9.600652555135573	-1.953344831384264	-0.3550911639001251	0.3608427701757418	-0.7227676679585114	0.1806981519507187	-0.3788187372708757	0.6921487603305785
2472.686767578125	0.1450378970396068	-10.01310441329053	-1.834596567986892	-0.3587790837216773	0.7400027009129726	-0.3539756858032885	0.1827515400410678	-0.4093686354378818	0.6962809917355373
2476.593017578125	0.1194732662429685	-9.591370310581441	-1.982442208098949	-0.3624298176290798	0.7473406760668516	0.01109770493695932	0.1827515400410678	-0.4093686354378818	0.6962809917355373
2480.499267578125	-0.3041439511813893	-10.16833987754865	-1.861868293953692	-0.3550167920718256	-0.3828011409909618	-0.7302048507884614	0.1827515400410678	-0.4093686354378818	0.6962809917355373
2484.405517578125	0.1890262223382367	-9.742214854777306	-1.96754074460789	-0.7137586898793531	-0.01462039566134097	-1.087899128006725	0.1827515400410678	-0.4093686354378818	0.6962809917355373
2488.311767578125	0.02633589923354213	-9.708151392581154	-2.211196641118071	0.358667525979228	0.3754631658370828	0.3651314600482136	0.1827515400410678	-0.4093686354378818	0.6962809917355373
2492.218017578125	-0.07932866524031956	-9.678982935094371	-2.022377825322683	3.718591414975016e-05	-0.3718219555833518	-0.003718591414975016	0.1827515400410678	-0.4093686354378818	0.6962809917355373
2496.124267578125	0.0331605996966975	-9.699278072764736	-2.10535332322325	-1.083341231666639	-0.7398915916201386	-0.36152900724917	0.1827515400410678	-0.4093686354378818	0.6962809917355373
2500.030517578125	-0.1969605083747293	-9.737017231041163	-2.101316387509026	-0.7209114140375591	-1.48723226768699	-0.3726267121861294	0.188911704312115	-0.3890020366598778	0.6962809917355373
2503.936767578125	-0.1271670237791996	-9.837784004355274	-2.094432540693348	-0.3658946219657335	-1.104431126696028	0.3575781386023321	0.188911704312115	-0.3890020366598778	0.6962809917355373
2507.843017578125	-0.1064121743697562	-9.717739936379553	-2.119594187674794	-0.7245249620308118	-1.851716248116463	-0.01127191286085651	0.188911704312115	-0.3890020366598778	0.6962809917355373
2511.749267578125	-0.02008452408084599	-9.619827329452807	-1.997182530638468	0.0001487436565990006	-1.487287822333407	-0.01487436565990006	0.1950718685831622	-0.3665987780040733	0.7107438016528926
2515.655517578125	-0.02832163944225779	-9.73915733008633	-2.05594535192474	-1.079578940016787	-1.862695433524073	-0.7377581722343429	0.1950718685831622	-0.3665987780040733	0.7107438016528926
2519.561767578125	-0.07823248617355436	-9.778628503862782	-2.058917127548189	-0.3621695162300315	-1.855413013016611	-0.0149324349678658	0.1950718685831622	-0.3665987780040733	0.7107438016528926
2523.468017578125	-0.08337427575291337	-9.646957682493442	-2.220857474902888	-0.7208370422092596	-2.230876178853694	-0.3800638950160794	0.1950718685831622	-0.3665987780040733	0.7107438016528926
2527.374267578125	-0.01231427059535143	-9.820648280825829	-1.92285764682162	-1.083266859838339	-1.483535502786842	-0.3689661900791201	0.1848049281314169	-0.3971486761710794	0.7169421487603306
2531.280517578125	-0.1558577364612028	-9.857060668122456	-2.138075451293242	-0.7208742281234094	-1.859054223270342	-0.3763453036011044	0.1848049281314169	-0.3971486761710794	0.7169421487603306
2535.186767578125	0.1020132629780898	-9.663682378303751	-1.733775432602994	-1.086917593745742	-1.476197527632963	-0.00389279933887221	0.1848049281314169	-0.3971486761710794	0.7169421487603306
2539.093017578125	0.157917606765081	-9.622273307145958	-1.930586892169365	0.00379947756400148	-1.494625797487286	-0.3799477564001479	0.1930184804928131	-0.3991853360488798	0.6962809917355373
2542.999267578125	0.03974950336779331	-9.813814327244414	-1.658316778926444	-0.7209114140375591	-1.48723226768699	-0.3726267121861294	0.1930184804928131	-0.3991853360488798	0.6962809917355373
2546.905517578125	0.134999578089352	-9.773016803084444	-1.833319269645067	-1.075928206109385	-1.870033408677952	-1.102831562974591	0.1930184804928131	-0.3991853360488798	0.6962809917355373
2550.811767578125	0.4966369383955251	-9.746087389918781	-1.887897946517502	0.003725105735701979	-0.7509818863205826	-0.3725105735701979	0.1704312114989733	-0.4012219959266802	0.7024793388429752
2554.718017578125	0.2985905029884681	-9.986789070700397	-1.619683432948934	-0.003650733907402479	0.007337975153878983	0.3650733907402479	0.1704312114989733	-0.4012219959266802	0.7024793388429752
2558.624267578125	0.2688043998577334	-9.696419910712667	-1.62681332859111	-0.7173722378726058	-0.3791043760908138	-0.7265443286814521	0.1704312114989733	-0.4012219959266802	0.7024793388429752
2562.530517578125	0.3021660971530101	-9.845632961920527	-1.738869905100334	-0.3586303400650783	-0.7472851214204346	-0.3688500514631886	0.1704312114989733	-0.4012219959266802	0.7024793388429752
2566.436767578125	0.2639315290278469	-9.954662138947663	-1.797717634261563	0	0	0	0.1745379876796715	-0.405295315682281	0.6880165289256198
2570.343017578125	0.3305303219690846	-10.09979519589666	-2.35101073230282	0.3623182598866305	0.3681251906832038	5.806930796573191e-05	0.1745379876796715	-0.405295315682281	0.6880165289256198
2574.249267578125	0.3328346638633925	-9.81238345868417	-2.094488795446414	0.003576362079102979	0.7363059360128246	-0.3576362079102978	0.1745379876796715	-0.405295315682281	0.6880165289256198
2578.155517578125	-0.01581888913686546	-9.728448107487587	-2.139370362104485	-7.437182829950031e-05	0.7436439111667036	0.007437182829950031	0.1663244353182751	-0.415478615071283	0.7004132231404959
2582.061767578125	0.1026086695934911	-9.780156530164771	-2.086955653116369	1.083266859838339	1.483535502786842	0.3689661900791201	0.1663244353182751	-0.415478615071283	0.7004132231404959
2585.968017578125	0.01303664471416932	-9.819118151542419	-2.101221490472311	-0.3588534555499768	1.483646612079676	-0.3465385029733385	0.1663244353182751	-0.415478615071283	0.7004132231404959
2589.874267578125	-0.1826352617935856	-9.749052067979926	-1.912157940213815	-0.3625785612856788	2.234628498400259	0.02597207059685937	0.1663244353182751	-0.415478615071283	0.7004132231404959
2593.780517578125	0.1103442238855053	-9.887655367610353	-2.344807462850176	-0.0001487436565990006	1.487287822333407	0.01487436565990006	0.1724845995893224	-0.4073319755600814	0.7045454545454546
2597.686767578125	-0.3307298423315966	-9.696935982353885	-1.975671922280116	-0.003762291649851729	1.122803841903934	0.3762291649851729	0.1724845995893224	-0.4073319755600814	0.7045454545454546
2601.593017578125	0.06933214304584788	-9.617582607081843	-2.311071434861596	-0.36239263171493	0.3755187204834998	0.007379113521984299	0.1724845995893224	-0.4073319755600814	0.7045454545454546
2605.499267578125	-0.259584666426401	-9.857265708811202	-2.013844452453299	0.36239263171493	-0.3755187204834998	-0.007379113521984299	0.1724845995893224	-0.3869653767820774	0.7045454545454546
2609.405517578125	0.1024091492309791	-9.576887708415317	-2.413638307699304	0.007375839643104458	-0.7583198614744615	-0.7375839643104457	0.1724845995893224	-0.3869653767820774	0.7045454545454546
2613.311767578125	-0.0804705841530361	-9.759352155542816	-1.984313861565465	0.003687919821552229	-0.3791599307372308	-0.3687919821552229	0.1724845995893224	-0.3869653767820774	0.7045454545454546
2617.218017578125	0.2050738107048589	-9.780359467872094	-2.169127023495297	0.3622810739724808	0.7399471462665556	0.003776660722940747	0.1868583162217659	-0.4032586558044806	0.6776859504132231
2621.124267578125	-0.1552859883868109	-9.606875802911736	-2.157133720439639	-0.0001115577424492505	1.115465866750055	0.01115577424492505	0.1868583162217659	-0.4032586558044806	0.6776859504132231
2625.030517578125	-0.04050815391615888	-9.539764303099558	-1.983061536128038	0.003613547993252729	0.3644839804294728	-0.3613547993252729	0.1868583162217659	-0.4032586558044806	0.6776859504132231
2628.936767578125	-0.2569703976448711	-9.706420428571841	-2.100986745170963	0.003613547993252729	0.3644839804294728	-0.3613547993252729	0.1868583162217659	-0.4032586558044806	0.6776859504132231
2632.843017578125	-0.1445363359702092	-9.760066748630367	-1.848788800993028	1.087066337402341	-0.01109029470044396	-0.01098156632102785	0.1868583162217659	-0.4093686354378818	0.6983471074380165
2636.749267578125	-0.2283388313153913	-9.437162888791976	-2.055372289486959	0.7210601576941581	-5.555464641699391e-05	0.3577523465262293	0.1868583162217659	-0.4093686354378818	0.6983471074380165
2640.655517578125	0.02354182554034135	-9.739054809741956	-2.118060851344712	0.0001115577424492505	-1.115465866750055	-0.01115577424492505	0.1868583162217659	-0.4093686354378818	0.6983471074380165
2644.561767578125	-0.380355209334714	-9.716314851018224	-1.988159688842869	0.3587790837216773	-0.7400027009129726	0.3539756858032885	0.1971252566735113	-0.3828920570264766	0.6983471074380165
2648.468017578125	-0.2018270702603465	-9.648590752717512	-1.939097657988451	-0.3659318078798833	-0.7326091711126765	0.3612967300173071	0.1971252566735113	-0.3828920570264766	0.6983471074380165
2652.374267578125	-0.03742465740461074	-9.772100639227492	-1.752511419846309	-1.086954779659892	-1.104375572049612	-0.000174207923897194	0.1971252566735113	-0.3828920570264766	0.6983471074380165
2656.280517578125	-0.06778802893597291	-9.868584796022631	-2.073732368800904	-0.7208742281234094	-1.859054223270342	-0.3763453036011044	0.1971252566735113	-0.3828920570264766	0.6983471074380165
2660.186767578125	-0.181238619256002	-9.838600486892775	-1.958712691466601	-0.3622810739724808	-0.7399471462665556	-0.003776660722940747	0.1971252566735113	-0.3828920570264766	0.6983471074380165
2664.093017578125	-0.06999537081214253	-9.659298503229259	-2.000154306261916	-0.7245993338591113	-1.108072336949759	-0.003834730030906479	0.1971252566735113	-0.3828920570264766	0.6983471074380165
2667.999267578125	-0.1648400958644082	-9.759964964329493	-1.838663471186394	-0.3585559682367788	-1.490929032587138	-0.3762872342931387	0.1971252566735113	-0.3828920570264766	0.6983471074380165
2671.905517578125	0.1042363772149323	-9.672963571367172	-1.807879240497744	-0.7171491223877073	-2.610036109590924	-0.7488558771713023	0.1806981519507187	-0.3849287169042769	0.7148760330578513
2675.811767578125	0.02941072094672017	-9.583823866893894	-1.647024031557339	0.0002603013990482511	-2.602753689083463	-0.02603013990482511	0.1806981519507187	-0.3849287169042769	0.7148760330578513
2679.718017578125	0.06028906005405188	-9.69050653724919	-2.009635335135063	-0.003501990250803478	-1.479949847179528	0.3501990250803478	0.1806981519507187	-0.3849287169042769	0.7148760330578513
2683.624267578125	0.0410570320675751	-9.633391559631484	-1.70190106891917	7.437182829950031e-05	-0.7436439111667036	-0.007437182829950031	0.1950718685831622	-0.3686354378818737	0.6942148760330579
2687.530517578125	0.01105405897758826	-9.759759187597247	-2.035135299252942	-0.3585931541509285	-1.119107077003786	-0.3725686428781636	0.1950718685831622	-0.3686354378818737	0.6942148760330579
2691.436767578125	0.1238587711280629	-9.779952330668593	-2.128625704268763	3.718591414975016e-05	-0.3718219555833518	-0.003718591414975016	0.1950718685831622	-0.3686354378818737	0.6942148760330579
2695.343017578125	-0.02286361403140751	-9.660725901870157	-1.904546198953083	0.7284359973372625	-0.7583754161208786	-0.3798316177842165	0.1950718685831622	-0.3686354378818737	0.6942148760330579
2699.249267578125	0.1906326372727696	-9.971695447281805	-2.021087909092319	3.718591414975016e-05	-0.3718219555833518	-0.003718591414975016	0.1724845995893224	-0.3767820773930753	0.6900826446280992
2703.155517578125	-0.09877756318604844	-10.03860474543016	-2.040747893798387	-0.7172234942160068	-1.866392198424221	-0.7414186943413522	0.1724845995893224	-0.3767820773930753	0.6900826446280992
2707.061767578125	-0.06640558152299494	-9.738137804692435	-2.119813949233503	-1.083304045752489	-1.11171354720349	-0.3652475986641451	0.1724845995893224	-0.3767820773930753	0.6900826446280992
2710.968017578125	0.06359336961502034	-9.789438143824476	-2.119778987167344	0.3696569136155852	-0.01837271520790595	-0.733807303587505	0.1950718685831622	-0.3910386965376782	0.6962809917355373
2714.874267578125	-0.07688079486388852	-9.838191457005992	-2.103973504537051	-0.3586303400650783	-0.7472851214204346	-0.3688500514631886	0.1950718685831622	-0.3910386965376782	0.6962809917355373
2718.780517578125	-0.08637812184306345	-9.537928926062591	-2.120729271897885	-1.083304045752489	-1.11171354720349	-0.3652475986641451	0.1950718685831622	-0.3910386965376782	0.6962809917355373
2722.686767578125	0.08983542330255882	-9.820953213132173	-1.994514110085294	-0.3585931541509285	-1.119107077003786	-0.3725686428781636	0.1950718685831622	-0.3910386965376782	0.6962809917355373
2726.593017578125	0.005042423707119876	-9.258369616334697	-2.168080790237329	0.0001115577424492505	-1.115465866750055	-0.01115577424492505	0.1950718685831622	-0.3910386965376782	0.6962809917355373
2730.499267578125	-0.137520789942912	-9.597798388748208	-2.082640335236269	-0.3622067021441813	-1.483591057433259	-0.01121384355289078	0.1950718685831622	-0.3910386965376782	0.6962809917355373
2734.405517578125	-0.1168865990926161	-9.607793333706613	-2.10378003024613	-1.079578940016787	-1.862695433524073	-0.7377581722343429	0.1950718685831622	-0.3910386965376782	0.6962809917355373
2738.311767578125	-0.04698822829861181	-9.778526193816552	-2.100392390046273	-0.3622067021441813	-1.483591057433259	-0.01121384355289078	0.1848049281314169	-0.3849287169042769	0.6921487603305785
2742.218017578125	0.09546931053491173	-9.579131589593711	-2.182310351163724	-0.007264281900655208	-0.3571460052755938	0.7264281900655207	0.1848049281314169	-0.3849287169042769	0.6921487603305785
2746.124267578125	0.3385340063925379	-9.473874004599747	-1.951133546417926	-0.7245993338591113	-1.108072336949759	-0.003834730030906479	0.1848049281314169	-0.3849287169042769	0.6921487603305785
2750.030517578125	0.1830721561842243	-9.910806669500435	-2.102405206140811	-0.7245993338591113	-1.108072336949759	-0.003834730030906479	0.1868583162217659	-0.3727087576374745	0.7107438016528926
2753.936767578125	0.3204825396024262	-9.713043978861883	-2.016084653414203	0.3550539779859753	0.01097918540760998	0.7264862593734864	0.1868583162217659	-0.3727087576374745	0.7107438016528926
2757.843017578125	0.1497404263742261	-9.781583928805667	-1.991347545807536	-0.007264281900655208	-0.3571460052755938	0.7264281900655207	0.1868583162217659	-0.3727087576374745	0.7107438016528926
2761.749267578125	0.2774263608195635	-9.763632143335007	-1.91421202731878	-0.003687919821552229	0.3791599307372308	0.3687919821552229	0.1868583162217659	-0.3727087576374745	0.7107438016528926
2765.655517578125	0.1880806693158975	-9.532520583587861	-1.936022310529917	0.3550167920718256	0.3828011409909618	0.7302048507884614	0.1909650924024641	-0.3706720977596741	0.6859504132231405
2769.561767578125	0.1822914243309167	-9.811059106133005	-2.076380811030558	-0.3623554458007803	0.003696764900147988	0.003660522107009284	0.1909650924024641	-0.3706720977596741	0.6859504132231405
2773.468017578125	0.0973067905533023	-9.611870804387765	-1.910226351776743	0.7209857858658586	0.7435883565202867	0.3651895293561793	0.1909650924024641	-0.3706720977596741	0.6859504132231405
2777.374267578125	0.02565059016230548	-9.531706309180855	-1.855019672076849	-0.7247108916015605	0.007393529800295976	0.007321044214018567	0.1909650924024641	-0.4012219959266802	0.7086776859504132
2781.280517578125	0.182226757652158	-9.697746681692468	-2.407558588405264	-0.3587047118933778	-0.003641210253730994	-0.3614128686332386	0.1909650924024641	-0.4012219959266802	0.7086776859504132
2785.186767578125	-0.07567420927241313	-9.871134660998081	-1.810859690919563	-7.437182829950031e-05	0.7436439111667036	0.007437182829950031	0.1909650924024641	-0.4012219959266802	0.7086776859504132
2789.093017578125	0.2150379995599511	-9.760471046808949	-2.167933318665038	-0.3550539779859753	-0.01097918540760998	-0.7264862593734864	0.1909650924024641	-0.4012219959266802	0.7086776859504132
2792.999267578125	-0.1520226869635919	-9.959154002118227	-1.932577101213604	0.003650733907402479	-0.007337975153878983	-0.3650733907402479	0.1909650924024641	-0.4012219959266802	0.7086776859504132
2796.905517578125	0.01989131266260317	-9.830235142239092	-1.996377088753439	-0.7137586898793531	-0.01462039566134097	-1.087899128006725	0.1909650924024641	-0.4012219959266802	0.7086776859504132
2800.811767578125	-0.03019855036233057	-9.539764197950486	-1.993381654588982	-0.7210973436083078	0.3718775102297688	-0.3540337551112543	0.1909650924024641	-0.4012219959266802	0.7086776859504132
2804.718017578125	0.1106651914251984	-9.750884921439186	-2.022173047506613	-0.0001487436565990006	1.487287822333407	0.01487436565990006	0.1581108829568789	-0.3890020366598778	0.7045454545454546
2808.624267578125	-0.1981016386694122	-9.607386196503109	-2.063278711019596	-0.358816269635827	1.111824656496325	-0.3502570943883135	0.1581108829568789	-0.3890020366598778	0.7045454545454546
2812.530517578125	-0.08727556916535036	-9.851552434030131	-1.757481027821655	-0.7210973436083078	0.3718775102297688	-0.3540337551112543	0.1581108829568789	-0.3890020366598778	0.7045454545454546
2816.436767578125	-0.1389332048411684	-9.708255069565309	-2.03555983862772	-0.003725105735701979	0.7509818863205826	0.3725105735701979	0.1745379876796715	-0.3706720977596741	0.6838842975206612
2820.343017578125	0.1062039792088742	-9.722327380055797	-1.873465973629139	-0.3660061797081828	0.01103474005402697	0.3687339128472572	0.1745379876796715	-0.3706720977596741	0.6838842975206612
2824.249267578125	-0.11935024182972	-9.648589911524944	-2.021658605676	-0.003613547993252729	-0.3644839804294728	0.3613547993252729	0.1745379876796715	-0.3706720977596741	0.6838842975206612
2828.155517578125	-0.02417035411315566	-9.631148414496588	-1.860988196228145	-0.003539176164953228	-1.108127891596177	0.3539176164953228	0.1745379876796715	-0.3706720977596741	0.6838842975206612
2832.061767578125	-0.155837232392328	-9.730387371806854	-1.8054255869224	-0.003576362079102979	-0.7363059360128246	0.3576362079102978	0.1868583162217659	-0.3767820773930753	0.6942148760330579
2835.968017578125	-0.05092343228649548	-9.679798576439302	-1.969218923783484	-0.007152724158205957	-1.472611872025649	0.7152724158205956	0.1868583162217659	-0.3767820773930753	0.6942148760330579
2839.874267578125	0.1138843302385333	-9.86317739988954	-1.796144341284443	-0.7208370422092596	-2.230876178853694	-0.3800638950160794	0.1868583162217659	-0.3767820773930753	0.6942148760330579
2843.780517578125	0.06953245202639347	-9.6108511738448	-1.984415067546449	-0.7244505902025123	-2.595360159283167	-0.01870909569080654	0.1827515400410678	-0.3890020366598778	0.6983471074380165
2847.686767578125	-0.07824904715226089	-10.18863385857923	-2.058365094924638	-0.3621695162300315	-1.855413013016611	-0.0149324349678658	0.1827515400410678	-0.3890020366598778	0.6983471074380165
2851.593017578125	0.292558363649125	-9.61207279575345	-2.085278788304163	0.0002231154848985009	-2.230931733500111	-0.02231154848985009	0.1827515400410678	-0.3890020366598778	0.6983471074380165
2855.499267578125	0.1480874829757082	-9.942118380504521	-1.936249432523607	-0.3584815964084793	-2.234572943753842	-0.3837244171230887	0.1827515400410678	-0.3890020366598778	0.6983471074380165
2859.405517578125	0.2952814617192978	-9.81452566071076	-1.842715390643257	0.358816269635827	-1.111824656496325	0.3502570943883135	0.1827515400410678	-0.3890020366598778	0.6983471074380165
2863.311767578125	0.2886223710432076	-9.723345433362697	-1.954079034773586	-0.003576362079102979	-0.7363059360128246	0.3576362079102978	0.1827515400410678	-0.3890020366598778	0.6983471074380165
2867.218017578125	0.09727682306802382	-9.591880493874672	-1.909227435600794	0.3587047118933778	0.003641210253730994	0.3614128686332386	0.1827515400410678	-0.3890020366598778	0.6983471074380165
2871.124267578125	0.1592243468468291	-9.651850794519525	-1.974144894894303	0.003613547993252729	0.3644839804294728	-0.3613547993252729	0.1909650924024641	-0.395112016293279	0.6921487603305785
2875.030517578125	0.09072261859040835	-9.570666353322434	-2.024087286346945	-0.7210601576941581	5.555464641699391e-05	-0.3577523465262293	0.1909650924024641	-0.395112016293279	0.6921487603305785
2878.936767578125	0.11036472795438	-9.76098207129475	-2.012157598479334	-0.7284359973372625	0.7583754161208786	0.3798316177842165	0.1909650924024641	-0.395112016293279	0.6921487603305785
2882.843017578125	0.1224621285904793	-9.690403911755745	-2.082070953015978	-3.718591414975016e-05	0.3718219555833518	0.003718591414975016	0.188911704312115	-0.3849287169042769	0.6859504132231405
2886.749267578125	0.07371291622274044	-9.732832823754647	-1.790430540758014	-0.7211345295224576	0.7436994658131205	-0.3503151636962792	0.188911704312115	-0.3849287169042769	0.6859504132231405
2890.655517578125	0.0884088132796968	-9.71141448370623	-1.94696044265656	-0.7210973436083078	0.3718775102297688	-0.3540337551112543	0.188911704312115	-0.3849287169042769	0.6859504132231405
2894.561767578125	-0.01561858015631989	-9.721716674250542	-1.812713994789338	-7.437182829950031e-05	0.7436439111667036	0.007437182829950031	0.188911704312115	-0.3849287169042769	0.6859504132231405
2898.468017578125	-0.09482027789322273	-9.590658556518809	-1.83932407022591	-0.003762291649851729	1.122803841903934	0.3762291649851729	0.1991786447638604	-0.3869653767820774	0.6962809917355373
2902.374267578125	0.2001015740027334	-9.831967157739115	-2.003385800091112	-0.0001115577424492505	1.115465866750055	0.01115577424492505	0.1991786447638604	-0.3869653767820774	0.6962809917355373
2906.280517578125	-0.1295849266703522	-9.698565792956748	-2.013835777654929	-0.3587047118933778	-0.003641210253730994	-0.3614128686332386	0.1991786447638604	-0.3869653767820774	0.6962809917355373
2910.186767578125	0.02423265493781352	-9.778831441570105	-2.141088497927118	-0.003725105735701979	0.7509818863205826	0.3725105735701979	0.1909650924024641	-0.3991853360488798	0.6942148760330579
2914.093017578125	0.0786047138854343	-9.767917809177044	-2.286823796181143	0.3549796061576758	0.7546230965743135	0.7339234422034364	0.1909650924024641	-0.3991853360488798	0.6942148760330579
2917.999267578125	0.1284248695428618	-9.878475958847808	-2.28082898476206	-0.7212460872649068	1.859165332563176	-0.3391593894513542	0.1909650924024641	-0.3991853360488798	0.6942148760330579
2921.905517578125	0.0166422063639898	-9.697952353275644	-2.22140687879966	-0.0001859295707487508	1.859109777916759	0.01859295707487508	0.1909650924024641	-0.3991853360488798	0.6942148760330579
2925.811767578125	-0.08541679646005138	-9.547618097522085	-2.152773451331621	-0.3551283498142748	0.7326647257590937	-0.7190490765435364	0.1909650924024641	-0.3991853360488798	0.6942148760330579
2929.718017578125	-0.1364246108761468	-9.69744395751662	-2.119179637461775	-0.007338653728954708	0.3864979058911098	0.7338653728954707	0.1909650924024641	-0.3991853360488798	0.6942148760330579
2933.624267578125	0.1831620586400597	-9.970777601039714	-2.105401954668658	0.003539176164953228	1.108127891596177	-0.3539176164953228	0.1909650924024641	-0.3991853360488798	0.6942148760330579
2937.530517578125	-0.2245534647539	-9.43593895360376	-2.181551174870003	0.003539176164953228	1.108127891596177	-0.3539176164953228	0.1683778234086242	-0.3869653767820774	0.7004132231404959
2941.436767578125	-0.04723900883331062	-9.891940612856104	-1.758699705556313	-0.7212460872649068	1.859165332563176	-0.3391593894513542	0.1683778234086242	-0.3869653767820774	0.7004132231404959
2945.343017578125	-0.204515469137039	-9.539460001687642	-1.849484362098702	-0.7248224493440097	1.122859396550351	0.01847681845894361	0.1683778234086242	-0.3869653767820774	0.7004132231404959
2949.249267578125	0.09373198500679396	-9.543026658181137	-1.791066166893131	-3.718591414975016e-05	0.3718219555833518	0.003718591414975016	0.188911704312115	-0.4012219959266802	0.7024793388429752
2953.155517578125	-0.3307613870529423	-10.09694618181378	-1.97462043156859	3.718591414975016e-05	-0.3718219555833518	-0.003718591414975016	0.188911704312115	-0.4012219959266802	0.7024793388429752
2957.061767578125	0.08502879638749852	-9.77250735583471	-1.834293212916617	-0.003613547993252729	-0.3644839804294728	0.3613547993252729	0.188911704312115	-0.4012219959266802	0.7024793388429752
2960.968017578125	-0.1562441592976883	-10.09051894483959	-1.791861356743722	-0.003539176164953228	-1.108127891596177	0.3539176164953228	0.188911704312115	-0.4012219959266802	0.7024793388429752
2964.874267578125	-0.01989052404456955	-9.959764602774412	-2.003649198514349	-0.358518782322629	-1.86275098817049	-0.3800058257081136	0.1786447638603696	-0.3767820773930753	0.6962809917355373
2968.780517578125	-0.04080940600501089	-9.759861707941621	-1.973019799832971	-0.3621323303158818	-2.227234968599963	-0.01865102638284081	0.1786447638603696	-0.3767820773930753	0.6962809917355373
2972.686767578125	-0.003340585990516087	-9.561080122803601	-1.888647133649464	-0.7245249620308118	-1.851716248116463	-0.01127191286085651	0.1786447638603696	-0.3767820773930753	0.6962809917355373
2976.593017578125	-0.3010194465320916	-10.14732962104538	-1.966018448930279	-0.003427618422503978	-2.223593758346232	0.3427618422503977	0.1827515400410678	-0.3930753564154786	0.6962809917355373
2980.499267578125	0.279740166130275	-9.622884012951211	-1.991338871009166	-0.3657458783091345	-2.591718949029436	0.342703772942432	0.1827515400410678	-0.3930753564154786	0.6962809917355373
2984.405517578125	-0.001178983960297817	-9.95038120481383	-1.960700534656739	-1.083080930267591	-3.342645280703601	-0.3875591471539951	0.1827515400410678	-0.3930753564154786	0.6962809917355373
2988.311767578125	0.2532268278391629	-9.831456658998672	-2.107560927972098	-0.3621695162300315	-1.855413013016611	-0.0149324349678658	0.1827515400410678	-0.3930753564154786	0.6962809917355373
2992.218017578125	0.2742072220062285	-9.651339664884652	-2.14024073354095	-0.3695081699589862	-1.468915107125501	0.7189329379276049	0.1827515400410678	-0.3930753564154786	0.6962809917355373
2996.124267578125	0.09742666049441619	-9.691832046440139	-1.914222016480539	-0.3585559682367788	-1.490929032587138	-0.3762872342931387	0.1827515400410678	-0.3930753564154786	0.6962809917355373
3000.030517578125	0.438559163307811	-9.881532537197142	-2.285305443593701	-1.083266859838339	-1.483535502786842	-0.3689661900791201	0.1827515400410678	-0.3930753564154786	0.6962809917355373
3003.936767578125	-0.1185844937190517	-9.738342319635828	-2.047183542698277	-0.3623554458007803	0.003696764900147988	0.003660522107009284	0.1909650924024641	-0.4032586558044806	0.6921487603305785
3007.843017578125	-0.01330635208167561	-10.00096905383974	-1.889788263944147	-0.3585931541509285	-1.119107077003786	-0.3725686428781636	0.1909650924024641	-0.4032586558044806	0.6921487603305785
3011.749267578125	-0.1819176193829695	-9.315486696933826	-2.269412687234351	0.0001487436565990006	-1.487287822333407	-0.01487436565990006	0.1909650924024641	-0.4032586558044806	0.6921487603305785
3015.655517578125	-0.1223998277658215	-9.719575944310948	-1.920005741139285	-0.362243888058331	-1.111769101849907	-0.007495252137915762	0.1642710472279261	-0.3971486761710794	0.71900826446281
3019.561767578125	-0.01180797781775196	-9.667151246161074	-2.273067406074935	-0.003576362079102979	-0.7363059360128246	0.3576362079102978	0.1642710472279261	-0.3971486761710794	0.71900826446281
3023.468017578125	-0.1049406131189765	-9.857264131575135	-2.168646229367452	-0.369545355873136	-1.097093151542149	0.7226515293425799	0.1642710472279261	-0.3971486761710794	0.71900826446281
3027.374267578125	0.001705780806772018	-9.76944846420581	-2.056859360225734	-0.7209114140375591	-1.48723226768699	-0.3726267121861294	0.1642710472279261	-0.3971486761710794	0.71900826446281
3031.280517578125	0.01516039307877268	-9.621764806237863	-1.838679769292423	-0.3584815964084793	-2.234572943753842	-0.3837244171230887	0.1786447638603696	-0.3971486761710794	0.7128099173553719
3035.186767578125	0.0854601704519018	-9.569034544887216	-2.18200568173006	-0.7209114140375591	-1.48723226768699	-0.3726267121861294	0.1786447638603696	-0.3971486761710794	0.7128099173553719
3039.093017578125	0.1895869297601576	-9.765366892710881	-1.65289765867192	-0.7208370422092596	-2.230876178853694	-0.3800638950160794	0.1786447638603696	-0.3971486761710794	0.7128099173553719
3042.999267578125	0.2805824101902068	-9.342611687371834	-2.019413673006893	-0.7208370422092596	-2.230876178853694	-0.3800638950160794	0.1930184804928131	-0.3767820773930753	0.7024793388429752
3046.905517578125	-0.07429176185943517	-9.740687669667885	-1.856941271352162	-0.7245621479449615	-1.479894292533111	-0.007553321445881495	0.1930184804928131	-0.3767820773930753	0.7024793388429752
3050.811767578125	0.3765422411420452	-9.634918008697406	-1.884741371401503	-0.7210601576941581	5.555464641699391e-05	-0.3577523465262293	0.1930184804928131	-0.3767820773930753	0.7024793388429752
3054.718017578125	0.1169496885353076	-9.592186267373584	-1.89832295117692	-0.003650733907402479	0.007337975153878983	0.3650733907402479	0.1909650924024641	-0.3808553971486761	0.6921487603305785
3058.624267578125	-0.09997862845128827	-9.868993089865917	-2.000712384957058	-0.7211345295224576	0.7436994658131205	-0.3503151636962792	0.1909650924024641	-0.3808553971486761	0.6921487603305785
3062.530517578125	-0.01175829488163239	-9.770468515345062	-1.941390170612254	-1.087103523316491	0.3829122502837958	0.01470015773600287	0.1909650924024641	-0.3808553971486761	0.6921487603305785
3066.436767578125	-0.09862614852358878	-9.718555788022627	-2.045795049213708	-0.3624670035432295	1.119162631650203	0.01481629635193433	0.1909650924024641	-0.3808553971486761	0.6921487603305785
3070.343017578125	0.009071473241007181	-9.700400223652077	-1.969049108033573	-0.007413025557254208	1.130141817057813	0.7413025557254208	0.188911704312115	-0.3890020366598778	0.6921487603305785
3074.249267578125	0.07110889947564787	-9.820341455836207	-2.036963315854929	-0.003762291649851729	1.122803841903934	0.3762291649851729	0.188911704312115	-0.3890020366598778	0.6921487603305785
3078.155517578125	0.05548164452095792	-9.852060934938223	-1.849388150698597	0.003576362079102979	0.7363059360128246	-0.3576362079102978	0.188911704312115	-0.3890020366598778	0.6921487603305785
3082.061767578125	0.257859170168788	-9.623292201645427	-1.928639005626264	0.362243888058331	1.111769101849907	0.007495252137915762	0.2012320328542095	-0.405295315682281	0.7045454545454546
3085.968017578125	-0.1594033631404663	-10.01820708741542	-2.019887895317791	0.3660061797081828	-0.01103474005402697	-0.3687339128472572	0.2012320328542095	-0.405295315682281	0.7045454545454546
3089.874267578125	0.09127780568609374	-9.730486842828164	-2.042593522869792	0.007227095986505457	0.7289679608589457	-0.7227095986505457	0.2012320328542095	-0.405295315682281	0.7045454545454546
3093.780517578125	-0.3435180723651681	-9.727737510064738	-1.882730921161067	0.007301467814804958	-0.01467595030775797	-0.7301467814804957	0.2012320328542095	-0.405295315682281	0.7045454545454546
3097.686767578125	0.04575325245792525	-9.74853978170527	-2.191775081930842	-7.437182829950031e-05	0.7436439111667036	0.007437182829950031	0.1991786447638604	-0.4012219959266802	0.7066115702479339
3101.593017578125	-0.439164033339616	-9.855329704113142	-2.027865555346133	-3.718591414975016e-05	0.3718219555833518	0.003718591414975016	0.1991786447638604	-0.4012219959266802	0.7066115702479339
3105.499267578125	-0.1259044463073355	-9.627375770972705	-2.13651845642215	0.003725105735701979	-0.7509818863205826	-0.3725105735701979	0.1991786447638604	-0.4012219959266802	0.7066115702479339
3109.405517578125	-0.2248350013919109	-9.73936331711672	-1.838833286936306	-0.3622810739724808	-0.7399471462665556	-0.003776660722940747	0.1786447638603696	-0.3930753564154786	0.6900826446280992
3113.311767578125	0.004985643208697502	-9.711721308695855	-1.83285477362325	0.3623182598866305	0.3681251906832038	5.806930796573191e-05	0.1786447638603696	-0.3930753564154786	0.6900826446280992
3117.218017578125	-0.1348473748088587	-9.696933984521531	-2.171754173038043	0.7174094237867555	0.007282420507461989	0.7228257372664771	0.1786447638603696	-0.3930753564154786	0.6900826446280992
3121.124267578125	-0.1295249916997952	-9.738546413982935	-2.015833610006827	0.3623554458007803	-0.003696764900147988	-0.003660522107009284	0.1950718685831622	-0.3991853360488798	0.7004132231404959
3125.030517578125	-0.1342913990951397	-9.64675421904076	-2.190286696828678	-0.003613547993252729	-0.3644839804294728	0.3613547993252729	0.1950718685831622	-0.3991853360488798	0.7004132231404959
3128.936767578125	-0.06363674360687077	-9.760575880432889	-1.878775213104308	0.3587047118933778	0.003641210253730994	0.3614128686332386	0.1950718685831622	-0.3991853360488798	0.7004132231404959
3132.843017578125	0.06351845090182415	-9.739462367541744	-2.117281696727471	0.7211717154366073	-1.115521421396473	0.3465965722813042	0.1950718685831622	-0.3991853360488798	0.7004132231404959
3136.749267578125	0.01093340041844072	-9.889798200531372	-2.031113347281357	0.0001859295707487508	-1.859109777916759	-0.01859295707487508	0.2012320328542095	-0.3869653767820774	0.6962809917355373
3140.655517578125	-0.06895912671593429	-9.718963450971485	-2.034695776135524	-0.007227095986505457	-0.7289679608589457	0.7227095986505457	0.2012320328542095	-0.3869653767820774	0.6962809917355373
3144.561767578125	0.02047804447963433	-9.590045432284919	-2.015934815987811	-0.003539176164953228	-1.108127891596177	0.3539176164953228	0.2012320328542095	-0.3869653767820774	0.6962809917355373
3148.468017578125	0.08251547071427501	-9.709986664469049	-2.083849023809167	0.3587790837216773	-0.7400027009129726	0.3539756858032885	0.1765913757700205	-0.3584521384928717	0.6797520661157025
3152.374267578125	-0.01981402809530608	-9.58973986908415	-2.006199063489797	0.007450211471403958	-1.501963772641165	-0.7450211471403958	0.1765913757700205	-0.3584521384928717	0.6797520661157025
3156.280517578125	-0.04176994276998932	-9.540172281495629	-1.941001907667023	-0.7209114140375591	-1.48723226768699	-0.3726267121861294	0.1765913757700205	-0.3584521384928717	0.6797520661157025
3160.186767578125	0.06525104472174006	-9.702235495539972	-1.841701490724669	0.0001487436565990006	-1.487287822333407	-0.01487436565990006	0.1765913757700205	-0.3584521384928717	0.6797520661157025
3164.093017578125	-0.1791945213127967	-9.517939561891138	-2.026849289573444	0.003725105735701979	-0.7509818863205826	-0.3725105735701979	0.1765913757700205	-0.3584521384928717	0.6797520661157025
3167.999267578125	0.1168589974614385	-9.742215590820802	-1.895299915381285	-0.7209114140375591	-1.48723226768699	-0.3726267121861294	0.1765913757700205	-0.3584521384928717	0.6797520661157025
3171.905517578125	-0.0587843768458591	-9.629006948513496	-2.040520771804697	-0.3550539779859753	-0.01097918540760998	-0.7264862593734864	0.1765913757700205	-0.3584521384928717	0.6797520661157025
3175.811767578125	0.06809006964285855	-9.701317544148811	-1.936335654761952	-0.3550539779859753	-0.01097918540760998	-0.7264862593734864	0.1786447638603696	-0.3869653767820774	0.6921487603305785
3179.718017578125	0.04169738991089404	-9.779851177262143	-2.056579663696468	0.358667525979228	0.3754631658370828	0.3651314600482136	0.1786447638603696	-0.3869653767820774	0.6921487603305785
3183.624267578125	0.1361123181348237	-9.462657017136408	-1.870410604494124	-0.3550167920718256	-0.3828011409909618	-0.7302048507884614	0.1786447638603696	-0.3869653767820774	0.6921487603305785
3187.530517578125	0.01159426233063441	-9.90958452184643	-2.053142077687814	-0.365968993794033	-0.3607872155293249	0.3650153214322821	0.1765913757700205	-0.3869653767820774	0.7086776859504132
3191.436767578125	-0.1615949326559631	-9.608915694892094	-1.946835578134566	3.718591414975016e-05	-0.3718219555833518	-0.003718591414975016	0.1765913757700205	-0.3869653767820774	0.7086776859504132
3195.343017578125	-0.1243832021204362	-9.870217235352275	-1.853893262652128	-0.365968993794033	-0.3607872155293249	0.3650153214322821	0.1765913757700205	-0.3869653767820774	0.7086776859504132
3199.249267578125	0.5174667065181647	-9.676019098225794	-1.915556883938821	-0.3585559682367788	-1.490929032587138	-0.3762872342931387	0.1765913757700205	-0.3869653767820774	0.7086776859504132
3203.155517578125	-0.02997379422274201	-9.689691526798686	-2.0008735259086	-0.7209857858658586	-0.7435883565202867	-0.3651895293561793	0.1806981519507187	-0.3930753564154786	0.7004132231404959
3207.061767578125	0.1362164157152647	-9.742623358918731	-1.873880523842157	0.3550167920718256	0.3828011409909618	0.7302048507884614	0.1806981519507187	-0.3930753564154786	0.7004132231404959
3210.968017578125	0.09960482350334099	-9.671127773733922	-1.986827450111366	-0.3660061797081828	0.01103474005402697	0.3687339128472572	0.1806981519507187	-0.3930753564154786	0.7004132231404959
3214.874267578125	-0.107103792385262	-9.8879635595379	-2.0965402538246	0	0	0	0.1909650924024641	-0.3910386965376782	0.6942148760330579
3218.780517578125	0.07220507854241306	-9.91998702460462	-2.073502618080435	0.36239263171493	-0.3755187204834998	-0.007379113521984299	0.1909650924024641	-0.3910386965376782	0.6942148760330579
3222.686767578125	-0.1817180990204576	-9.518755518683282	-1.942730032651415	-0.3624298176290798	0.7473406760668516	0.01109770493695932	0.1909650924024641	-0.3910386965376782	0.6942148760330579
3226.593017578125	0.1142605010405815	-9.693055771330211	-1.808683368019383	-0.358667525979228	-0.3754631658370828	-0.3651314600482136	0.1909650924024641	-0.3910386965376782	0.6942148760330579
3230.499267578125	0.007343611129293124	-9.810958899068197	-1.911453704309771	0.003650733907402479	-0.007337975153878983	-0.3650733907402479	0.1909650924024641	-0.3910386965376782	0.6942148760330579
3234.405517578125	-0.06054141782481797	-9.509575058430025	-1.981952739172734	-0.3586303400650783	-0.7472851214204346	-0.3688500514631886	0.1909650924024641	-0.3910386965376782	0.6942148760330579
3238.311767578125	-0.03702403944351959	-9.758637772753405	-2.099198685216014	0.007227095986505457	0.7289679608589457	-0.7227095986505457	0.1909650924024641	-0.3910386965376782	0.6942148760330579
3242.218017578125	-0.04153020288776154	-9.700094765600376	-1.948993237074616	-0.003725105735701979	0.7509818863205826	0.3725105735701979	0.1971252566735113	-0.405295315682281	0.6921487603305785
3246.124267578125	-0.1805817004339765	-9.575054749806986	-2.31394331886745	0.007227095986505457	0.7289679608589457	-0.7227095986505457	0.1971252566735113	-0.405295315682281	0.6921487603305785
3250.030517578125	-0.07824273820799171	-9.841965152020585	-1.72524205973361	-0.7210973436083078	0.3718775102297688	-0.3540337551112543	0.1971252566735113	-0.405295315682281	0.6921487603305785
3253.936767578125	-0.2092377139224994	-9.68765352750161	-2.025409535916688	-0.3623182598866305	-0.3681251906832038	-5.806930796573191e-05	0.1827515400410678	-0.3808553971486761	0.7045454545454546
3257.843017578125	0.1443786123634804	-9.573317582002474	-1.812620412116012	-0.3623554458007803	0.003696764900147988	0.003660522107009284	0.1827515400410678	-0.3808553971486761	0.7045454545454546
3261.749267578125	-0.1854293354867863	-9.779955485140727	-1.819022150440456	-0.3661549233647818	1.498322562387434	0.3836082785071572	0.1827515400410678	-0.3808553971486761	0.7045454545454546
3265.655517578125	0.290560005551871	-9.752718931538229	-2.018666851729032	-0.724636519773261	-0.7362503813664076	-0.0001161386159314638	0.1827515400410678	-0.3808553971486761	0.7045454545454546
3269.561767578125	0.1666184295302754	-10.02279337445188	-1.887280984342515	-0.365968993794033	-0.3607872155293249	0.3650153214322821	0.1827515400410678	-0.3727087576374745	0.6942148760330579
3273.468017578125	-0.06091758862686617	-9.679696686989354	-1.969413712437794	-0.3695825417872857	-0.7252711959587976	0.726370120757555	0.1827515400410678	-0.3727087576374745	0.6942148760330579
3277.374267578125	-0.08818169128600734	-9.808512080182476	-2.060610290466423	-1.086917593745742	-1.476197527632963	-0.00389279933887221	0.1827515400410678	-0.3727087576374745	0.6942148760330579
3281.280517578125	0.1863528072041835	-9.643079259003981	-1.878426906806115	-0.3622067021441813	-1.483591057433259	-0.01121384355289078	0.1909650924024641	-0.4114052953156823	0.6942148760330579
3285.186767578125	-0.1190797458441801	-9.618502451156285	-2.030675138527329	0.0001115577424492505	-1.115465866750055	-0.01115577424492505	0.1909650924024641	-0.4114052953156823	0.6942148760330579
3289.093017578125	-0.2281897825070325	-9.747114696343939	-2.060340583098916	-0.7282500677665138	-1.10073436179588	0.3612386607093414	0.1909650924024641	-0.4114052953156823	0.6942148760330579
3292.999267578125	-0.04670274857043268	-9.758433888704442	-2.109908380985578	-0.7281385100240645	-2.216200228545936	0.3500828864644163	0.1909650924024641	-0.4114052953156823	0.6942148760330579
3296.905517578125	-0.1459684663193067	-9.787196470776577	-2.134384456023109	-1.090456769910695	-2.58432541922914	0.3500248171564506	0.1909650924024641	-0.4114052953156823	0.6942148760330579
3300.811767578125	-0.08840644742559586	-9.658584751334276	-2.053118419146804	-0.7317520580173174	-2.580684208975409	0.7114376857896891	0.1909650924024641	-0.4114052953156823	0.6942148760330579
3304.718017578125	0.02271535384108242	-9.819322035591382	-2.090511794702747	-0.3693222403882375	-3.32802488504226	0.7003399808527299	0.1909650924024641	-0.4114052953156823	0.6942148760330579
3308.624267578125	0.07391795691148788	-9.799433193931954	-2.130598563716263	-1.456388577790578	-3.316934590341816	0.7113215471737577	0.1724845995893224	-0.4012219959266802	0.6983471074380165
3312.530517578125	-0.06768314273749826	-9.938550882818458	-2.077228575416725	-0.724339032460063	-3.710826026033222	-0.02986486993573159	0.1724845995893224	-0.4012219959266802	0.6983471074380165
3316.436767578125	0.2077527461651477	-9.742826612073269	-1.925091538838255	-0.365671506480835	-3.335362860196139	0.335266590112482	0.1724845995893224	-0.4012219959266802	0.6983471074380165
3320.343017578125	0.3100980173354017	-9.663068307728221	-2.003267244513387	-0.7316776861890179	-3.324328120142112	0.7040005029597391	0.1806981519507187	-0.3910386965376782	0.7024793388429752
3324.249267578125	-0.036092681545786	-9.748336633699804	-2.1302439484738	0.0002974873131980013	-2.974575644666814	-0.02974873131980012	0.1806981519507187	-0.3910386965376782	0.7024793388429752
3328.155517578125	0.4045066366150622	-9.692542854161131	-2.150221220502071	-1.079430196360188	-3.34998325585748	-0.752632537894243	0.1806981519507187	-0.3910386965376782	0.7024793388429752
3332.061767578125	0.1244652183959352	-9.623089579385315	-1.815507279864505	-1.075816648366935	-2.985499275428007	-1.113987337219516	0.1806981519507187	-0.3910386965376782	0.7024793388429752
3335.968017578125	0.1275140157140029	-9.762103801585805	-1.917133857133431	-0.7245993338591113	-1.108072336949759	-0.003834730030906479	0.1806981519507187	-0.3767820773930753	0.6942148760330579
3339.874267578125	0.2416854029167827	-9.851855053056905	-2.056180097226088	-0.7245621479449615	-1.479894292533111	-0.007553321445881495	0.1806981519507187	-0.3767820773930753	0.6942148760330579
3343.780517578125	-0.1940260606715399	-9.659401759617131	-1.86579797761534	-1.44558511972497	-1.851660693470046	-0.3690242593870858	0.1806981519507187	-0.3767820773930753	0.6942148760330579
3347.686767578125	0.1048467675729728	-9.79943287848474	-2.161558919099093	-0.3621323303158818	-2.227234968599963	-0.01865102638284081	0.1971252566735113	-0.3971486761710794	0.7024793388429752
3351.593017578125	-0.1704179912163724	-9.758435150493293	-1.986066959454255	-1.086843221917442	-2.219841438799667	-0.01132998216882224	0.1971252566735113	-0.3971486761710794	0.7024793388429752
3355.499267578125	-0.009925546571443688	-9.729875926724766	-2.002481780951878	-0.7281756959382143	-1.844378272962584	0.3538014778793914	0.1971252566735113	-0.3971486761710794	0.7024793388429752
3359.405517578125	-0.02974824946511983	-9.62961860066039	-2.008391684496006	-0.7245249620308118	-1.851716248116463	-0.01127191286085651	0.1971252566735113	-0.3971486761710794	0.7024793388429752
3363.311767578125	0.07895486029237225	-9.861137928505466	-1.965162009745742	-0.7282872536806635	-0.7289124062125286	0.3649572521243164	0.1971252566735113	-0.3971486761710794	0.7024793388429752
3367.218017578125	0.1481332228216596	-9.762103591287664	-1.937774094055318	-0.3696569136155852	0.01837271520790595	0.733807303587505	0.1971252566735113	-0.3971486761710794	0.7024793388429752
3371.124267578125	0.1033499705451165	-9.713250176190412	-1.778332351503881	3.718591414975016e-05	-0.3718219555833518	-0.003718591414975016	0.1971252566735113	-0.3971486761710794	0.7024793388429752
3375.030517578125	0.2782378487761831	-9.673369762229035	-1.94126162587277	-0.003725105735701979	0.7509818863205826	0.3725105735701979	0.2053388090349076	-0.3869653767820774	0.6776859504132231
3378.936767578125	0.2387115243119111	-9.762816607139149	-1.957050810397035	-0.0001115577424492505	1.115465866750055	0.01115577424492505	0.2053388090349076	-0.3869653767820774	0.6776859504132231
3382.843017578125	0.1600799974133329	-9.801574134169689	-2.002666580444428	0.003539176164953228	1.108127891596177	-0.3539176164953228	0.2053388090349076	-0.3869653767820774	0.6776859504132231
3386.749267578125	0.1587590622069791	-9.552001236553078	-1.958635406899304	0.358518782322629	1.86275098817049	0.3800058257081136	0.1786447638603696	-0.3869653767820774	0.6880165289256198
3390.655517578125	0.2778466942314957	-9.833496235531817	-1.928223141049856	-0.3552770934708738	2.219952548092501	-0.7041747108836364	0.1786447638603696	-0.3869653767820774	0.6880165289256198
3394.561767578125	0.1088624106002882	-9.811467820572574	-1.962080353342939	0.7316776861890179	3.324328120142112	-0.7040005029597391	0.1786447638603696	-0.3869653767820774	0.6880165289256198
3398.468017578125	0.183048497643215	-9.544147652428695	-1.768283254773833	0.006929608673307456	3.70354360552576	-0.6929608673307456	0.1786447638603696	-0.3869653767820774	0.6880165289256198
3402.374267578125	-0.1217082097503157	-9.549352321152602	-1.943059674989478	0.3728986024673405	4.064330821055084	-1.057976188763028	0.1786447638603696	-0.4134419551934826	0.6942148760330579
3406.280517578125	-0.2002805902963706	-9.838090724195826	-1.990646990120982	-0.3481615552268176	4.064386375701503	-1.415728535289257	0.1786447638603696	-0.4134419551934826	0.6942148760330579
3410.186767578125	0.0210490039359926	-9.549860822060696	-2.03496679786642	0.3692106826457882	4.443490751792315	-0.6891842066078048	0.1786447638603696	-0.4134419551934826	0.6942148760330579
3414.093017578125	-0.2980581858157583	-9.596372146747097	-2.064727139474722	0.01054315666656019	4.068027585955233	-1.054315666656019	0.1848049281314169	-0.3788187372708757	0.6756198347107438
3417.999267578125	-0.2409322726946526	-9.59790143483794	-1.968924243511579	0.003316060680054727	3.339059625096287	-0.3316060680054727	0.1848049281314169	-0.3788187372708757	0.6756198347107438
3421.905517578125	-0.3435480398504465	-9.707747199551644	-1.881732004985117	-0.3589278273782763	2.22729052324638	-0.3391013201433885	0.1848049281314169	-0.3788187372708757	0.6756198347107438
3425.811767578125	-0.2386492234872532	-9.647163248927546	-2.045025883758227	-0.3661921092789315	1.870144517970786	0.3873268699221322	0.1848049281314169	-0.3788187372708757	0.6756198347107438
3429.718017578125	-0.297352372675647	-9.646143933831793	-2.088254244145102	-0.7174094237867555	-0.007282420507461989	-0.7228257372664771	0.1848049281314169	-0.3788187372708757	0.6756198347107438
3433.624267578125	-0.4112990037388382	-9.70632001120889	-1.956699875372063	-0.36239263171493	0.3755187204834998	0.007379113521984299	0.1848049281314169	-0.3788187372708757	0.6756198347107438
3437.530517578125	-0.3746471920071985	-9.734469258748994	-2.178426933093383	-1.079690497759237	-0.7472295667740175	-0.7266023979894179	0.1848049281314169	-0.3788187372708757	0.6756198347107438
3441.436767578125	0.3730675900858096	-9.562708145872255	-2.102253002860317	0.003650733907402479	-0.007337975153878983	-0.3650733907402479	0.1806981519507187	-0.395112016293279	0.6983471074380165
3445.343017578125	-0.08816670754336808	-9.818507235439021	-2.061109748554397	-0.003613547993252729	-0.3644839804294728	0.3613547993252729	0.1806981519507187	-0.395112016293279	0.6983471074380165
3449.249267578125	0.3241630199654428	-9.64185395687784	-2.138767332181425	-0.7172978660443063	-1.122748287257517	-0.7339815115114022	0.1806981519507187	-0.395112016293279	0.6983471074380165
3453.155517578125	-0.1011505148492833	-9.929371999801267	-1.961649505023891	-0.7172606801301565	-1.494570242840869	-0.7377001029263772	0.1950718685831622	-0.4012219959266802	0.7004132231404959
3457.061767578125	0.08832916285829874	-9.58810690400915	-2.277638761943292	0.003725105735701979	-0.7509818863205826	-0.3725105735701979	0.1950718685831622	-0.4012219959266802	0.7004132231404959
3460.968017578125	-0.01230401856091405	-9.75731163266803	-2.256532714636199	-0.365968993794033	-0.3607872155293249	0.3650153214322821	0.1950718685831622	-0.4012219959266802	0.7004132231404959
3464.874267578125	0.0423432680804485	-9.789642343320656	-2.07810893601495	-0.7209485999517089	-1.115410312103638	-0.3689081207711543	0.1950718685831622	-0.4012219959266802	0.7004132231404959
3468.780517578125	-0.01919890602906374	-9.789540979616065	-2.026703132364542	-0.7172234942160068	-1.866392198424221	-0.7414186943413522	0.1971252566735113	-0.3849287169042769	0.6983471074380165
3472.686767578125	-0.1478911170853309	-9.767818127857591	-2.070296097155639	0.0001487436565990006	-1.487287822333407	-0.01487436565990006	0.1971252566735113	-0.3849287169042769	0.6983471074380165
3476.593017578125	0.05059457856646591	-9.890307752930175	-2.019819285548864	-0.717186308301857	-2.238214154007573	-0.7451372857563272	0.1971252566735113	-0.3849287169042769	0.6983471074380165
3480.499267578125	-0.2257852861224519	-9.456337242512927	-2.140490462584937	0.0001859295707487508	-1.859109777916759	-0.01859295707487508	0.1683778234086242	-0.3788187372708757	0.6859504132231405
3484.405517578125	-0.2099600880413174	-10.04788709513336	-2.001330398622757	-0.3621695162300315	-1.855413013016611	-0.0149324349678658	0.1683778234086242	-0.3788187372708757	0.6859504132231405
3488.311767578125	0.07635636387151519	-9.811978109014877	-1.87854546238384	-0.7134983884803049	-2.617374084744803	-1.11392926791155	0.1683778234086242	-0.3788187372708757	0.6859504132231405
3492.218017578125	-0.07466714404344973	-9.700809043240715	-1.84442853188501	0.0001487436565990006	-1.487287822333407	-0.01487436565990006	0.1683778234086242	-0.3991853360488798	0.6942148760330579
3496.124267578125	0.01841975141182342	-9.69071094704351	-1.947325047060781	-0.3621695162300315	-1.855413013016611	-0.0149324349678658	0.1683778234086242	-0.3991853360488798	0.6942148760330579
3500.030517578125	0.07349210317332011	-9.866237553307293	-1.449736772444004	0.0002603013990482511	-2.602753689083463	-0.02603013990482511	0.1683778234086242	-0.3991853360488798	0.6942148760330579
3503.936767578125	0.04328960972082133	-9.789336359523602	-2.109653657360711	0.3625041894573793	-1.490984587233555	-0.01853488776690934	0.1683778234086242	-0.3991853360488798	0.6942148760330579
3507.843017578125	0.04885725303834813	-9.8542028215176	-1.628575101278271	-0.003464804336653728	-1.85177180276288	0.3464804336653728	0.1868583162217659	-0.4012219959266802	0.7024793388429752
3511.749267578125	0.07931683596981486	-9.471020889703093	-1.977227865660495	-0.3622067021441813	-1.483591057433259	-0.01121384355289078	0.1868583162217659	-0.4012219959266802	0.7024793388429752
3515.655517578125	0.1298317641148827	-9.904687729602854	-1.661058803829424	-0.7208742281234094	-1.859054223270342	-0.3763453036011044	0.1868583162217659	-0.4012219959266802	0.7024793388429752
3519.561767578125	0.1591036882876816	-9.78188980745365	-1.970122942922718	0.717483795615055	-0.7363614906592416	0.7153885544365272	0.1704312114989733	-0.3767820773930753	0.7004132231404959
3523.468017578125	0.1690686657608074	-9.552001131404005	-1.968955525360247	0.7173722378726058	0.3791043760908138	0.7265443286814521	0.1704312114989733	-0.3767820773930753	0.7004132231404959
3527.374267578125	0.2279965710887897	-9.70294777534796	-1.93321903629299	0.362243888058331	1.111769101849907	0.007495252137915762	0.1704312114989733	-0.3767820773930753	0.7004132231404959
3531.280517578125	0.3350483146838313	-9.675001044918895	-1.834943822794373	0.3659318078798833	0.7326091711126765	-0.3612967300173071	0.1704312114989733	-0.3767820773930753	0.7004132231404959
3535.186767578125	0.1072694021723272	-10.01198289329761	-1.908980072410908	0.72478526342986	-0.7510374409669995	-0.0147582270439686	0.1765913757700205	-0.3890020366598778	0.6962809917355373
3539.093017578125	0.2648337080583357	-9.714370434394471	-1.827790268611188	-7.437182829950031e-05	0.7436439111667036	0.007437182829950031	0.1765913757700205	-0.3890020366598778	0.6962809917355373
3542.999267578125	0.136486123082771	-9.922536153536569	-1.882870769425699	-0.3587790837216773	0.7400027009129726	-0.3539756858032885	0.1765913757700205	-0.3890020366598778	0.6962809917355373
3546.905517578125	0.2465977046483513	-9.760266742163699	-2.219923488278376	-0.3550911639001251	0.3608427701757418	-0.7227676679585114	0.2032854209445585	-0.3930753564154786	0.6983471074380165
3550.811767578125	0.04315396741903455	-9.90938021720118	-2.105132247301152	0.3658574360515838	1.47625308227938	-0.3538595471873571	0.2032854209445585	-0.3930753564154786	0.6983471074380165
3554.718017578125	-0.04595119558436993	-9.628190886572281	-2.13496014718767	0.003539176164953228	1.108127891596177	-0.3539176164953228	0.2032854209445585	-0.3930753564154786	0.6983471074380165
3558.624267578125	0.332399346708821	-9.732524211230814	-2.079978223627364	0.007152724158205957	1.472611872025649	-0.7152724158205956	0.1991786447638604	-0.3991853360488798	0.6942148760330579
3562.530517578125	-0.2813899550566583	-9.697649418801653	-1.953668164778058	0.007189910072355707	1.100789916442297	-0.7189910072355706	0.1991786447638604	-0.3991853360488798	0.6942148760330579
3566.436767578125	0.2742671569767855	-9.691320285910839	-2.142238565892848	0.7318264298456169	1.837040297808705	-0.7188748686196392	0.1991786447638604	-0.3991853360488798	0.6942148760330579
3570.343017578125	-0.2985084867129691	-9.506517744037193	-2.049717109567698	0.007264281900655208	0.3571460052755938	-0.7264281900655207	0.1991786447638604	-0.3991853360488798	0.6942148760330579
3574.249267578125	-0.005458025410850283	-9.411764761549509	-1.818065819638324	0.362243888058331	1.111769101849907	0.007495252137915762	0.1745379876796715	-0.3991853360488798	0.6776859504132231
3578.155517578125	-0.2792409709149783	-9.446954580595843	-2.025300969500723	0.3658574360515838	1.47625308227938	-0.3538595471873571	0.1745379876796715	-0.3991853360488798	0.6776859504132231
3582.061767578125	-0.07338958282894641	-9.500395965114691	-1.887013905701787	-7.437182829950031e-05	0.7436439111667036	0.007437182829950031	0.1745379876796715	-0.3991853360488798	0.6776859504132231
3585.968017578125	-0.1706119912526488	-9.41849787717169	-1.979600291578374	0.3585931541509285	1.119107077003786	0.3725686428781636	0.188911704312115	-0.4012219959266802	0.7024793388429752
3589.874267578125	0.002667106189784076	-9.779137635665302	-2.088903539659469	-0.0001115577424492505	1.115465866750055	0.01115577424492505	0.188911704312115	-0.4012219959266802	0.7024793388429752
3593.780517578125	0.1917453773182413	-9.661335661333769	-2.058179243941376	-7.437182829950031e-05	0.7436439111667036	0.007437182829950031	0.188911704312115	-0.4012219959266802	0.7024793388429752
3597.686767578125	0.01162501843394652	-9.719574577373024	-2.054167281131551	-0.0001859295707487508	1.859109777916759	0.01859295707487508	0.188911704312115	-0.4012219959266802	0.7024793388429752
3601.593017578125	-0.09610257081592791	-9.717739831230483	-2.129914306135738	-0.3625785612856788	2.234628498400259	0.02597207059685937	0.188911704312115	-0.4012219959266802	0.7024793388429752
3605.499267578125	-0.1821400096684571	-9.868891936459468	-1.928666344384764	-1.087289452887239	2.242022028200555	0.03329311481087795	0.188911704312115	-0.4012219959266802	0.7024793388429752
3609.405517578125	0.09796686384746235	-9.841657380689321	-1.932228794915411	-1.083527161237388	1.11921818629662	-0.342936050174295	0.188911704312115	-0.4012219959266802	0.7024793388429752
3613.311767578125	-0.2357155644020974	-9.779548032490011	-1.809481186596753	-0.3588906414641265	1.855468567663028	-0.3428199115583635	0.1704312114989733	-0.4012219959266802	0.6983471074380165
3617.218017578125	-0.1038838649538935	-9.790255783001758	-1.870537834870218	0.3585931541509285	1.119107077003786	0.3725686428781636	0.1704312114989733	-0.4012219959266802	0.6983471074380165
3621.124267578125	-0.2541865759861077	-9.738853659568843	-1.860447467129743	-0.358667525979228	-0.3754631658370828	-0.3651314600482136	0.1704312114989733	-0.4012219959266802	0.6983471074380165
3625.030517578125	-0.3732158502761346	-9.917339791589283	-1.892804990795513	0.003687919821552229	-0.3791599307372308	-0.3687919821552229	0.1704312114989733	-0.3828920570264766	0.6859504132231405
3628.936767578125	-0.1243524460171241	-9.680207290878871	-1.854918466095865	0	0	0	0.1704312114989733	-0.3828920570264766	0.6859504132231405
3632.843017578125	-0.114454501076858	-9.967006955348184	-2.184849964104736	0.003725105735701979	-0.7509818863205826	-0.3725105735701979	0.1704312114989733	-0.3828920570264766	0.6859504132231405
3636.749267578125	-0.1053562148227069	-9.860731842792674	-1.821459505909772	0.3623554458007803	-0.003696764900147988	-0.003660522107009284	0.1704312114989733	-0.3828920570264766	0.6859504132231405
3640.655517578125	0.00099996766666061	-9.719676677121113	-2.033332255555354	0.3623554458007803	-0.003696764900147988	-0.003660522107009284	0.1991786447638604	-0.3849287169042769	0.6880165289256198
3644.561767578125	-0.126005389415642	-9.840741742577725	-1.799820352811936	0.3550911639001251	-0.3608427701757418	0.7227676679585114	0.1991786447638604	-0.3849287169042769	0.6880165289256198
3648.468017578125	0.004368943906387875	-9.931920708136936	-1.81229813021293	-0.3658574360515838	-1.47625308227938	0.3538595471873571	0.1991786447638604	-0.3849287169042769	0.6880165289256198
3652.374267578125	-0.07029583428296091	-9.669395653084825	-1.990138857234637	0.3587790837216773	-0.7400027009129726	0.3539756858032885	0.1704312114989733	-0.3890020366598778	0.7066115702479339
3656.280517578125	0.2354166781673463	-9.81054860739256	-2.180555938911544	0.0001115577424492505	-1.115465866750055	-0.01115577424492505	0.1704312114989733	-0.3890020366598778	0.7066115702479339
3660.186767578125	-0.3022938532744604	-9.507741679225409	-1.923538224184654	-0.007338653728954708	0.3864979058911098	0.7338653728954707	0.1704312114989733	-0.3890020366598778	0.7066115702479339
3664.093017578125	0.1399520993406365	-9.638082154546527	-2.331736644687882	-0.362243888058331	-1.111769101849907	-0.007495252137915762	0.1704312114989733	-0.3890020366598778	0.7066115702479339
3667.999267578125	-0.1134466472298609	-9.586681082604322	-2.218445092337971	-0.3658946219657335	-1.104431126696028	0.3575781386023321	0.1704312114989733	-0.3890020366598778	0.7066115702479339
3671.905517578125	-0.03789546237069624	-9.808919532833192	-2.070151254310126	0.3625041894573793	-1.490984587233555	-0.01853488776690934	0.1704312114989733	-0.3890020366598778	0.7066115702479339
3675.811767578125	0.1093284838581718	-9.701317123552524	-1.977616128605726	-0.362243888058331	-1.111769101849907	-0.007495252137915762	0.1704312114989733	-0.3890020366598778	0.7066115702479339
3679.718017578125	-0.1221143480376423	-9.699483639198839	-1.929521732078589	-0.003613547993252729	-0.3644839804294728	0.3613547993252729	0.162217659137577	-0.3971486761710794	0.6838842975206612
3683.624267578125	0.1294973900686177	-9.611462510544481	-1.983246335620588	-0.358667525979228	-0.3754631658370828	-0.3651314600482136	0.162217659137577	-0.3971486761710794	0.6838842975206612
3687.530517578125	0.1352251228469742	-9.712943876946143	-1.840837428232473	-0.7172978660443063	-1.122748287257517	-0.7339815115114022	0.162217659137577	-0.3971486761710794	0.6838842975206612
3691.436767578125	3.864228364855189e-05	-9.709987505661619	-2.001288076121619	-0.3660433656223325	0.3828566956373787	0.3724525042622321	0.1930184804928131	-0.3828920570264766	0.6962809917355373
3695.343017578125	-0.1269572513822503	-9.977716177946927	-2.101424953924991	-0.7210229717800084	-0.3717664009369348	-0.3614709379412043	0.1930184804928131	-0.3828920570264766	0.6962809917355373
3699.249267578125	0.04207434933097589	-9.399729293716318	-2.069144977699196	-1.079764869587536	-0.003585655607314001	-0.7191652151594679	0.1930184804928131	-0.3828920570264766	0.6962809917355373
3703.155517578125	0.0872069593964233	-9.75180308312849	-1.906898646547443	-1.438432395566764	-0.3790488214443968	-1.084296675207681	0.1930184804928131	-0.3828920570264766	0.6962809917355373
3707.061767578125	0.1442839781994431	-9.440014847048847	-2.142799273314769	0.003464804336653728	1.85177180276288	-0.3464804336653728	0.188911704312115	-0.3808553971486761	0.7066115702479339
3710.968017578125	0.3097376188940263	-9.633184836557598	-1.99125396313421	-0.3625041894573793	1.490984587233555	0.01853488776690934	0.188911704312115	-0.3808553971486761	0.7066115702479339
3714.874267578125	0.08167401527237685	-9.780258735061929	-2.055800509079228	-0.7175581674433545	1.480005401825945	-0.7079513716065771	0.188911704312115	-0.3808553971486761	0.7066115702479339
3718.780517578125	0.2278767011476759	-9.622986533295586	-1.929223371589194	-0.7211717154366073	1.115521421396473	-0.3465965722813042	0.1806981519507187	-0.3910386965376782	0.6859504132231405
3722.686767578125	-0.05804938483850287	-9.908769301097783	-2.065020505383238	-0.3626529331139783	2.978272409566962	0.03340925342680941	0.1806981519507187	-0.3910386965376782	0.6859504132231405
3726.593017578125	0.350450024880899	-9.703354491955178	-2.015000829363299	-1.08725226697309	1.870200072617203	0.02957452339590293	0.1806981519507187	-0.3910386965376782	0.6859504132231405
3730.499267578125	-0.07649989235363842	-9.741401631861011	-1.783336921545386	-1.083564347151537	1.491040141879972	-0.33921745875932	0.1806981519507187	-0.3910386965376782	0.6859504132231405
3734.405517578125	-0.0314461440915554	-9.760167586589603	-1.951795196948153	0.003501990250803478	1.479949847179528	-0.3501990250803478	0.1806981519507187	-0.3910386965376782	0.6859504132231405
3738.311767578125	0.0416374549403371	-9.739870556235958	-2.05458183134457	-0.0001115577424492505	1.115465866750055	0.01115577424492505	0.1806981519507187	-0.3910386965376782	0.6859504132231405
3742.218017578125	-0.1154702411041914	-9.780668711290353	-1.817658629860286	-0.7211345295224576	0.7436994658131205	-0.3503151636962792	0.1806981519507187	-0.3910386965376782	0.6859504132231405
3746.124267578125	-0.0713328669972028	-9.819730960329094	-1.955571100093241	-0.7211345295224576	0.7436994658131205	-0.3503151636962792	0.1930184804928131	-0.3910386965376782	0.6942148760330579
3750.030517578125	-0.2945141363725621	-9.855226237427129	-2.182862120914597	-0.7174094237867555	-0.007282420507461989	-0.7228257372664771	0.1930184804928131	-0.3910386965376782	0.6942148760330579
3753.936767578125	-0.1364104157515412	-9.917439367759664	-2.119652808281961	-0.36239263171493	0.3755187204834998	0.007379113521984299	0.1930184804928131	-0.3910386965376782	0.6942148760330579
3757.843017578125	-0.2265226439839091	-9.806575654888132	-2.115911867203032	-0.3623182598866305	-0.3681251906832038	-5.806930796573191e-05	0.1806981519507187	-0.3971486761710794	0.6880165289256198
3761.749267578125	0.007009237083028066	-9.517733680009822	-2.233641236100936	-0.7246737056874109	-0.3644284257830558	0.003602452799043552	0.1806981519507187	-0.3971486761710794	0.6880165289256198
3765.655517578125	0.105942946639738	-9.899078447253151	-2.198098221324599	-0.3622810739724808	-0.7399471462665556	-0.003776660722940747	0.1806981519507187	-0.3971486761710794	0.6880165289256198
3769.561767578125	-0.09222730179860117	-9.776486827581547	-2.259089940046628	-0.3623554458007803	0.003696764900147988	0.003660522107009284	0.1806981519507187	-0.3971486761710794	0.6880165289256198
3773.468017578125	-0.2408423702388172	-9.657872366377219	-1.971920992039427	-0.3659318078798833	-0.7326091711126765	0.3612967300173071	0.1806981519507187	-0.3808553971486761	0.7004132231404959
3777.374267578125	-0.0292837534433035	-9.939468413613335	-2.023874885223217	-0.7245993338591113	-1.108072336949759	-0.003834730030906479	0.1806981519507187	-0.3808553971486761	0.7004132231404959
3781.280517578125	0.03254547763045516	-9.499476962232819	-2.084849254348506	-1.079616125930937	-1.490873477940721	-0.7340395808193679	0.1806981519507187	-0.3808553971486761	0.7004132231404959
3785.186767578125	-0.1329491712018776	-9.559653565355275	-1.901694293270749	-0.3622810739724808	-0.7399471462665556	-0.003776660722940747	0.1786447638603696	-0.3930753564154786	0.6983471074380165
3789.093017578125	-0.1183281928581174	-9.488259449024126	-2.055726904729421	-0.7209114140375591	-1.48723226768699	-0.3726267121861294	0.1786447638603696	-0.3930753564154786	0.6983471074380165
3792.999267578125	0.07034393998301317	-9.520588792738828	-2.011464666100439	-0.003539176164953228	-1.108127891596177	0.3539176164953228	0.1786447638603696	-0.3930753564154786	0.6983471074380165
