Time Stamp	Accelerometer X	Accelerometer Y	Accelerometer Z	Gyroscope X	Gyroscope Y	Gyroscope Z	Magnetometer X	Magnetometer Y	Magnetometer Z
221.710205078125	-1.01721789752855	-9.868900453534232	1.907263250951665	-39.73020777390225	-11.00484365887004	-12.4864689865869	0.1786447638603696	-0.415478615071283	0.7128099173553719
225.616455078125	0.1451301653495431	-9.443074579870315	-1.837672178318104	-18.80135827489125	-9.555856797052121	-3.922143525367594	0.1765913757700205	-0.4215885947046843	0.6756198347107438
229.522705078125	-0.01946861339656999	-9.609628184998225	-2.017712886781001	-14.79704595788906	-11.12049890905655	-5.802650587905836	0.1765913757700205	-0.4215885947046843	0.6756198347107438
233.428955078125	0.1600058673181703	-9.541598102900458	-2.000195577272343	-33.29613389563471	-3.830656867295924	-3.719943769862597	0.1765913757700205	-0.4215885947046843	0.6756198347107438
237.335205078125	0.16867751121612	-9.712127604706787	-1.955917040537333	-54.32470597348421	6.444962223124794	-2.31201134723099	0.1765913757700205	-0.4215885947046843	0.6756198347107438
241.241455078125	0.06712874425984648	-9.691628372689317	-1.904291475328216	-68.11324748764802	14.4303902323502	-0.2694541337489226	0.1765913757700205	-0.4093686354378818	0.6942148760330579
245.147705078125	0.06146252368811418	-9.210127117340845	-2.048750789603806	6.895965973336081	-2.695006147647911	-1.190800232158745	0.1765913757700205	-0.4093686354378818	0.6942148760330579
249.053955078125	-0.1188352742537505	-9.851756738675379	-1.705490858208318	7.986868974216573	-4.572544195418993	-1.585448146294896	0.1765913757700205	-0.4093686354378818	0.6942148760330579
252.960205078125	0.1381540502239281	-9.771996857094264	-1.938468340797603	6.53379645710605	-4.550419160664523	-1.205732667126611	0.1765913757700205	-0.4195519348268839	0.6942148760330579
256.866455078125	0.01016765230777237	-9.800045792420487	-2.00558841025908	5.442893456225557	-2.67288111289344	-0.8110847529904601	0.1765913757700205	-0.4195519348268839	0.6942148760330579
260.772705078125	-0.1614900464574884	-9.67888178168792	-1.950331784750388	3.272299957585829	-1.542572631896376	-1.143039236843727	0.1765913757700205	-0.4195519348268839	0.6942148760330579
264.678955078125	-0.2015273954075618	-9.848493857848444	-1.949086819747942	1.098055725038698	-0.4049261757454327	-1.109920329956746	0.1848049281314169	-0.415478615071283	0.6694214876033058
268.585205078125	-0.08764069931492754	-9.74833715944516	-2.078643356169083	-0.7138330617076526	0.7290235155053626	-1.080461945176775	0.1848049281314169	-0.415478615071283	0.6694214876033058
272.491455078125	-0.1662722262135058	-9.787094686475699	-2.124259126216476	-1.445956978866467	1.866558862363472	-0.3318383452373356	0.1848049281314169	-0.415478615071283	0.6694214876033058
276.397705078125	-0.3856326412158598	-9.704687887326459	-2.145578626138009	-2.525610290711554	0.7475073400061025	-1.062159334641729	0.1848049281314169	-0.415478615071283	0.6694214876033058
280.303955078125	-0.09095052920213151	-9.786074004442023	-2.301649026595617	-2.163254844910774	0.7438105751059546	-1.065819856748738	0.1827515400410678	-0.4236252545824847	0.6921487603305785
284.210205078125	-0.3002221537000775	-9.83707182969636	-1.992594876664082	-1.083489975323238	0.7473962307132686	-0.34665464158927	0.1827515400410678	-0.4236252545824847	0.6921487603305785
288.116455078125	-0.1543498987808754	-9.669906467272485	-1.85500337397082	-1.800713469539245	-1.118995967710952	-1.088073335930622	0.1827515400410678	-0.4236252545824847	0.6921487603305785
292.022705078125	-0.2111453809458843	-9.67827033983917	-1.961820635137192	-0.358667525979228	-0.3754631658370828	-0.3651314600482136	0.1786447638603696	-0.4297352342158859	0.6673553719008265
295.928955078125	0.06254214177617284	-9.719778040825704	-2.084738059205762	0.0001115577424492505	-1.115465866750055	-0.01115577424492505	0.1786447638603696	-0.4297352342158859	0.6673553719008265
299.835205078125	-0.06504836988709356	-9.661032306263495	-1.831721003763548	-0.3549052343293763	-1.498267007741017	-0.7413606250333865	0.1786447638603696	-0.4297352342158859	0.6673553719008265
303.741455078125	0.1780052853180615	-9.829111624413827	-2.266842843935382	0.728510369165562	-1.502019327287582	-0.3872688006141665	0.1786447638603696	-0.4297352342158859	0.6673553719008265
307.647705078125	-0.1827101805067818	-9.699076291697194	-1.909660649773943	0.003725105735701979	-0.7509818863205826	-0.3725105735701979	0.1765913757700205	-0.405295315682281	0.6859504132231405
311.553955078125	0.07680745338675958	-9.69183225673828	-1.893581779558652	0	0	0	0.1765913757700205	-0.405295315682281	0.6859504132231405
315.460205078125	0.01506970200490362	-9.771794129685082	-1.835656733496787	3.718591414975016e-05	-0.3718219555833518	-0.003718591414975016	0.1765913757700205	-0.405295315682281	0.6859504132231405
319.366455078125	0.19769865485422	-9.702744101597135	-1.923288495140667	0.3623554458007803	-0.003696764900147988	-0.003660522107009284	0.1909650924024641	-0.4114052953156823	0.6880165289256198
323.272705078125	-0.0150026694720439	-9.711517529795961	-1.83324435093187	-3.718591414975016e-05	0.3718219555833518	0.003718591414975016	0.1909650924024641	-0.4114052953156823	0.6880165289256198
327.178955078125	0.08265111301606179	-9.589942806791473	-2.088370433868726	-0.3586303400650783	-0.7472851214204346	-0.3688500514631886	0.1909650924024641	-0.4114052953156823	0.6880165289256198
331.085205078125	0.03525359195798874	-9.691934671933584	-1.841786398599625	-0.7210229717800084	-0.3717664009369348	-0.3614709379412043	0.188911704312115	-0.4215885947046843	0.6838842975206612
334.991455078125	0.001636382419811339	-9.582804236350928	-1.721212747327045	-3.718591414975016e-05	0.3718219555833518	0.003718591414975016	0.188911704312115	-0.4215885947046843	0.6838842975206612
338.897705078125	0.1064137516058235	-9.86225955364745	-1.880458386860782	-3.718591414975016e-05	0.3718219555833518	0.003718591414975016	0.188911704312115	-0.4215885947046843	0.6838842975206612
342.803955078125	0.01853883273490368	-9.980672444082382	-1.951294424496789	0.007301467814804958	-0.01467595030775797	-0.7301467814804957	0.188911704312115	-0.4215885947046843	0.6838842975206612
346.710205078125	-0.05931038507429966	-9.699177024507359	-2.022987164190012	-0.7137215039652034	-0.3864423512446928	-1.0916177194217	0.1827515400410678	-0.415478615071283	0.6735537190082644
350.616455078125	0.09237477337089259	-9.620132156610078	-2.079159112363086	-0.3550167920718256	-0.3828011409909618	-0.7302048507884614	0.1827515400410678	-0.415478615071283	0.6735537190082644
354.522705078125	0.08630635760200182	-9.572094277708686	-1.876878586733394	0	0	0	0.1827515400410678	-0.415478615071283	0.6735537190082644
358.428955078125	0.08212904787778945	-9.943444941186181	-1.737634929259648	-0.3623554458007803	0.003696764900147988	0.003660522107009284	0.1765913757700205	-0.4114052953156823	0.6756198347107438
362.335205078125	-0.09798027035403431	-9.728346954081138	-2.06732432153219	-0.3587047118933778	-0.003641210253730994	-0.3614128686332386	0.1765913757700205	-0.4114052953156823	0.6756198347107438
366.241455078125	-0.09017847214719399	-9.52915770599426	-1.994050928426867	-7.437182829950031e-05	0.7436439111667036	0.007437182829950031	0.1765913757700205	-0.4114052953156823	0.6756198347107438
370.147705078125	0.276375132980716	-9.693972040336236	-1.879171099357197	-0.358667525979228	-0.3754631658370828	-0.3651314600482136	0.1765913757700205	-0.4114052953156823	0.6756198347107438
374.053955078125	0.005405976620629763	-9.781585400892663	-1.846865887354326	0.358667525979228	0.3754631658370828	0.3651314600482136	0.1765913757700205	-0.4114052953156823	0.6756198347107438
377.960205078125	0.04335585363564742	-9.48264827399114	-1.778528454521581	-3.718591414975016e-05	0.3718219555833518	0.003718591414975016	0.1765913757700205	-0.4114052953156823	0.6756198347107438
381.866455078125	0.03950503177736366	-9.58056003972532	-1.983501059245455	-0.36239263171493	0.3755187204834998	0.007379113521984299	0.1765913757700205	-0.4114052953156823	0.6756198347107438
385.772705078125	-0.1908274259270797	-9.898367534383089	-1.972419135764012	0	0	0	0.1806981519507187	-0.4378818737270875	0.6632231404958678
389.678955078125	-0.1007585716865622	-9.559245271511989	-1.974714277114594	-0.3623182598866305	-0.3681251906832038	-5.806930796573191e-05	0.1806981519507187	-0.4378818737270875	0.6632231404958678
393.585205078125	0.05808171817788225	-9.481220244455818	-1.936057272596075	-0.7172978660443063	-1.122748287257517	-0.7339815115114022	0.1806981519507187	-0.4378818737270875	0.6632231404958678
397.491455078125	0.247954127666219	-9.893161498721255	-1.931804255540633	0.003687919821552229	-0.3791599307372308	-0.3687919821552229	0.1806981519507187	-0.4256619144602851	0.6776859504132231
401.397705078125	0.2879110375768607	-9.81024209785015	-2.263701252562023	-0.7209857858658586	-0.7435883565202867	-0.3651895293561793	0.1806981519507187	-0.4256619144602851	0.6776859504132231
405.303955078125	-0.2863771755014231	-9.739261953412129	-1.787427483285898	-0.7100335841436511	-0.7656022819819236	-1.460409701576923	0.1806981519507187	-0.4256619144602851	0.6776859504132231
409.210205078125	-0.001477870195048909	-9.540477844696399	-1.950737660165037	-1.072277472201982	-1.877371383831831	-1.467904953714839	0.1806981519507187	-0.4256619144602851	0.6776859504132231
413.116455078125	-0.05180983895631137	-9.720085181262542	-1.939672034789621	-0.7136471321369039	-1.130086262411396	-1.09905490225165	0.1786447638603696	-0.4175152749490835	0.6921487603305785
417.022705078125	-0.02298427259055504	-9.79076491480428	-1.900524246981499	0.003650733907402479	-0.007337975153878983	-0.3650733907402479	0.1786447638603696	-0.4175152749490835	0.6921487603305785
420.928955078125	-0.1326739435081358	-9.602897908400966	-1.577535216395474	-0.717335051958456	-0.7509263316741656	-0.7302629200964272	0.1786447638603696	-0.4175152749490835	0.6921487603305785
424.835205078125	0.1192627052279855	-9.661438391976285	-1.975423507599518	-3.718591414975016e-05	0.3718219555833518	0.003718591414975016	0.1806981519507187	-0.4256619144602851	0.6735537190082644
428.741455078125	-0.3589402866311105	-9.826057359344061	-2.035323778962983	0.728361625508963	-0.01473150495417496	-0.3723944349542664	0.1806981519507187	-0.4256619144602851	0.6735537190082644
432.647705078125	-0.007547074581973302	-9.702440220781506	-1.748430847267557	0	0	0	0.1806981519507187	-0.4256619144602851	0.6735537190082644
436.553955078125	-0.005578683969997826	-9.541803774483633	-1.814043867666739	-0.3550539779859753	-0.01097918540760998	-0.7264862593734864	0.1806981519507187	-0.4256619144602851	0.6735537190082644
440.460205078125	0.1685718363996117	-9.852161772897457	-1.952394546653723	0.3623182598866305	0.3681251906832038	5.806930796573191e-05	0.1806981519507187	-0.4256619144602851	0.6735537190082644
444.366455078125	0.0555423681095485	-9.682041300977913	-1.851412270318284	-0.003687919821552229	0.3791599307372308	0.3687919821552229	0.1806981519507187	-0.4256619144602851	0.6735537190082644
448.272705078125	0.07924034002055139	-9.841045623393356	-1.974678000685046	0.003650733907402479	-0.007337975153878983	-0.3650733907402479	0.1806981519507187	-0.4256619144602851	0.6735537190082644
452.178955078125	-0.05956589731720032	-9.739259640132563	-2.014470089426656	-0.7210601576941581	5.555464641699391e-05	-0.3577523465262293	0.1848049281314169	-0.4215885947046843	0.6735537190082644
456.085205078125	0.06090418212029421	-9.890307647781105	-2.030139404009807	-0.3550539779859753	-0.01097918540760998	-0.7264862593734864	0.1848049281314169	-0.4215885947046843	0.6735537190082644
459.991455078125	-0.03748853546533593	-9.448787959800459	-2.083715484488803	-0.3587790837216773	0.7400027009129726	-0.3539756858032885	0.1848049281314169	-0.4215885947046843	0.6735537190082644
463.897705078125	-0.1180285180053326	-9.688162554155058	-2.065716066488912	-0.3550911639001251	0.3608427701757418	-0.7227676679585114	0.1827515400410678	-0.4236252545824847	0.6859504132231405
467.803955078125	-0.05896497037556358	-9.719065340421432	-2.034500987481215	0.3623182598866305	0.3681251906832038	5.806930796573191e-05	0.1827515400410678	-0.4236252545824847	0.6859504132231405
471.710205078125	-0.1607101032222145	-9.98862960004185	-1.976329892592853	-0.7136471321369039	-1.130086262411396	-1.09905490225165	0.1827515400410678	-0.4236252545824847	0.6859504132231405
475.616455078125	0.1369072451127369	-9.78239999074688	-1.896908170424563	0.3660061797081828	-0.01103474005402697	-0.3687339128472572	0.1827515400410678	-0.4236252545824847	0.6859504132231405
479.522705078125	-0.1156350622732231	-9.670722003468342	-1.812164590892566	-0.3587047118933778	-0.003641210253730994	-0.3614128686332386	0.1806981519507187	-0.415478615071283	0.6818181818181819
483.428955078125	0.06700808570069895	-9.82166738562344	-1.900269523356632	-0.7209857858658586	-0.7435883565202867	-0.3651895293561793	0.1806981519507187	-0.415478615071283	0.6818181818181819
487.335205078125	0.09500402589506175	-9.479282031627264	-2.166800863168725	-0.7135355743944546	-2.245552129161452	-1.110210676496575	0.1806981519507187	-0.415478615071283	0.6818181818181819
491.241455078125	-0.09626818060299314	-9.817793378394967	-2.124393979900229	0.3698056572721842	-1.505660537541313	-0.7486816692474051	0.1704312114989733	-0.4276985743380855	0.6694214876033058
495.147705078125	0.2426766957850732	-9.881534535029493	-2.089223192835773	-0.3585931541509285	-1.119107077003786	-0.3725686428781636	0.1704312114989733	-0.4276985743380855	0.6694214876033058
499.053955078125	0.05184217229569075	-9.66990436429106	-2.061405743189692	-0.717335051958456	-0.7509263316741656	-0.7302629200964272	0.1704312114989733	-0.4276985743380855	0.6694214876033058
502.960205078125	-0.1738129918512099	-9.809532867365224	-1.872900271626338	-1.075928206109385	-1.870033408677952	-1.102831562974591	0.1704312114989733	-0.4276985743380855	0.6694214876033058
506.866455078125	-0.09781544918500271	-9.838293661903151	-2.07281836049991	3.718591414975016e-05	-0.3718219555833518	-0.003718591414975016	0.1704312114989733	-0.4276985743380855	0.6694214876033058
510.772705078125	0.03257465649769999	-9.72946752773241	-2.085821883256667	7.437182829950031e-05	-0.7436439111667036	-0.007437182829950031	0.1704312114989733	-0.4276985743380855	0.6694214876033058
514.678955078125	0.1754123092234399	-9.643283353351087	-1.847076974114664	-0.358518782322629	-1.86275098817049	-0.3800058257081136	0.1704312114989733	-0.4276985743380855	0.6694214876033058
518.585205078125	0.04831152935906646	-9.841045938840569	-1.943717645302215	0.0001115577424492505	-1.115465866750055	-0.01115577424492505	0.2053388090349076	-0.4073319755600814	0.6756198347107438
522.491455078125	0.2998783162374088	-9.72303934441657	-1.995943874580291	-0.003613547993252729	-0.3644839804294728	0.3613547993252729	0.2053388090349076	-0.4073319755600814	0.6756198347107438
526.397705078125	0.03448784384732039	-9.602182263822701	-1.816261461577346	-0.3623182598866305	-0.3681251906832038	-5.806930796573191e-05	0.2053388090349076	-0.4073319755600814	0.6756198347107438
530.303955078125	0.14003727008827	-9.624721282671459	-1.667909002942334	0	0	0	0.1991786447638604	-0.4236252545824847	0.6694214876033058
534.210205078125	0.1600807860313665	-9.591573879183192	-2.002692867712216	-0.358518782322629	-1.86275098817049	-0.3800058257081136	0.1991786447638604	-0.4236252545824847	0.6694214876033058
538.116455078125	0.1595847452882044	-9.681734265690148	-1.98615817627348	-0.7173722378726058	-0.3791043760908138	-0.7265443286814521	0.1991786447638604	-0.4236252545824847	0.6694214876033058
542.022705078125	0.2374797029433591	-9.783214896048312	-1.91599009811197	0.003613547993252729	0.3644839804294728	-0.3613547993252729	0.1991786447638604	-0.4236252545824847	0.6694214876033058
545.928955078125	0.300914560333617	-9.782704292158796	-2.030485344453899	0.003687919821552229	-0.3791599307372308	-0.3687919821552229	0.1786447638603696	-0.4195519348268839	0.6900826446280992
549.835205078125	0.1334373257647032	-9.783521931336079	-1.781244192156773	-0.3550539779859753	-0.01097918540760998	-0.7264862593734864	0.1786447638603696	-0.4195519348268839	0.6900826446280992
553.741455078125	0.07091884252953966	-9.763736240915449	-1.697294750984655	0.01087782989390794	0.7216299857050666	-1.087782989390794	0.1786447638603696	-0.4195519348268839	0.6900826446280992
557.647705078125	0.3735525901765007	-9.745884662509599	-1.785086339216687	0.007227095986505457	0.7289679608589457	-0.7227095986505457	0.1745379876796715	-0.4276985743380855	0.6694214876033058
561.553955078125	0.1195923475660487	-9.881331807620311	-1.986411585534958	0.3658574360515838	1.47625308227938	-0.3538595471873571	0.1745379876796715	-0.4276985743380855	0.6694214876033058
565.460205078125	-0.00530897660249157	-9.721716569101472	-1.823034113250281	0.365820250137434	1.848075037862732	-0.3501409557723821	0.1745379876796715	-0.4276985743380855	0.6694214876033058
569.366455078125	-0.06177402781140359	-9.739973602325689	-1.940865739619881	0.007115538244056207	1.844433827609001	-0.7115538244056206	0.1745379876796715	-0.4276985743380855	0.6694214876033058
573.272705078125	-0.1419528232919914	-9.79923141286441	-1.934905890266955	0.365820250137434	1.848075037862732	-0.3501409557723821	0.1745379876796715	-0.4276985743380855	0.6694214876033058
577.178955078125	-0.1148590621281173	-9.697137763421425	-2.171364595729423	0.007301467814804958	-0.01467595030775797	-0.7301467814804957	0.1745379876796715	-0.4276985743380855	0.6694214876033058
581.085205078125	-0.09026916322106307	-9.679187029441477	-1.991027892631232	-0.7137586898793531	-0.01462039566134097	-1.087899128006725	0.1745379876796715	-0.4276985743380855	0.6694214876033058
584.991455078125	-0.04153020288776154	-9.700094765600376	-1.948993237074616	0.3660061797081828	-0.01103474005402697	-0.3687339128472572	0.1765913757700205	-0.3869653767820774	0.6818181818181819
588.897705078125	-0.1222042504934777	-9.639512707659557	-1.926524983550742	0.003650733907402479	-0.007337975153878983	-0.3650733907402479	0.1765913757700205	-0.3869653767820774	0.6818181818181819
592.803955078125	-0.1236466328770127	-9.729979077963568	-1.878445570766245	-7.437182829950031e-05	0.7436439111667036	0.007437182829950031	0.1765913757700205	-0.3869653767820774	0.6818181818181819
596.710205078125	0.03348235585442426	-9.352507371607071	-1.782745195147476	-0.003687919821552229	0.3791599307372308	0.3687919821552229	0.1930184804928131	-0.4236252545824847	0.6714876033057852
600.616455078125	-0.2701639773477356	-9.677353019342435	-1.994534088408813	0.3585931541509285	1.119107077003786	0.3725686428781636	0.1930184804928131	-0.4236252545824847	0.6714876033057852
604.522705078125	-0.0435735122129332	-9.810755435615516	-1.880882926235561	3.718591414975016e-05	-0.3718219555833518	-0.003718591414975016	0.1930184804928131	-0.4236252545824847	0.6714876033057852
608.428955078125	0.0428235364629377	-9.89948705654365	-2.094117882097924	0.00383666347815123	-1.866447753070638	-0.3836663478151229	0.1930184804928131	-0.4236252545824847	0.6714876033057852
612.335205078125	-0.1835066847207622	-9.799333828059714	-1.883110509307927	0.3625041894573793	-1.490984587233555	-0.01853488776690934	0.188911704312115	-0.4012219959266802	0.6652892561983471
616.241455078125	-0.1649497137710847	-9.616667074119317	-2.168342874297177	0.01110094537880644	-1.509301747795044	-1.110094537880644	0.188911704312115	-0.4012219959266802	0.6652892561983471
620.147705078125	0.05838060441263335	-9.891123604573249	-1.946020147087778	-0.358518782322629	-1.86275098817049	-0.3800058257081136	0.188911704312115	-0.4012219959266802	0.6652892561983471
624.053955078125	0.003674171418747495	-9.608812017907939	-2.122472380624917	-0.3731589038663887	-1.461577131971622	1.084006328667853	0.1848049281314169	-0.4236252545824847	0.6756198347107438
627.960205078125	0.1072843859149665	-10.02197804855416	-1.909479530498882	-0.3585559682367788	-1.490929032587138	-0.3762872342931387	0.1848049281314169	-0.4236252545824847	0.6756198347107438
631.866455078125	0.05110560305226723	-9.810142521679767	-2.036853435075574	-1.075853834281085	-2.613677319844656	-1.110268745804541	0.1848049281314169	-0.4236252545824847	0.6756198347107438
635.772705078125	-0.1097022888061191	-9.838803740047311	-2.009923706462698	-0.3547936765869271	-2.613732874491073	-0.7525163992783116	0.1848049281314169	-0.4236252545824847	0.6756198347107438
639.678955078125	0.08383798315669604	-9.539559052112667	-2.127932771889868	-0.7209114140375591	-1.48723226768699	-0.3726267121861294	0.1848049281314169	-0.4236252545824847	0.6756198347107438
643.585205078125	0.09921366895865355	-9.831254247036703	-1.973788965288451	0.0001487436565990006	-1.487287822333407	-0.01487436565990006	0.1848049281314169	-0.4236252545824847	0.6756198347107438
647.491455078125	0.1780857243574932	-9.742418949124412	-1.936190811916439	3.718591414975016e-05	-0.3718219555833518	-0.003718591414975016	0.1848049281314169	-0.4236252545824847	0.6756198347107438
651.397705078125	0.1861674819662771	-9.659805847497571	-2.205582732209237	-0.3622810739724808	-0.7399471462665556	-0.003776660722940747	0.1950718685831622	-0.4195519348268839	0.6859504132231405
655.303955078125	-0.123451055604669	-9.649915841312177	-1.884964813177702	0.003762291649851729	-1.122803841903934	-0.3762291649851729	0.1950718685831622	-0.4195519348268839	0.6859504132231405
659.210205078125	0.02945015184840237	-9.750477784235683	-1.981671728280079	-0.3511057567653748	-2.992892805228303	-1.121308381433535	0.1950718685831622	-0.4195519348268839	0.6859504132231405
663.116455078125	-0.07507249371274274	-9.640940106300453	-1.830916876241909	0.362541375371529	-1.862806542816907	-0.02225347918188436	0.2012320328542095	-0.4114052953156823	0.6776859504132231
667.022705078125	0.05071523712561345	-9.760268739996052	-2.023841237520448	-0.3660061797081828	0.01103474005402697	0.3687339128472572	0.2012320328542095	-0.4114052953156823	0.6776859504132231
670.928955078125	-0.01329610004723823	-9.937632405681942	-2.223463331758726	-0.3584815964084793	-2.234572943753842	-0.3837244171230887	0.2012320328542095	-0.4114052953156823	0.6776859504132231
674.835205078125	0.02336123201063687	-9.829113201649895	-2.112041067021229	0.007450211471403958	-1.501963772641165	-0.7450211471403958	0.2012320328542095	-0.4114052953156823	0.6776859504132231
678.741455078125	-0.037880478628057	-9.818914688089738	-2.070650712398101	0.3842970351593449	-0.4195465714067736	-2.197819457963472	0.1806981519507187	-0.4276985743380855	0.6900826446280992
682.647705078125	0.1192477214853463	-9.651443236719738	-1.974924049511543	0.003687919821552229	-0.3791599307372308	-0.3687919821552229	0.1806981519507187	-0.4276985743380855	0.6900826446280992
686.553955078125	0.2987663648099707	-9.823398875378109	-1.958878826999022	0.3660805515364823	-0.7546786512207306	-0.3761710956772072	0.1806981519507187	-0.4276985743380855	0.6900826446280992
690.460205078125	0.3287488338310828	-9.823704543727949	-1.958294461036092	3.718591414975016e-05	-0.3718219555833518	-0.003718591414975016	0.1909650924024641	-0.4073319755600814	0.6859504132231405
694.366455078125	0.1515731746844148	-9.740991340185372	-2.052439156147159	-0.7172978660443063	-1.122748287257517	-0.7339815115114022	0.1909650924024641	-0.4073319755600814	0.6859504132231405
698.272705078125	0.06326293865892349	-9.779544983166948	-2.108764621964116	-1.445882607038168	1.122914951196768	-0.3392755280672857	0.1909650924024641	-0.4073319755600814	0.6859504132231405
702.178955078125	0.00950679039557868	-9.780259471105429	-1.983559679852623	-0.3586303400650783	-0.7472851214204346	-0.3688500514631886	0.1909650924024641	-0.4073319755600814	0.6859504132231405
706.085205078125	-0.2117620802481939	-9.89846973928025	-1.941263991726871	0.007338653728954708	-0.3864979058911098	-0.7338653728954707	0.1909650924024641	-0.4073319755600814	0.6859504132231405
709.991455078125	0.4002764894825957	-9.467243935067296	-1.675882982753186	-0.7246737056874109	-0.3644284257830558	0.003602452799043552	0.1909650924024641	-0.4073319755600814	0.6859504132231405
713.897705078125	-0.09187794400969687	-10.07970720189647	-1.937401866343438	-1.083378417580789	-0.3680696360367868	-0.357810415834195	0.1909650924024641	-0.4073319755600814	0.6859504132231405
717.803955078125	0.0131722870159561	-9.699074293864843	-2.10574290053187	-0.3660061797081828	0.01103474005402697	0.3687339128472572	0.1950718685831622	-0.415478615071283	0.6818181818181819
721.710205078125	0.02098828034740201	-9.719880456021006	-2.032942678246734	-0.7172978660443063	-1.122748287257517	-0.7339815115114022	0.1950718685831622	-0.415478615071283	0.6818181818181819
725.616455078125	-0.07841229108522521	-9.658686640784223	-2.052923630492494	0.0001115577424492505	-1.115465866750055	-0.01115577424492505	0.1950718685831622	-0.415478615071283	0.6818181818181819
729.522705078125	0.08138932416223135	-9.590350785187544	-2.046310805407711	-0.3660805515364823	0.7546786512207306	0.3761710956772072	0.1806981519507187	-0.4236252545824847	0.6756198347107438
733.428955078125	0.1165743063512931	-9.552307640946415	-1.885810211709769	-0.3622067021441813	-1.483591057433259	-0.01121384355289078	0.1806981519507187	-0.4236252545824847	0.6756198347107438
737.335205078125	-0.08931808987248836	-9.752212849058772	-1.689397004250388	-0.7209485999517089	-1.115410312103638	-0.3689081207711543	0.1806981519507187	-0.4236252545824847	0.6756198347107438
741.241455078125	0.1138401676286492	-9.623191679133404	-1.794672254288308	0.0001115577424492505	-1.115465866750055	-0.01115577424492505	0.1806981519507187	-0.4236252545824847	0.6756198347107438
745.147705078125	0.03603511242932996	-9.581681980314517	-1.867837080977665	-0.7209857858658586	-0.7435883565202867	-0.3651895293561793	0.188911704312115	-0.4073319755600814	0.6611570247933884
749.053955078125	0.2721544492646532	-9.615336728071096	-1.738481642155104	-0.3623182598866305	-0.3681251906832038	-5.806930796573191e-05	0.188911704312115	-0.4073319755600814	0.6611570247933884
752.960205078125	-0.056976864312747	-9.641755852794455	-1.767437856241767	-0.7210229717800084	-0.3717664009369348	-0.3614709379412043	0.188911704312115	-0.4073319755600814	0.6611570247933884
756.866455078125	0.1983894842516922	-9.742520733425286	-1.946316141723073	0.3660433656223325	-0.3828566956373787	-0.3724525042622321	0.1806981519507187	-0.4093686354378818	0.6756198347107438
760.772705078125	0.004579504921370832	-9.86185262674209	-1.819316830712361	-0.7172978660443063	-1.122748287257517	-0.7339815115114022	0.1806981519507187	-0.4093686354378818	0.6756198347107438
764.678955078125	-0.04396387813958699	-9.760881653931799	-1.867870728680434	-0.3585931541509285	-1.119107077003786	-0.3725686428781636	0.1806981519507187	-0.4093686354378818	0.6756198347107438
768.585205078125	0.203166143681474	-9.770976280209657	-2.105538122715801	-0.7137215039652034	-0.3864423512446928	-1.0916177194217	0.1806981519507187	-0.4093686354378818	0.6756198347107438
772.491455078125	-0.004598431754178305	-9.84482015960052	-1.513385608194057	-0.007301467814804958	0.01467595030775797	0.7301467814804957	0.1806981519507187	-0.4093686354378818	0.6756198347107438
776.397705078125	0.07934601483705968	-9.701011455202684	-1.978200494568656	-0.3587047118933778	-0.003641210253730994	-0.3614128686332386	0.1806981519507187	-0.4093686354378818	0.6756198347107438
780.303955078125	-0.03810129167747731	-9.952319417642386	-1.72995694408409	-0.7174094237867555	-0.007282420507461989	-0.7228257372664771	0.1806981519507187	-0.4093686354378818	0.6756198347107438
784.210205078125	0.2263286439476326	-9.853487071790266	-1.877621464921087	-0.3549796061576758	-0.7546230965743135	-0.7339234422034364	0.1765913757700205	-0.4032586558044806	0.6673553719008265
788.116455078125	-0.07585401418408397	-9.75119279791952	-1.804866193863868	0.3624298176290798	-0.7473406760668516	-0.01109770493695932	0.1765913757700205	-0.4032586558044806	0.6673553719008265
792.022705078125	0.02206947567152796	-9.809530869532873	-2.068982522384266	-0.3587790837216773	0.7400027009129726	-0.3539756858032885	0.1765913757700205	-0.4032586558044806	0.6673553719008265
795.928955078125	0.2075871363780824	-9.842880159237753	-1.919571212602747	0.3660061797081828	-0.01103474005402697	-0.3687339128472572	0.1765913757700205	-0.4073319755600814	0.6590909090909091
799.835205078125	0.1321558214600317	-9.700602951061258	-2.071860715334388	-0.3550911639001251	0.3608427701757418	-0.7227676679585114	0.1765913757700205	-0.4073319755600814	0.6590909090909091
803.741455078125	0.05988292176672521	-9.840637855295427	-1.996097392224174	-7.437182829950031e-05	0.7436439111667036	0.007437182829950031	0.1765913757700205	-0.4073319755600814	0.6590909090909091
807.647705078125	-0.06774307770805521	-9.898570261792271	-2.075230743064827	-7.437182829950031e-05	0.7436439111667036	0.007437182829950031	0.1765913757700205	-0.4073319755600814	0.6590909090909091
811.553955078125	-0.1274525035073787	-9.857876309467386	-2.084916549754043	-7.437182829950031e-05	0.7436439111667036	0.007437182829950031	0.1806981519507187	-0.4317718940936863	0.6652892561983471
815.460205078125	-0.2138542838914515	-9.695812885124903	-2.204857203618285	0	0	0	0.1806981519507187	-0.4317718940936863	0.6652892561983471
819.366455078125	-0.03431986820615424	-9.667763424053323	-2.189337726461526	-0.3586303400650783	-0.7472851214204346	-0.3688500514631886	0.1806981519507187	-0.4317718940936863	0.6652892561983471
823.272705078125	-0.06823832983318365	-9.778730393312728	-2.058722338893879	-0.7135727603086044	-1.8737301735781	-1.1064920850816	0.1868583162217659	-0.4114052953156823	0.6838842975206612
827.178955078125	-0.2172800406296012	-9.936920546470239	-2.09066531234663	-0.362095144401732	-2.599056924183315	-0.02236961779781583	0.1868583162217659	-0.4114052953156823	0.6838842975206612
831.085205078125	0.2016031027387916	-9.991481663447791	-2.053436757959719	-0.3548308625010768	-2.241910918907721	-0.7487978078633365	0.1868583162217659	-0.4114052953156823	0.6838842975206612
834.991455078125	0.2343654503284989	-9.740888504393787	-2.145515010949961	-0.3657830642232843	-2.219896993446084	0.346422364357407	0.1848049281314169	-0.4134419551934826	0.6797520661157025
838.897705078125	-0.3422712672539768	-9.717334376412119	-1.924291091534106	-0.3621695162300315	-1.855413013016611	-0.0149324349678658	0.1848049281314169	-0.4134419551934826	0.6797520661157025
842.803955078125	0.02136445114945021	-9.549758827461677	-2.045481704981674	0.0001487436565990006	-1.487287822333407	-0.01487436565990006	0.1848049281314169	-0.4134419551934826	0.6797520661157025
846.710205078125	0.2928438433773041	-9.59198049064134	-2.094794779243468	-1.079541754102638	-2.234517389107425	-0.7414767636493179	0.1848049281314169	-0.4134419551934826	0.6797520661157025
850.616455078125	-0.001673447467392621	-9.62054108134779	-1.944218417753579	-0.007152724158205957	-1.472611872025649	0.7152724158205956	0.1827515400410678	-0.4073319755600814	0.6776859504132231
854.522705078125	0.3818299250576283	-9.583208324231368	-2.060997501920942	-0.362243888058331	-1.111769101849907	-0.007495252137915762	0.1827515400410678	-0.4073319755600814	0.6776859504132231
858.428955078125	0.4518631495353858	-9.843897581650225	-2.062104984512856	-0.3585559682367788	-1.490929032587138	-0.3762872342931387	0.1827515400410678	-0.4073319755600814	0.6776859504132231
862.335205078125	-0.08141692579340892	-9.759658139339869	-1.952769140219704	-0.7209485999517089	-1.115410312103638	-0.3689081207711543	0.1765913757700205	-0.4276985743380855	0.6818181818181819
866.241455078125	0.2182729107339589	-9.672758425529354	-1.942430357798631	-0.3695825417872857	-0.7252711959587976	0.726370120757555	0.1765913757700205	-0.4276985743380855	0.6818181818181819
870.147705078125	0.3101130010780409	-9.673063462984768	-2.003766702601362	-0.3623554458007803	0.003696764900147988	0.003660522107009284	0.1765913757700205	-0.4276985743380855	0.6818181818181819
874.053955078125	0.100264896797501	-9.900914350035475	-2.008829893250034	-0.3550539779859753	-0.01097918540760998	-0.7264862593734864	0.1765913757700205	-0.4276985743380855	0.6818181818181819
877.960205078125	0.3783600057095946	-9.584330264820565	-1.945333523653152	-0.7137586898793531	-0.01462039566134097	-1.087899128006725	0.1642710472279261	-0.4297352342158859	0.6776859504132231
881.866455078125	0.03918879594587241	-9.790662289310836	-1.972959864862414	-0.003650733907402479	0.007337975153878983	0.3650733907402479	0.1642710472279261	-0.4297352342158859	0.6776859504132231
885.772705078125	0.1880049619846677	-9.692545062291625	-1.933498732822256	-0.3587418978075275	0.3681807453296208	-0.3576942772182636	0.1642710472279261	-0.4297352342158859	0.6776859504132231
889.678955078125	0.06382364608084438	-9.802697021100528	-1.794121536028146	-0.3587047118933778	-0.003641210253730994	-0.3614128686332386	0.1909650924024641	-0.4093686354378818	0.6756198347107438
893.585205078125	0.1767032769445152	-9.872865940454608	-1.89010923148384	0.007264281900655208	0.3571460052755938	-0.7264281900655207	0.1909650924024641	-0.4093686354378818	0.6756198347107438
897.491455078125	0.01624158840289864	-9.711415219749728	-1.874719613429955	-7.437182829950031e-05	0.7436439111667036	0.007437182829950031	0.1909650924024641	-0.4093686354378818	0.6756198347107438
901.397705078125	-0.02022016638263275	-9.739871187130387	-1.992661120578909	0.007264281900655208	0.3571460052755938	-0.7264281900655207	0.1683778234086242	-0.4073319755600814	0.6838842975206612
905.303955078125	-0.1948966949806828	-9.49968326471042	-1.83677683397724	-0.003725105735701979	0.7509818863205826	0.3725105735701979	0.1683778234086242	-0.4073319755600814	0.6838842975206612
909.210205078125	0.08232541376816681	-9.653381449548293	-1.744180458938893	0.7209114140375591	1.48723226768699	0.3726267121861294	0.1683778234086242	-0.4073319755600814	0.6838842975206612
913.116455078125	0.05672923825018276	-9.631657546299108	-1.890974608339425	-0.7174094237867555	-0.007282420507461989	-0.7228257372664771	0.1683778234086242	-0.4073319755600814	0.6838842975206612
917.022705078125	-0.04177073138802296	-9.750172536482127	-1.940975620399235	-0.7174466097009052	0.3645395350758898	-0.7191071458515021	0.1909650924024641	-0.4236252545824847	0.6756198347107438
920.928955078125	0.04813645615559749	-9.794435879176357	-1.604548538519916	-0.0001487436565990006	1.487287822333407	0.01487436565990006	0.1909650924024641	-0.4236252545824847	0.6756198347107438
924.835205078125	-0.1223249090526253	-9.769551720593682	-1.922503031579158	-0.3551283498142748	0.7326647257590937	-0.7190490765435364	0.1909650924024641	-0.4236252545824847	0.6756198347107438
928.741455078125	-0.06990389112023983	-9.299268924795545	-2.00320362932534	-0.003687919821552229	0.3791599307372308	0.3687919821552229	0.1786447638603696	-0.4175152749490835	0.6797520661157025
932.647705078125	0.1021331329192037	-9.743643620356124	-1.73777109730679	0.003650733907402479	-0.007337975153878983	-0.3650733907402479	0.1786447638603696	-0.4175152749490835	0.6797520661157025
936.553955078125	-0.06220934496597508	-9.660114354872332	-1.926355167800831	0.3622810739724808	0.7399471462665556	0.003776660722940747	0.1786447638603696	-0.4175152749490835	0.6797520661157025
940.460205078125	-0.1206278030442234	-9.849002989650966	-1.979073231859222	0.365968993794033	0.3607872155293249	-0.3650153214322821	0.1786447638603696	-0.4175152749490835	0.6797520661157025
944.366455078125	-0.07871275455604357	-9.66878379063979	-2.042908181465215	0	0	0	0.1663244353182751	-0.4256619144602851	0.6756198347107438
948.272705078125	-0.1581857368965199	-9.777813388263207	-2.06047543678267	0.003687919821552229	-0.3791599307372308	-0.3687919821552229	0.1663244353182751	-0.4256619144602851	0.6756198347107438
952.178955078125	-0.01979904435266684	-9.599735024340697	-2.006698521577772	0.003762291649851729	-1.122803841903934	-0.3762291649851729	0.1663244353182751	-0.4256619144602851	0.6756198347107438
956.085205078125	0.09468700144553685	-9.899384536199276	-2.156233381517895	-0.3586303400650783	-0.7472851214204346	-0.3688500514631886	0.188911704312115	-0.3971486761710794	0.6694214876033058
959.991455078125	0.008921635814614816	-9.60044867108661	-1.964054527153827	-0.3623182598866305	-0.3681251906832038	-5.806930796573191e-05	0.188911704312115	-0.3971486761710794	0.6694214876033058
963.897705078125	-0.04014775547478356	-9.569647774270178	-1.995074817507215	-0.3585931541509285	-1.119107077003786	-0.3725686428781636	0.188911704312115	-0.3971486761710794	0.6694214876033058
967.803955078125	0.06415013394677302	-9.529258123357211	-2.138337798225767	7.437182829950031e-05	-0.7436439111667036	-0.007437182829950031	0.1704312114989733	-0.4134419551934826	0.6942148760330579
971.710205078125	-0.006375188183978287	-9.642061310846152	-1.787493727200724	-0.7172606801301565	-1.494570242840869	-0.7377001029263772	0.1704312114989733	-0.4134419551934826	0.6942148760330579
975.616455078125	0.2021898345558228	-9.751291953493617	-2.072994485194091	-0.01445419197301091	-1.457935921717891	1.445419197301091	0.1704312114989733	-0.4134419551934826	0.6942148760330579
979.522705078125	0.09051126895739176	-9.850734689703776	-2.017042298579725	-1.083304045752489	-1.11171354720349	-0.3652475986641451	0.1704312114989733	-0.4134419551934826	0.6942148760330579
983.428955078125	0.105537596970445	-9.839209510312891	-2.184586565681498	7.437182829950031e-05	-0.7436439111667036	-0.007437182829950031	0.1827515400410678	-0.4276985743380855	0.6776859504132231
987.335205078125	-0.0308602008925579	-9.729978131621928	-1.971326636914737	-0.3622067021441813	-1.483591057433259	-0.01121384355289078	0.1827515400410678	-0.4276985743380855	0.6776859504132231
991.241455078125	0.113789696074496	-9.729874664935913	-2.1263232024832	-0.3658574360515838	-1.47625308227938	0.3538595471873571	0.1827515400410678	-0.4276985743380855	0.6776859504132231
995.147705078125	-0.1298412275312865	-9.94864866356845	-2.005292415623785	-0.362243888058331	-1.111769101849907	-0.007495252137915762	0.188911704312115	-0.4439918533604887	0.6921487603305785
999.053955078125	0.431815690502121	-9.593712926737648	-2.060523016737366	-0.362243888058331	-1.111769101849907	-0.007495252137915762	0.188911704312115	-0.4439918533604887	0.6921487603305785
1002.960205078125	-0.05172072511850959	-9.99005636778832	-1.942642496049681	-1.804327017532497	-1.483479948140425	-0.7267185366053494	0.188911704312115	-0.4439918533604887	0.6921487603305785
1006.866455078125	0.1420750590872062	-9.65072906422847	-2.069168636240206	-0.362243888058331	-1.111769101849907	-0.007495252137915762	0.188911704312115	-0.4439918533604887	0.6921487603305785
1010.772705078125	0.03615498237044385	-9.661643222366891	-1.871832745681462	-0.003576362079102979	-0.7363059360128246	0.3576362079102978	0.188911704312115	-0.4439918533604887	0.6921487603305785
1014.678955078125	0.2711631563963626	-9.58565724609851	-1.705438546545419	7.437182829950031e-05	-0.7436439111667036	-0.007437182829950031	0.188911704312115	-0.4439918533604887	0.6921487603305785
1018.585205078125	0.02936024939256696	-9.690506852696403	-1.978674979752232	-0.717335051958456	-0.7509263316741656	-0.7302629200964272	0.188911704312115	-0.4439918533604887	0.6921487603305785
1022.491455078125	0.1950701909480845	-9.633593971593452	-1.835673031602816	0.3623182598866305	0.3681251906832038	5.806930796573191e-05	0.1950718685831622	-0.4073319755600814	0.6797520661157025
1026.397705078125	-0.003761708020481994	-9.70121628559329	-1.8746097326506	-0.3623182598866305	-0.3681251906832038	-5.806930796573191e-05	0.1950718685831622	-0.4073319755600814	0.6797520661157025
1030.303955078125	-0.2942838599067381	-9.868485114703178	-1.857204669775399	-0.7209857858658586	-0.7435883565202867	-0.3651895293561793	0.1950718685831622	-0.4073319755600814	0.6797520661157025
1034.210205078125	0.1551243216899138	-9.443176469320262	-1.837477389663794	-1.079727683673386	-0.3754076111906658	-0.7228838065744428	0.2053388090349076	-0.4195519348268839	0.6838842975206612
1038.116455078125	0.1106099881628433	-9.784236103827347	-1.68699960542811	0.3551655357284246	-1.104486681342445	0.7153304851285613	0.2053388090349076	-0.4195519348268839	0.6838842975206612
1042.022705078125	0.04078574746400156	-9.873479274986639	-1.692858248800052	0.3587418978075275	-0.3681807453296208	0.3576942772182636	0.2053388090349076	-0.4195519348268839	0.6838842975206612
1045.928955078125	0.01546085654959106	-9.611667656382298	-1.848695218319702	0.003650733907402479	-0.007337975153878983	-0.3650733907402479	0.2053388090349076	-0.4195519348268839	0.6838842975206612
1049.835205078125	-0.04880441563009399	-9.409113427720397	-2.039852812330201	0.003650733907402479	-0.007337975153878983	-0.3650733907402479	0.1765913757700205	-0.4419551934826884	0.6756198347107438
1053.741455078125	-0.09033935022605739	-9.702543056573093	-1.655354992464755	0.3623554458007803	-0.003696764900147988	-0.003660522107009284	0.1765913757700205	-0.4419551934826884	0.6756198347107438
1057.647705078125	-0.0511190095588392	-9.759861813090692	-1.962699681372027	0.003613547993252729	0.3644839804294728	-0.3613547993252729	0.1765913757700205	-0.4419551934826884	0.6756198347107438
1061.553955078125	0.04253884535279222	-9.709579106669263	-2.084628178426407	0	0	0	0.1745379876796715	-0.4195519348268839	0.6880165289256198
1065.460205078125	0.0370855516501438	-9.861342338299787	-1.90285172167146	-1.079727683673386	-0.3754076111906658	-0.7228838065744428	0.1745379876796715	-0.4195519348268839	0.6880165289256198
1069.366455078125	-0.1394600016876426	-9.988425400545671	-2.017999943745247	-7.437182829950031e-05	0.7436439111667036	0.007437182829950031	0.1745379876796715	-0.4195519348268839	0.6880165289256198
1073.272705078125	-0.1165861356217977	-9.597696183851049	-2.113795479273409	-0.36239263171493	0.3755187204834998	0.007379113521984299	0.1745379876796715	-0.4195519348268839	0.6880165289256198
1077.178955078125	-0.1224897302216569	-9.659605012771669	-1.917008992611438	0	0	0	0.1745379876796715	-0.4195519348268839	0.6880165289256198
1081.085205078125	-0.04202624363092363	-9.790255152107331	-1.93245854563588	3.718591414975016e-05	-0.3718219555833518	-0.003718591414975016	0.1745379876796715	-0.4195519348268839	0.6880165289256198
1084.991455078125	0.1691735519592821	-9.621967218199831	-1.972451731976069	-0.36239263171493	0.3755187204834998	0.007379113521984299	0.1745379876796715	-0.4195519348268839	0.6880165289256198
1088.897705078125	-0.1701017553848811	-9.548332900907777	-1.996608153837297	7.437182829950031e-05	-0.7436439111667036	-0.007437182829950031	0.1868583162217659	-0.4032586558044806	0.6818181818181819
1092.803955078125	0.135555553803071	-9.722837037603673	-1.851851793435701	0	0	0	0.1868583162217659	-0.4032586558044806	0.6818181818181819
1096.710205078125	-0.01755621466498325	-9.692343176075012	-1.748126177833892	0.003650733907402479	-0.007337975153878983	-0.3650733907402479	0.1868583162217659	-0.4032586558044806	0.6818181818181819
1100.616455078125	0.2664417002289358	-9.523850516925977	-1.881390007631194	-0.003687919821552229	0.3791599307372308	0.3687919821552229	0.1848049281314169	-0.4215885947046843	0.6818181818181819
1104.522705078125	0.1078411502467192	-9.761798028086893	-1.928038341557305	0.003650733907402479	-0.007337975153878983	-0.3650733907402479	0.1848049281314169	-0.4215885947046843	0.6818181818181819
1108.428955078125	0.1334980493532938	-9.613502297375767	-1.783268311776459	-0.36239263171493	0.3755187204834998	0.007379113521984299	0.1848049281314169	-0.4215885947046843	0.6818181818181819
1112.335205078125	0.1960764675590143	-9.673268608822585	-1.869215585300475	-0.3587047118933778	-0.003641210253730994	-0.3614128686332386	0.1848049281314169	-0.4215885947046843	0.6818181818181819
1116.241455078125	-0.09063035028047203	-9.859303813257354	-1.978988323984266	-0.0001859295707487508	1.859109777916759	0.01859295707487508	0.1827515400410678	-0.4215885947046843	0.6735537190082644
1120.147705078125	0.3173422625924557	-9.934059335095107	-1.911408753081854	-3.718591414975016e-05	0.3718219555833518	0.003718591414975016	0.1827515400410678	-0.4215885947046843	0.6735537190082644
1124.053955078125	0.1701490724668998	-9.851651799902367	-2.004969082229991	0.003650733907402479	-0.007337975153878983	-0.3650733907402479	0.1827515400410678	-0.4215885947046843	0.6735537190082644
1127.960205078125	0.02928533067937077	-9.640531076413669	-1.976177689312359	-1.079764869587536	-0.003585655607314001	-0.7191652151594679	0.1786447638603696	-0.4276985743380855	0.6880165289256198
1131.866455078125	0.1167091600350462	-9.642264038255334	-1.890305334501539	0.3587047118933778	0.003641210253730994	0.3614128686332386	0.1786447638603696	-0.4276985743380855	0.6880165289256198
1135.772705078125	0.178010805644297	-9.692443172841678	-1.933693521476566	1.087066337402341	-0.01109029470044396	-0.01098156632102785	0.1786447638603696	-0.4276985743380855	0.6880165289256198
1139.678955078125	0.0724960785968277	-9.763226267920359	-1.749869286560923	-0.3587047118933778	-0.003641210253730994	-0.3614128686332386	0.1786447638603696	-0.4276985743380855	0.6880165289256198
1143.585205078125	-0.08664940644663699	-9.778016641417747	-2.111686451778767	-0.358667525979228	-0.3754631658370828	-0.3651314600482136	0.1786447638603696	-0.4276985743380855	0.6880165289256198
1147.491455078125	0.1272695441235733	-9.528849514066712	-2.242318137452443	0.3696569136155852	-0.01837271520790595	-0.733807303587505	0.1786447638603696	-0.4276985743380855	0.6880165289256198
1151.397705078125	0.001990471916917504	-9.959356414080196	-2.06634906389725	-0.7174094237867555	-0.007282420507461989	-0.7228257372664771	0.1786447638603696	-0.4276985743380855	0.6880165289256198
1155.303955078125	-0.1663763237939468	-9.507128344693376	-2.120789206868442	-7.437182829950031e-05	0.7436439111667036	0.007437182829950031	0.1765913757700205	-0.4073319755600814	0.6818181818181819
1159.210205078125	0.02736267991334665	-9.621152733494684	-1.912089330444888	0.003576362079102979	0.7363059360128246	-0.3576362079102978	0.1765913757700205	-0.4073319755600814	0.6818181818181819
1163.116455078125	-0.2105602263649204	-9.858081139857992	-1.981325787835987	0.003650733907402479	-0.007337975153878983	-0.3650733907402479	0.1765913757700205	-0.4073319755600814	0.6818181818181819
1167.022705078125	-0.05926543384638195	-9.729162490276998	-2.024485538453936	3.718591414975016e-05	-0.3718219555833518	-0.003718591414975016	0.1909650924024641	-0.415478615071283	0.6714876033057852
1170.928955078125	-0.08604769088696659	-9.547822086720119	-2.131743637101114	-1.083378417580789	-0.3680696360367868	-0.357810415834195	0.1909650924024641	-0.415478615071283	0.6714876033057852
1174.835205078125	-0.1318080409071947	-9.689284599893327	-1.939731969760178	-0.7209114140375591	-1.48723226768699	-0.3726267121861294	0.1909650924024641	-0.415478615071283	0.6714876033057852
1178.741455078125	-0.1905111900955884	-9.688265284797573	-1.982960330147054	-1.086880407831592	-1.848019483216315	-0.007611390753847227	0.1909650924024641	-0.415478615071283	0.6714876033057852
1182.647705078125	-0.01108244922679946	-9.800249991916665	-1.963918359106685	-0.3621695162300315	-1.855413013016611	-0.0149324349678658	0.1909650924024641	-0.4032586558044806	0.6797520661157025
1186.553955078125	-0.06238914987764593	-9.540172491793772	-1.920361670745136	0.0001487436565990006	-1.487287822333407	-0.01487436565990006	0.1909650924024641	-0.4032586558044806	0.6797520661157025
1190.460205078125	0.1308033415323322	-9.851040252904546	-2.026778051077739	-1.075853834281085	-2.613677319844656	-1.110268745804541	0.1909650924024641	-0.4032586558044806	0.6797520661157025
1194.366455078125	0.06720366297304267	-9.741604148972051	-1.906788765768089	-0.717186308301857	-2.238214154007573	-0.7451372857563272	0.1704312114989733	-0.4236252545824847	0.6818181818181819
1198.272705078125	0.100220734187617	-9.660928629279338	-2.007357806253899	1.08717789514479	-1.126556161450499	-0.0221373405659529	0.1704312114989733	-0.4236252545824847	0.6818181818181819
1202.178955078125	0.345133162098071	-9.525073610921625	-1.837772069935699	-0.7246737056874109	-0.3644284257830558	0.003602452799043552	0.1704312114989733	-0.4236252545824847	0.6818181818181819
1206.085205078125	0.3632981898850274	-9.712533585270506	-2.109939662834246	-0.717335051958456	-0.7509263316741656	-0.7302629200964272	0.1704312114989733	-0.4236252545824847	0.6818181818181819
1209.991455078125	-0.006435123154535232	-9.602080689819967	-1.785495894848826	3.718591414975016e-05	-0.3718219555833518	-0.003718591414975016	0.1704312114989733	-0.4236252545824847	0.6818181818181819
1213.897705078125	0.1946340851754794	-9.763734979126594	-1.821136172515978	0	0	0	0.1704312114989733	-0.4236252545824847	0.6818181818181819
1217.803955078125	0.362791897107428	-9.866030619935264	-1.75972990358093	0.003650733907402479	-0.007337975153878983	-0.3650733907402479	0.1704312114989733	-0.4236252545824847	0.6818181818181819
1221.710205078125	0.2196246020436248	-9.732321378672562	-1.987486734787492	0.3622810739724808	0.7399471462665556	0.003776660722940747	0.1848049281314169	-0.4073319755600814	0.6735537190082644
1225.616455078125	0.1417193923540327	-9.694177396472195	-1.723979745134424	0.7245993338591113	1.108072336949759	0.003834730030906479	0.1848049281314169	-0.4073319755600814	0.6735537190082644
1229.522705078125	0.05916212488397457	-9.780870912954182	-1.972070829465819	0.3622067021441813	1.483591057433259	0.01121384355289078	0.1848049281314169	-0.4073319755600814	0.6735537190082644
1233.428955078125	-0.05370252223705702	-9.720697148856649	-1.8765825920981	-0.7175953533575042	1.851827357409297	-0.7042327801916021	0.1848049281314169	-0.4012219959266802	0.6652892561983471
1237.335205078125	-0.06297588169467708	-9.780362201747945	-1.900803943510764	1.090568327653144	1.468859552479084	-0.3611805914013757	0.1848049281314169	-0.4012219959266802	0.6652892561983471
1241.241455078125	0.01720764549411257	-9.79443619462357	-1.573588183137086	-0.3551655357284246	1.104486681342445	-0.7153304851285613	0.1848049281314169	-0.4012219959266802	0.6652892561983471
1245.147705078125	-0.3018443409952833	-9.80759633692181	-1.938521966823891	0.007189910072355707	1.100789916442297	-0.7189910072355706	0.1848049281314169	-0.4012219959266802	0.6652892561983471
1249.053955078125	-0.1704479587016509	-9.7384448399802	-1.985068043278306	0.3659318078798833	0.7326091711126765	-0.3612967300173071	0.1848049281314169	-0.4114052953156823	0.6590909090909091
1252.960205078125	-0.2202073907704878	-9.457867056349125	-1.993086974317076	0.007301467814804958	-0.01467595030775797	-0.7301467814804957	0.1848049281314169	-0.4114052953156823	0.6590909090909091
1256.866455078125	-0.1262159504306249	-9.910809823972571	-1.792801652312504	0.003650733907402479	-0.007337975153878983	-0.3650733907402479	0.1848049281314169	-0.4114052953156823	0.6590909090909091
1260.772705078125	-0.1813884566823944	-9.738648934327308	-1.953718110586855	-0.0001115577424492505	1.115465866750055	0.01115577424492505	0.1827515400410678	-0.4134419551934826	0.6797520661157025
1264.678955078125	-0.07050560667991022	-9.529463479493172	-1.983146444002994	-0.36239263171493	0.3755187204834998	0.007379113521984299	0.1827515400410678	-0.4134419551934826	0.6797520661157025
1268.585205078125	-0.1237972589214387	-9.840027780384599	-1.873424702618711	0.007301467814804958	-0.01467595030775797	-0.7301467814804957	0.1827515400410678	-0.4134419551934826	0.6797520661157025
1272.491455078125	-0.02040075991233723	-9.829929579038323	-1.986641336255426	0.3623182598866305	0.3681251906832038	5.806930796573191e-05	0.1827515400410678	-0.4134419551934826	0.6797520661157025
1276.397705078125	0.07733346161520013	-9.621662180744417	-1.911115387173338	0.3623554458007803	-0.003696764900147988	-0.003660522107009284	0.1827515400410678	-0.4134419551934826	0.6797520661157025
1280.303955078125	0.1734147397442196	-9.573929234149368	-1.780491324807321	0.3587418978075275	-0.3681807453296208	0.3576942772182636	0.1827515400410678	-0.4134419551934826	0.6797520661157025
1284.210205078125	0.2052741196854045	-9.773628034635053	-1.84247065618015	-0.3585931541509285	-1.119107077003786	-0.3725686428781636	0.1827515400410678	-0.4134419551934826	0.6797520661157025
1288.116455078125	0.09783201016370922	-9.751700983380401	-1.92773367212364	-0.007301467814804958	0.01467595030775797	0.7301467814804957	0.188911704312115	-0.4134419551934826	0.6859504132231405
1292.022705078125	0.154246589818468	-9.840126935958695	-2.141552993948934	0.007338653728954708	-0.3864979058911098	-0.7338653728954707	0.188911704312115	-0.4134419551934826	0.6859504132231405
1295.928955078125	-0.001223146570181884	-9.710395484057692	-1.959228447660604	-0.7210601576941581	5.555464641699391e-05	-0.3577523465262293	0.188911704312115	-0.4134419551934826	0.6859504132231405
1299.835205078125	0.0198021988248014	-9.560263955713314	-1.99340662749338	0.003650733907402479	-0.007337975153878983	-0.3650733907402479	0.188911704312115	-0.405295315682281	0.6735537190082644
1303.741455078125	0.0776481202106241	-9.831560441131897	-1.921604007020803	-0.358667525979228	-0.3754631658370828	-0.3651314600482136	0.188911704312115	-0.405295315682281	0.6735537190082644
1307.647705078125	0.006969017563312216	-9.561080017654531	-1.898967252110408	0	0	0	0.188911704312115	-0.405295315682281	0.6735537190082644
1311.553955078125	0.1751015937181842	-9.716717151364454	-2.503386457272806	0.003613547993252729	0.3644839804294728	-0.3613547993252729	0.188911704312115	-0.405295315682281	0.6735537190082644
1315.460205078125	-0.07722620956262458	-9.818303141091915	-2.092459681245848	-0.3550539779859753	-0.01097918540760998	-0.7264862593734864	0.1868583162217659	-0.4175152749490835	0.6714876033057852
1319.366455078125	-0.07071616769489317	-9.599531560888016	-1.976127743503562	-0.358667525979228	-0.3754631658370828	-0.3651314600482136	0.1868583162217659	-0.4175152749490835	0.6714876033057852
1323.272705078125	-0.1799910255267771	-9.618197098253658	-2.000299149107429	-0.3550539779859753	-0.01097918540760998	-0.7264862593734864	0.1868583162217659	-0.4175152749490835	0.6714876033057852
1327.178955078125	0.01930536946360566	-9.860424597206768	-1.976845648786856	-0.7174094237867555	-0.007282420507461989	-0.7228257372664771	0.1848049281314169	-0.4236252545824847	0.6921487603305785
1331.085205078125	-0.05214026991240821	-9.710192020605012	-1.928657669586394	-0.358667525979228	-0.3754631658370828	-0.3651314600482136	0.1848049281314169	-0.4236252545824847	0.6921487603305785
1334.991455078125	0.03248396542383093	-9.87949685117963	-2.082798847461031	0.003762291649851729	-1.122803841903934	-0.3762291649851729	0.1848049281314169	-0.4236252545824847	0.6921487603305785
1338.897705078125	-0.04653635016533379	-9.44838008655346	-2.115454994488874	-0.3550167920718256	-0.3828011409909618	-0.7302048507884614	0.1848049281314169	-0.4236252545824847	0.6921487603305785
1342.803955078125	0.1573316635660834	-9.652462762113633	-1.911055452202781	0.3587418978075275	-0.3681807453296208	0.3576942772182636	0.1848049281314169	-0.4236252545824847	0.6921487603305785
1346.710205078125	0.06179137740814374	-9.640020787971366	-2.059712580271458	0.3587418978075275	-0.3681807453296208	0.3576942772182636	0.1848049281314169	-0.4236252545824847	0.6921487603305785
1350.616455078125	0.1805493670945971	-9.701622371306081	-2.01831223648657	-0.3696569136155852	0.01837271520790595	0.733807303587505	0.1848049281314169	-0.4236252545824847	0.6921487603305785
1354.522705078125	0.2584143572644734	-9.783112691151153	-1.94714524214911	-0.003687919821552229	0.3791599307372308	0.3687919821552229	0.1991786447638604	-0.415478615071283	0.6900826446280992
1358.428955078125	0.06658854090680033	-9.541803038440134	-1.886284696893344	-0.72478526342986	0.7510374409669995	0.0147582270439686	0.1991786447638604	-0.415478615071283	0.6900826446280992
1362.335205078125	0.1560194031580998	-9.759553726312214	-2.200646771936659	-0.3660061797081828	0.01103474005402697	0.3687339128472572	0.1991786447638604	-0.415478615071283	0.6900826446280992
1366.241455078125	0.02412698012130522	-9.918865609760777	-2.137566004043507	-0.3550911639001251	0.3608427701757418	-0.7227676679585114	0.1786447638603696	-0.4032586558044806	0.6673553719008265
1370.147705078125	0.3616010838766255	-9.633082316213224	-2.053369462554181	0.3623182598866305	0.3681251906832038	5.806930796573191e-05	0.1786447638603696	-0.4032586558044806	0.6673553719008265
1374.053955078125	-0.0144616775009641	-9.651342609058645	-1.85127741663453	0.3623182598866305	0.3681251906832038	5.806930796573191e-05	0.1786447638603696	-0.4032586558044806	0.6673553719008265
1377.960205078125	0.1457847183174677	-9.809529607744018	-2.192823943915589	-0.3513288722502733	-0.7619610717281925	-1.098996832943684	0.1786447638603696	-0.4032586558044806	0.6673553719008265
1381.866455078125	-0.1202823883454873	-9.868891305565041	-1.990587055150425	-0.3622810739724808	-0.7399471462665556	-0.003776660722940747	0.188911704312115	-0.4032586558044806	0.6880165289256198
1385.772705078125	-0.2295414738166984	-9.687551743200732	-2.015284206110055	0	0	0	0.188911704312115	-0.4032586558044806	0.6880165289256198
1389.678955078125	-0.1701624789734717	-9.718352534868089	-1.994584034217611	-0.7246737056874109	-0.3644284257830558	0.003602452799043552	0.188911704312115	-0.4032586558044806	0.6880165289256198
1393.585205078125	0.1453998727170494	-9.622987374488154	-1.846662423901646	-0.3585559682367788	-1.490929032587138	-0.3762872342931387	0.1930184804928131	-0.3890020366598778	0.6694214876033058
1397.491455078125	-0.1994848747004238	-9.947833442819803	-2.017170843319209	-0.3622067021441813	-1.483591057433259	-0.01121384355289078	0.1930184804928131	-0.3890020366598778	0.6694214876033058
1401.397705078125	0.1423155875874676	-9.600651293346719	-2.077186252915586	-0.7209114140375591	-1.48723226768699	-0.3726267121861294	0.1930184804928131	-0.3890020366598778	0.6694214876033058
1405.303955078125	0.03041068861338079	-9.970167210681673	-2.013689620446026	-0.7172606801301565	-1.494570242840869	-0.7377001029263772	0.1930184804928131	-0.4236252545824847	0.6756198347107438
1409.210205078125	-0.06738189064864625	-9.718453477976395	-2.087270311711793	-0.3549424202435261	-1.126445052157665	-0.7376420336184115	0.1930184804928131	-0.4236252545824847	0.6756198347107438
1413.116455078125	0.05578289660980993	-9.631963530096161	-1.859429886993665	-0.7245993338591113	-1.108072336949759	-0.003834730030906479	0.1930184804928131	-0.4236252545824847	0.6756198347107438
1417.022705078125	0.09862851437768969	-9.651443447017881	-1.954283812589656	-0.3622810739724808	-0.7399471462665556	-0.003776660722940747	0.1930184804928131	-0.4236252545824847	0.6756198347107438
1420.928955078125	-0.2417887118791901	-9.658178350174273	-1.940376270693666	-0.7210973436083078	0.3718775102297688	-0.3540337551112543	0.1868583162217659	-0.4276985743380855	0.6714876033057852
1424.835205078125	-0.08131125097690062	-9.619623971149199	-1.956291634103314	-0.3586303400650783	-0.7472851214204346	-0.3688500514631886	0.1868583162217659	-0.4276985743380855	0.6714876033057852
1428.741455078125	-0.01470220600122553	-9.701420379940396	-1.84325979995915	-0.003539176164953228	-1.108127891596177	0.3539176164953228	0.1868583162217659	-0.4276985743380855	0.6714876033057852
1432.647705078125	-0.0357866977487321	-9.601571032272091	-1.807110075042263	-0.7209857858658586	-0.7435883565202867	-0.3651895293561793	0.2073921971252567	-0.4073319755600814	0.6983471074380165
1436.553955078125	-0.1656058439750765	-9.670212556218608	-1.813138534164116	-0.003501990250803478	-1.479949847179528	0.3501990250803478	0.2073921971252567	-0.4073319755600814	0.6983471074380165
1440.460205078125	0.03450361620799327	-9.40217716409275	-1.816787206933109	-0.3658574360515838	-1.47625308227938	0.3538595471873571	0.2073921971252567	-0.4073319755600814	0.6983471074380165
1444.366455078125	-0.201495850686216	-9.448483658388543	-1.950138310459467	0.0001487436565990006	-1.487287822333407	-0.01487436565990006	0.2073921971252567	-0.4073319755600814	0.6983471074380165
1448.272705078125	0.2397178009228408	-9.802491244368282	-1.990593364094694	0.0001487436565990006	-1.487287822333407	-0.01487436565990006	0.1827515400410678	-0.415478615071283	0.6797520661157025
1452.178955078125	0.212384299876739	-9.744662409706523	-1.746143329224633	-0.362243888058331	-1.111769101849907	-0.007495252137915762	0.1827515400410678	-0.415478615071283	0.6797520661157025
1456.085205078125	-0.1539295653689431	-9.739770559469292	-1.869014487701896	-0.7209114140375591	-1.48723226768699	-0.3726267121861294	0.1827515400410678	-0.415478615071283	0.6797520661157025
1459.991455078125	-0.02713476930162353	-9.688773575407525	-2.095507689945882	-0.3658574360515838	-1.47625308227938	0.3538595471873571	0.1930184804928131	-0.4134419551934826	0.6694214876033058
1463.897705078125	-0.02056558108136884	-9.71998287121631	-1.981147297287706	-0.362243888058331	-1.111769101849907	-0.007495252137915762	0.1930184804928131	-0.4134419551934826	0.6694214876033058
1467.803955078125	-0.02666948466177357	-9.788623133373974	-2.111017177940882	-0.3549052343293763	-1.498267007741017	-0.7413606250333865	0.1930184804928131	-0.4134419551934826	0.6694214876033058
1471.710205078125	0.495886174027496	-9.666330137064444	-1.862872467583198	3.718591414975016e-05	-0.3718219555833518	-0.003718591414975016	0.1930184804928131	-0.415478615071283	0.6694214876033058
1475.616455078125	0.1574207774038852	-9.92243394863941	-1.91402591346284	0.3623554458007803	-0.003696764900147988	-0.003660522107009284	0.1930184804928131	-0.415478615071283	0.6694214876033058
1479.522705078125	0.3667278897133453	-9.754757982326018	-1.890929657111508	0.3587047118933778	0.003641210253730994	0.3614128686332386	0.1930184804928131	-0.415478615071283	0.6694214876033058
1483.428955078125	0.1850555305388391	-9.760165378459108	-2.168517684627968	-0.003650733907402479	0.007337975153878983	0.3650733907402479	0.1930184804928131	-0.415478615071283	0.6694214876033058
1487.335205078125	0.1851004817667568	-9.790150844228748	-2.170016058891892	0.3660805515364823	-0.7546786512207306	-0.3761710956772072	0.1971252566735113	-0.4134419551934826	0.6714876033057852
1491.241455078125	0.02651649276324661	-9.618093000673216	-2.217216425441554	0.3587418978075275	-0.3681807453296208	0.3576942772182636	0.1971252566735113	-0.4134419551934826	0.6714876033057852
1495.147705078125	-0.05564567707195589	-9.827992102253265	-2.145144097601471	-0.7247108916015605	0.007393529800295976	0.007321044214018567	0.1971252566735113	-0.4134419551934826	0.6714876033057852
1499.053955078125	0.2825949634120664	-9.4219609618301	-2.086498780402211	0.003650733907402479	-0.007337975153878983	-0.3650733907402479	0.1991786447638604	-0.4175152749490835	0.6797520661157025
1502.960205078125	0.04542755321003027	-9.81197842446209	-1.847585107001009	-0.3550539779859753	-0.01097918540760998	-0.7264862593734864	0.1991786447638604	-0.4175152749490835	0.6797520661157025
1506.866455078125	0.1992758909215081	-9.702234128602045	-1.975863030716935	-0.3658946219657335	-1.104431126696028	0.3575781386023321	0.1991786447638604	-0.4175152749490835	0.6797520661157025
1510.772705078125	0.01072362802149141	-9.749866026939719	-2.024120934049714	-0.3695825417872857	-0.7252711959587976	0.726370120757555	0.1991786447638604	-0.4175152749490835	0.6797520661157025
1514.678955078125	0.08848373199289297	-9.761390259988964	-1.949457733096432	0.003650733907402479	-0.007337975153878983	-0.3650733907402479	0.1868583162217659	-0.4236252545824847	0.6880165289256198
1518.585205078125	0.2177910651154024	-9.982914222279353	-1.926368837180081	-0.7210229717800084	-0.3717664009369348	-0.3614709379412043	0.1868583162217659	-0.4236252545824847	0.6880165289256198
1522.491455078125	-0.047933781320951	-9.568831922627108	-2.0688739559683	-0.7283244395948133	-0.3570904506291769	0.3686758435392914	0.1868583162217659	-0.4236252545824847	0.6880165289256198
1526.397705078125	0.02696127333422184	-9.84461585495527	-1.565375777807395	3.718591414975016e-05	-0.3718219555833518	-0.003718591414975016	0.1868583162217659	-0.4114052953156823	0.6673553719008265
1530.303955078125	0.04191268263407887	-9.783114899281646	-1.730422754469295	-0.7210229717800084	-0.3717664009369348	-0.3614709379412043	0.1868583162217659	-0.4114052953156823	0.6673553719008265
1534.210205078125	0.2512347786861782	-9.625434088224804	-1.707825956205937	3.718591414975016e-05	-0.3718219555833518	-0.003718591414975016	0.1868583162217659	-0.4114052953156823	0.6673553719008265
1538.116455078125	0.03021589995907072	-9.840230192346567	-2.007196665302357	0.3623182598866305	0.3681251906832038	5.806930796573191e-05	0.1683778234086242	-0.4114052953156823	0.6714876033057852
1542.022705078125	0.01882431246308281	-9.960580138970268	-1.960810415436094	0	0	0	0.1683778234086242	-0.4114052953156823	0.6714876033057852
1545.928955078125	0.03911387723267622	-9.740686513028104	-1.970462574422541	0.365968993794033	0.3607872155293249	-0.3650153214322821	0.1683778234086242	-0.4114052953156823	0.6714876033057852
1549.835205078125	0.1730685364274499	-9.764041173221791	-1.76895121424833	0.003687919821552229	-0.3791599307372308	-0.3687919821552229	0.1683778234086242	-0.4114052953156823	0.6714876033057852
1553.741455078125	0.1549437281602093	-9.5332348612282	-1.831457605340311	0.3623182598866305	0.3681251906832038	5.806930796573191e-05	0.1950718685831622	-0.4114052953156823	0.6652892561983471
1557.647705078125	0.1482838488660856	-9.652054888866632	-1.942794962202852	0.003427618422503978	2.223593758346232	-0.3427618422503977	0.1950718685831622	-0.4114052953156823	0.6652892561983471
1561.553955078125	0.05265681472444503	-10.07297429657243	-1.755227157481501	0.365820250137434	1.848075037862732	-0.3501409557723821	0.1950718685831622	-0.4114052953156823	0.6652892561983471
1565.460205078125	0.1059737027430501	-9.709068502779747	-2.199123424768337	0.373121717952239	1.833399087554974	-1.080287737252878	0.188911704312115	-0.4215885947046843	0.6983471074380165
1569.366455078125	-0.07617419310574347	-9.677962989104191	-2.127526896475219	-0.003762291649851729	1.122803841903934	0.3762291649851729	0.188911704312115	-0.4215885947046843	0.6983471074380165
1573.272705078125	-0.01411626280222802	-9.67123092497272	-1.862791239925733	0.7136099462227541	1.501908217994748	1.102773493666625	0.188911704312115	-0.4215885947046843	0.6983471074380165
1577.178955078125	-0.02008452408084599	-9.619827329452807	-1.997182530638468	0.365820250137434	1.848075037862732	-0.3501409557723821	0.188911704312115	-0.4215885947046843	0.6983471074380165
1581.085205078125	0.09907881527490042	-9.741297849727784	-1.96929384249668	-0.0001115577424492505	1.115465866750055	0.01115577424492505	0.188911704312115	-0.4215885947046843	0.6983471074380165
1584.991455078125	0.05929776718576135	-9.660827055276604	-1.976592239525378	0.7208742281234094	1.859054223270342	0.3763453036011044	0.188911704312115	-0.4215885947046843	0.6983471074380165
1588.897705078125	-0.08379539778287928	-9.787093845283131	-2.206820073904025	0.007189910072355707	1.100789916442297	-0.7189910072355706	0.188911704312115	-0.4215885947046843	0.6983471074380165
1592.803955078125	-0.2026984931875232	-9.698872512797299	-1.910050227082563	-0.0001115577424492505	1.115465866750055	0.01115577424492505	0.2094455852156057	-0.4073319755600814	0.6673553719008265
1596.710205078125	0.03771644607705902	-9.861138349101751	-1.923881535901967	-0.0001115577424492505	1.115465866750055	0.01115577424492505	0.2094455852156057	-0.4073319755600814	0.6673553719008265
1600.616455078125	-0.1439653765138509	-9.719882138406144	-1.867820782871637	-0.3587418978075275	0.3681807453296208	-0.3576942772182636	0.2094455852156057	-0.4073319755600814	0.6673553719008265
1604.522705078125	-0.01120231916791336	-9.720288749864292	-1.959922694402888	-3.718591414975016e-05	0.3718219555833518	0.003718591414975016	0.1745379876796715	-0.4215885947046843	0.6673553719008265
1608.428955078125	0.09503793647050846	-9.782604400541203	-1.834597882350281	-0.3550911639001251	0.3608427701757418	-0.7227676679585114	0.1745379876796715	-0.4215885947046843	0.6673553719008265
1612.335205078125	-0.01477712471442171	-9.651444603657662	-1.840762509519277	-0.3550539779859753	-0.01097918540760998	-0.7264862593734864	0.1745379876796715	-0.4215885947046843	0.6673553719008265
1616.241455078125	0.1106202401972807	-9.720899455669546	-2.02067467324269	0.01095220172220744	-0.02201392546163695	-1.095220172220744	0.1745379876796715	-0.4215885947046843	0.6673553719008265
1620.147705078125	-0.02814104591255331	-9.649098938178392	-2.061965136248223	0.003576362079102979	0.7363059360128246	-0.3576362079102978	0.1704312114989733	-0.4073319755600814	0.6921487603305785
1624.053955078125	0.000609601740006825	-9.6698028954374	-2.020320058000228	0.003539176164953228	1.108127891596177	-0.3539176164953228	0.1704312114989733	-0.4073319755600814	0.6921487603305785
1627.960205078125	-0.08443575562619823	-9.640634227652471	-1.852141479126726	-0.7101823278002501	0.7216855403514836	-1.445535335917023	0.1704312114989733	-0.4073319755600814	0.6921487603305785
1631.866455078125	0.1578269156912119	-9.772302630593176	-1.927563856373729	-0.3587047118933778	-0.003641210253730994	-0.3614128686332386	0.1868583162217659	-0.4236252545824847	0.6735537190082644
1635.772705078125	-0.05919051513318576	-9.77913826655973	-2.026982828893808	-0.01098938763635719	0.3938358810449887	1.098938763635719	0.1868583162217659	-0.4236252545824847	0.6735537190082644
1639.678955078125	-0.1220394293244461	-9.749459415481571	-1.932019022518462	0.007301467814804958	-0.01467595030775797	-0.7301467814804957	0.1868583162217659	-0.4236252545824847	0.6735537190082644
1643.585205078125	0.04918295228624311	-9.790764178760782	-1.972765076208103	-0.7172978660443063	-1.122748287257517	-0.7339815115114022	0.1868583162217659	-0.4236252545824847	0.6735537190082644
1647.491455078125	-0.08660445521871929	-9.808002107187388	-2.113184826042691	0.3587790837216773	-0.7400027009129726	0.3539756858032885	0.1868583162217659	-0.4236252545824847	0.6735537190082644
1651.397705078125	0.06826987455452939	-9.82125940722737	-1.942329151817646	0.3623554458007803	-0.003696764900147988	-0.003660522107009284	0.1868583162217659	-0.4236252545824847	0.6735537190082644
1655.303955078125	0.2983152752947263	-9.943544727654706	-1.943842509824209	-0.003650733907402479	0.007337975153878983	0.3650733907402479	0.1868583162217659	-0.4236252545824847	0.6735537190082644
1659.210205078125	0.2275155140882669	-9.803103317111461	-1.917183802942229	-0.003613547993252729	-0.3644839804294728	0.3613547993252729	0.1868583162217659	-0.4093686354378818	0.6921487603305785
1663.116455078125	0.06597184160449071	-9.762002437881215	-1.865728053483023	0.3550911639001251	-0.3608427701757418	0.7227676679585114	0.1868583162217659	-0.4093686354378818	0.6921487603305785
1667.022705078125	0.1609821764438216	-9.561282429616499	-2.032739214794054	0.3587790837216773	-0.7400027009129726	0.3539756858032885	0.1868583162217659	-0.4093686354378818	0.6921487603305785
1670.928955078125	0.08701217074211323	-9.621866064793384	-1.900405691403774	0.003687919821552229	-0.3791599307372308	-0.3687919821552229	0.188911704312115	-0.405295315682281	0.6714876033057852
1674.835205078125	0.1817512209778706	-9.661233771883822	-2.058374032595686	7.437182829950031e-05	-0.7436439111667036	-0.007437182829950031	0.188911704312115	-0.405295315682281	0.6714876033057852
1678.741455078125	0.2510186973449597	-9.832170621191796	-2.033956578165322	-0.003650733907402479	0.007337975153878983	0.3650733907402479	0.188911704312115	-0.405295315682281	0.6714876033057852
1682.647705078125	0.2610877723985266	-9.882248286924478	-2.036259079950885	0.003650733907402479	-0.007337975153878983	-0.3650733907402479	0.188911704312115	-0.405295315682281	0.6714876033057852
1686.553955078125	0.1675805435313212	-9.822482290924871	-1.919351451044038	-0.36239263171493	0.3755187204834998	0.007379113521984299	0.1786447638603696	-0.4256619144602851	0.6818181818181819
1690.460205078125	0.1501907272714368	-9.871438331515568	-2.00635757571456	0.01091501580805769	0.3498080301217149	-1.091501580805769	0.1786447638603696	-0.4256619144602851	0.6818181818181819
1694.366455078125	-0.0807860313664937	-9.759454150141835	-1.973798954450211	-0.3550167920718256	-0.3828011409909618	-0.7302048507884614	0.1786447638603696	-0.4256619144602851	0.6818181818181819
1698.272705078125	0.0799319580360572	-9.670822000235008	-1.99773193453524	-0.003725105735701979	0.7509818863205826	0.3725105735701979	0.1848049281314169	-0.4195519348268839	0.6756198347107438
1702.178955078125	0.04856704160196713	-9.800963323215363	-1.952234720065571	0.01449137788716067	1.08611396613454	-1.449137788716066	0.1848049281314169	-0.4195519348268839	0.6756198347107438
1706.085205078125	-0.1991836226115717	-9.727736037977742	-2.027212579614276	-0.3550911639001251	0.3608427701757418	-0.7227676679585114	0.1848049281314169	-0.4195519348268839	0.6756198347107438
1709.991455078125	0.3461252435843952	-9.344752837907713	-1.870841452813171	0.3696197277014355	0.3534492403754458	-0.73008871217253	0.1848049281314169	-0.4195519348268839	0.6756198347107438
1713.897705078125	0.02283522378219631	-9.899283277643756	-2.094507459406544	0.365968993794033	0.3607872155293249	-0.3650153214322821	0.1848049281314169	-0.4195519348268839	0.6756198347107438
1717.803955078125	-0.06195383272307443	-9.620031739247128	-1.934872242564186	0	0	0	0.1848049281314169	-0.4195519348268839	0.6756198347107438
1721.710205078125	-0.04330301622739329	-9.780667975246857	-1.889899459086891	-0.3585931541509285	-1.119107077003786	-0.3725686428781636	0.1848049281314169	-0.4195519348268839	0.6756198347107438
1725.616455078125	-0.02067046727984349	-9.650016784420483	-1.977651090671884	0.3660805515364823	-0.7546786512207306	-0.3761710956772072	0.1827515400410678	-0.4134419551934826	0.6900826446280992
1729.522705078125	-0.009970497799361395	-9.699890460955126	-2.000983406687954	0.3625041894573793	-1.490984587233555	-0.01853488776690934	0.1827515400410678	-0.4134419551934826	0.6900826446280992
1733.428955078125	0.1484794261384293	-9.571991652215241	-1.949314204614309	-0.3512545004219738	-1.505604982894896	-1.106434015773634	0.1827515400410678	-0.4134419551934826	0.6900826446280992
1737.335205078125	-0.004197025175053493	-9.621357038139934	-1.86009916083155	-0.362243888058331	-1.111769101849907	-0.007495252137915762	0.1868583162217659	-0.405295315682281	0.7045454545454546
1741.241455078125	0.1602456072003981	-9.701520587005206	-2.008186906679936	0.003687919821552229	-0.3791599307372308	-0.3687919821552229	0.1868583162217659	-0.405295315682281	0.7045454545454546
1745.147705078125	-0.0002318537018913502	-9.74007496603028	-1.992271543270288	0	0	0	0.1868583162217659	-0.405295315682281	0.7045454545454546
1749.053955078125	-0.07770726656314744	-9.918458682855418	-2.076424447895086	-0.3623182598866305	-0.3681251906832038	-5.806930796573191e-05	0.1868583162217659	-0.405295315682281	0.7045454545454546
1752.960205078125	-0.008707920327497311	-9.489482227572557	-2.043069322416757	-0.3586303400650783	-0.7472851214204346	-0.3688500514631886	0.1930184804928131	-0.4114052953156823	0.6776859504132231
1756.866455078125	0.05471589641028957	-9.76230852682734	-1.823863213676319	-0.3586303400650783	-0.7472851214204346	-0.3688500514631886	0.1930184804928131	-0.4114052953156823	0.6776859504132231
1760.772705078125	0.1938084020942541	-9.634001949989525	-1.793613403141802	-0.365968993794033	-0.3607872155293249	0.3650153214322821	0.1930184804928131	-0.4114052953156823	0.6776859504132231
1764.678955078125	0.0869222682862778	-9.561895133254104	-1.897408942875927	0.007264281900655208	0.3571460052755938	-0.7264281900655207	0.1868583162217659	-0.4276985743380855	0.6838842975206612
1768.585205078125	0.07494394897325876	-9.922434789831978	-1.831464965775292	-0.3623182598866305	-0.3681251906832038	-5.806930796573191e-05	0.1868583162217659	-0.4276985743380855	0.6838842975206612
1772.491455078125	-0.007937440508627094	-9.652566439097789	-1.73541864971243	-0.3623554458007803	0.003696764900147988	0.003660522107009284	0.1868583162217659	-0.4276985743380855	0.6838842975206612
1776.397705078125	0.02739343601665876	-9.43114278902128	-1.913114533888626	-0.3586303400650783	-0.7472851214204346	-0.3688500514631886	0.1868583162217659	-0.4276985743380855	0.6838842975206612
1780.303955078125	0.1519690609373041	-9.654196670296939	-1.732302031243469	-0.3658946219657335	-1.104431126696028	0.3575781386023321	0.1868583162217659	-0.4276985743380855	0.6838842975206612
1784.210205078125	-0.1016307832317725	-9.819527286578273	-1.945640558940917	0.0001487436565990006	-1.487287822333407	-0.01487436565990006	0.1868583162217659	-0.4276985743380855	0.6838842975206612
1788.116455078125	0.08399334090932392	-9.502842153105984	-1.799778030310797	-0.3621695162300315	-1.855413013016611	-0.0149324349678658	0.1868583162217659	-0.4276985743380855	0.6838842975206612
1792.022705078125	-0.1329199923346328	-9.789644130854864	-1.902666922178909	-0.3658574360515838	-1.47625308227938	0.3538595471873571	0.1806981519507187	-0.4256619144602851	0.6921487603305785
1795.928955078125	0.1198036971990653	-9.601263471238969	-1.993456573302178	-0.3622067021441813	-1.483591057433259	-0.01121384355289078	0.1806981519507187	-0.4256619144602851	0.6921487603305785
1799.835205078125	0.1966616221399781	-9.853079408841406	-1.888720737999271	-1.08322967392419	-1.855357458370194	-0.3726847814940951	0.1806981519507187	-0.4256619144602851	0.6921487603305785
1803.741455078125	0.08724165858990364	-9.845125197055932	-1.574721952996788	-0.3585559682367788	-1.490929032587138	-0.3762872342931387	0.1868583162217659	-0.4175152749490835	0.6694214876033058
1807.647705078125	0.1859482461529241	-9.373210067077222	-1.864941538430803	0.0001115577424492505	-1.115465866750055	-0.01115577424492505	0.1868583162217659	-0.4175152749490835	0.6694214876033058
1811.553955078125	0.2074420306598919	-9.816260410086636	-1.581401021996397	0.3587790837216773	-0.7400027009129726	0.3539756858032885	0.1868583162217659	-0.4175152749490835	0.6694214876033058
1815.460205078125	0.1643361689409097	-9.763531305375771	-1.811205631363655	-0.3550167920718256	-0.3828011409909618	-0.7302048507884614	0.1868583162217659	-0.4175152749490835	0.6694214876033058
1819.366455078125	0.1452042954447056	-9.703050611139545	-1.840143181490188	-0.358667525979228	-0.3754631658370828	-0.3651314600482136	0.1765913757700205	-0.4297352342158859	0.6818181818181819
1823.272705078125	0.1056779709804336	-9.792497456049659	-1.855932366014453	-0.003687919821552229	0.3791599307372308	0.3687919821552229	0.1765913757700205	-0.4297352342158859	0.6818181818181819
1827.178955078125	0.1076455729743754	-9.841861264738284	-1.921519099145848	0.007264281900655208	0.3571460052755938	-0.7264281900655207	0.1765913757700205	-0.4297352342158859	0.6818181818181819
1831.085205078125	0.005191472515478595	-9.568321423886662	-2.173049083849286	-3.718591414975016e-05	0.3718219555833518	0.003718591414975016	0.1909650924024641	-0.4175152749490835	0.6756198347107438
1834.991455078125	-0.1646752746953766	-9.869911672151506	-1.844157510154114	0.003613547993252729	0.3644839804294728	-0.3613547993252729	0.1909650924024641	-0.4175152749490835	0.6756198347107438
1838.897705078125	0.1089223455708451	-9.851448441598759	-1.964078185694837	0.7282872536806635	0.7289124062125286	-0.3649572521243164	0.1909650924024641	-0.4175152749490835	0.6756198347107438
1842.803955078125	-0.03700826708284671	-9.558632673023455	-2.099724430571777	-3.718591414975016e-05	0.3718219555833518	0.003718591414975016	0.1909650924024641	-0.4175152749490835	0.6756198347107438
1846.710205078125	-0.0854617476879691	-9.517632631752445	-2.151275077067697	0.3622810739724808	0.7399471462665556	0.003776660722940747	0.1909650924024641	-0.4175152749490835	0.6756198347107438
1850.616455078125	-0.1069082151129183	-9.80790032288651	-2.103059496236058	-0.003687919821552229	0.3791599307372308	0.3687919821552229	0.1909650924024641	-0.4175152749490835	0.6756198347107438
1854.522705078125	-0.1124853218468488	-9.596370254063816	-2.250489271771706	-0.3623554458007803	0.003696764900147988	0.003660522107009284	0.1909650924024641	-0.4175152749490835	0.6756198347107438
1858.428955078125	0.00116557745372586	-9.619623129956629	-2.038852581790862	0	0	0	0.1971252566735113	-0.4175152749490835	0.6632231404958678
1862.335205078125	0.008560448755205853	-9.780565454902483	-1.952014958506862	-0.3623182598866305	-0.3681251906832038	-5.806930796573191e-05	0.1971252566735113	-0.4175152749490835	0.6632231404958678
1866.241455078125	0.05598793729855737	-9.698563900273466	-2.199597909951913	-0.3549424202435261	-1.126445052157665	-0.7376420336184115	0.1971252566735113	-0.4175152749490835	0.6632231404958678
1870.147705078125	-0.1810130744983798	-9.778527560754476	-1.966230850054007	-0.3622810739724808	-0.7399471462665556	-0.003776660722940747	0.1765913757700205	-0.4317718940936863	0.6735537190082644
1874.053955078125	0.1871043601902462	-9.51283625687182	-1.903478673008207	0.3660433656223325	-0.3828566956373787	-0.3724525042622321	0.1765913757700205	-0.4317718940936863	0.6735537190082644
1877.960205078125	0.2270202619631384	-9.683263448631919	-1.90067539877128	0.007338653728954708	-0.3864979058911098	-0.7338653728954707	0.1765913757700205	-0.4317718940936863	0.6735537190082644
1881.866455078125	0.1753665693774886	-9.823298142567944	-1.845552312582953	-0.7137215039652034	-0.3864423512446928	-1.0916177194217	0.1765913757700205	-0.4317718940936863	0.6735537190082644
1885.772705078125	0.1103347604691016	-9.740991760781657	-2.011158682303385	-0.0001115577424492505	1.115465866750055	0.01115577424492505	0.1745379876796715	-0.4093686354378818	0.6756198347107438
1889.678955078125	0.1176547130573854	-9.851958309444777	-1.921823768579512	0.007152724158205957	1.472611872025649	-0.7152724158205956	0.1745379876796715	-0.4093686354378818	0.6756198347107438
1893.585205078125	-0.1761015613848448	-9.896939504847767	-2.129947953838506	-0.3550911639001251	0.3608427701757418	-0.7227676679585114	0.1745379876796715	-0.4093686354378818	0.6756198347107438
1897.491455078125	-0.2400466546428704	-9.767615085001196	-1.998444845237654	0.007264281900655208	0.3571460052755938	-0.7264281900655207	0.1663244353182751	-0.4256619144602851	0.6880165289256198
1901.397705078125	0.1162572819017682	-9.972410145518428	-1.875242730058939	-0.3587790837216773	0.7400027009129726	-0.3539756858032885	0.1663244353182751	-0.4256619144602851	0.6880165289256198
1905.303955078125	-0.144357319676572	-10.09000886669543	-1.854756010780934	-0.7210601576941581	5.555464641699391e-05	-0.3577523465262293	0.1663244353182751	-0.4256619144602851	0.6880165289256198
1909.210205078125	0.1040061007491083	-9.659704694091122	-2.133536691636942	-0.3549424202435261	-1.126445052157665	-0.7376420336184115	0.1663244353182751	-0.4256619144602851	0.6880165289256198
1913.116455078125	-0.1189306970358214	-9.92845425870825	-2.035643432139287	-0.7172234942160068	-1.866392198424221	-0.7414186943413522	0.1663244353182751	-0.4256619144602851	0.6880165289256198
1917.022705078125	-0.01861296283006623	-9.759351524648389	-2.046234572331126	-0.3658574360515838	-1.47625308227938	0.3538595471873571	0.1663244353182751	-0.4256619144602851	0.6880165289256198
1920.928955078125	-0.04166584518954831	-9.820138623277954	-1.944471827015057	-0.3621323303158818	-2.227234968599963	-0.01865102638284081	0.1663244353182751	-0.4256619144602851	0.6880165289256198
1924.835205078125	0.292022103386247	-9.745579519905114	-1.734070112874899	-0.7207998562951099	-2.602698134437046	-0.3837824864310544	0.1868583162217659	-0.4012219959266802	0.6776859504132231
1928.741455078125	0.3188895311744652	-9.913559051586924	-1.962984372482173	-0.7281756959382143	-1.844378272962584	0.3538014778793914	0.1868583162217659	-0.4012219959266802	0.6776859504132231
1932.647705078125	0.3484366830410058	-9.834005472483408	-1.947889434700192	-0.3584815964084793	-2.234572943753842	-0.3837244171230887	0.1868583162217659	-0.4012219959266802	0.6776859504132231
1936.553955078125	0.1809555053819238	-9.551491053259845	-2.031850179397459	0.00383666347815123	-1.866447753070638	-0.3836663478151229	0.1848049281314169	-0.4134419551934826	0.6735537190082644
1940.460205078125	-0.02028010135318969	-9.6998905661042	-1.990663288227011	0.003725105735701979	-0.7509818863205826	-0.3725105735701979	0.1848049281314169	-0.4134419551934826	0.6735537190082644
1944.366455078125	0.2505542013231434	-9.522320808238851	-2.018473377438111	-0.7172978660443063	-1.122748287257517	-0.7339815115114022	0.1848049281314169	-0.4134419551934826	0.6735537190082644
1948.272705078125	0.1698391455796776	-9.715085342929237	-1.661304852655921	-0.717335051958456	-0.7509263316741656	-0.7302629200964272	0.1848049281314169	-0.4134419551934826	0.6735537190082644
1952.178955078125	0.1115263623179377	-9.763939809517201	-1.717545410597922	0.3623554458007803	-0.003696764900147988	-0.003660522107009284	0.1806981519507187	-0.4236252545824847	0.6714876033057852
1956.085205078125	0.09754653043553008	-9.771793288492512	-1.918217681184336	-0.358667525979228	-0.3754631658370828	-0.3651314600482136	0.1806981519507187	-0.4236252545824847	0.6714876033057852
1959.991455078125	-0.07006950090730507	-9.399322471960028	-1.997683303089832	-0.3550167920718256	-0.3828011409909618	-0.7302048507884614	0.1806981519507187	-0.4236252545824847	0.6714876033057852
1963.897705078125	0.2195851711419426	-9.565667461330774	-1.652839038064752	-0.3514404299927226	0.3535047950218628	-1.087841058698759	0.188911704312115	-0.4114052953156823	0.6880165289256198
1967.803955078125	-0.06875960635342233	-9.92223227272094	-1.708013121552589	-0.3551283498142748	0.7326647257590937	-0.7190490765435364	0.188911704312115	-0.4114052953156823	0.6880165289256198
1971.710205078125	0.351506773045982	-9.636346143381799	-1.716892434866065	0.007152724158205957	1.472611872025649	-0.7152724158205956	0.188911704312115	-0.4114052953156823	0.6880165289256198
1975.616455078125	0.1070296622900995	-9.852060409192866	-1.900988743003315	0.3657830642232843	2.219896993446084	-0.346422364357407	0.1930184804928131	-0.4276985743380855	0.6838842975206612
1979.522705078125	0.03755083628999378	-9.961191896266236	-1.918361209666459	0.362243888058331	1.111769101849907	0.007495252137915762	0.1930184804928131	-0.4276985743380855	0.6838842975206612
1983.428955078125	-0.1151595255989357	-9.70723491327699	-2.161349146702144	0.7245993338591113	1.108072336949759	0.003834730030906479	0.1930184804928131	-0.4276985743380855	0.6838842975206612
1987.335205078125	-0.1615949326559631	-9.608915694892094	-1.946835578134566	-0.3514032440785728	-0.01831716056148896	-1.091559650113734	0.1930184804928131	-0.4276985743380855	0.6838842975206612
1991.241455078125	-0.2589687557421251	-9.84706656435662	-2.034374808595831	0.3696197277014355	0.3534492403754458	-0.73008871217253	0.188911704312115	-0.4236252545824847	0.6900826446280992
1995.147705078125	0.033595916851269	-9.779137320218089	-2.1198638950423	0.3660061797081828	-0.01103474005402697	-0.3687339128472572	0.188911704312115	-0.4236252545824847	0.6900826446280992
1999.053955078125	-0.2604261218682992	-9.927537779404084	-1.98579593772336	0.365968993794033	0.3607872155293249	-0.3650153214322821	0.188911704312115	-0.4236252545824847	0.6900826446280992
2002.960205078125	0.005130748926888003	-9.738341057846974	-2.1710249642296	-3.718591414975016e-05	0.3718219555833518	0.003718591414975016	0.1950718685831622	-0.4195519348268839	0.6880165289256198
2006.866455078125	-0.156652663439116	-9.53731769451198	-2.111577885362802	0.365968993794033	0.3607872155293249	-0.3650153214322821	0.1950718685831622	-0.4195519348268839	0.6880165289256198
2010.772705078125	0.06013922262765951	-9.590554984683724	-2.004640754255317	0.3622810739724808	0.7399471462665556	0.003776660722940747	0.1950718685831622	-0.4195519348268839	0.6880165289256198
2014.678955078125	0.006278188165840053	-9.52130338582638	-1.875939605528002	0.362243888058331	1.111769101849907	0.007495252137915762	0.1950718685831622	-0.4195519348268839	0.6880165289256198
2018.585205078125	-0.1401650262097204	-9.728653358474476	-1.994499126342655	0.358667525979228	0.3754631658370828	0.3651314600482136	0.1806981519507187	-0.4276985743380855	0.6673553719008265
2022.491455078125	-0.1709589831874522	-9.818610071230609	-1.968033893751595	-0.01456574971546017	-0.3424700549678359	1.456574971546016	0.1806981519507187	-0.4276985743380855	0.6673553719008265
2026.397705078125	0.008125131600634354	-9.70070620744913	-1.937504386687812	0.7247108916015605	-0.007393529800295976	-0.007321044214018567	0.1806981519507187	-0.4276985743380855	0.6673553719008265
2030.303955078125	0.1140806961289107	-9.573113908251651	-1.802689870963688	0.358667525979228	0.3754631658370828	0.3651314600482136	0.1991786447638604	-0.4093686354378818	0.6838842975206612
2034.210205078125	0.04850789524944382	-9.55098244720268	-1.950263174981461	-0.003687919821552229	0.3791599307372308	0.3687919821552229	0.1991786447638604	-0.4093686354378818	0.6838842975206612
2038.116455078125	-0.08969347205650292	-9.712334222631602	-1.676884264783236	0	0	0	0.1991786447638604	-0.4093686354378818	0.6838842975206612
2042.022705078125	0.01628653963081635	-9.74140068551937	-1.876217987693878	-1.076039763851834	-0.7545675419278965	-1.091675788729666	0.1848049281314169	-0.415478615071283	0.6735537190082644
2045.928955078125	-0.02305919130375123	-9.740789138521547	-1.898026956541626	-0.3586303400650783	-0.7472851214204346	-0.3688500514631886	0.1848049281314169	-0.415478615071283	0.6735537190082644
2049.835205078125	-0.0953163186363848	-9.680818943025765	-1.822789378787174	0.007375839643104458	-0.7583198614744615	-0.7375839643104457	0.1848049281314169	-0.415478615071283	0.6735537190082644
2053.741455078125	0.3603542787654343	-9.643485449865842	-2.011809292181141	-0.3513288722502733	-0.7619610717281925	-1.098996832943684	0.1848049281314169	-0.415478615071283	0.6735537190082644
2057.647705078125	-0.1331013744823709	-10.0897027777493	-1.896620850587639	0	0	0	0.1950718685831622	-0.4215885947046843	0.6983471074380165
2061.553955078125	-0.145287888956272	-9.890309750762526	-1.823737034790936	0.7246737056874109	0.3644284257830558	-0.003602452799043552	0.1950718685831622	-0.4215885947046843	0.6983471074380165
2065.460205078125	0.02767812712680425	-9.621050738895667	-1.922604237560142	-3.718591414975016e-05	0.3718219555833518	0.003718591414975016	0.1950718685831622	-0.4215885947046843	0.6983471074380165
2069.366455078125	-0.1202058923962238	-9.498866571874778	-1.993136920125874	0.3623182598866305	0.3681251906832038	5.806930796573191e-05	0.1827515400410678	-0.4175152749490835	0.6818181818181819
2073.272705078125	-0.2536306002723887	-9.688673894088073	-1.878979990920378	0.3586303400650783	0.7472851214204346	0.3688500514631886	0.1827515400410678	-0.4175152749490835	0.6818181818181819
2077.178955078125	-0.1044832146594629	-9.390449572739893	-1.850559511351237	0.3696197277014355	0.3534492403754458	-0.73008871217253	0.1827515400410678	-0.4175152749490835	0.6818181818181819
2081.085205078125	-0.08563760950947173	-9.681022827074729	-1.81207968301761	-0.3585559682367788	-1.490929032587138	-0.3762872342931387	0.1827515400410678	-0.4175152749490835	0.6818181818181819
2084.991455078125	0.05749419774281746	-9.931410209396489	-1.916473258093915	-0.724636519773261	-0.7362503813664076	-0.0001161386159314638	0.1848049281314169	-0.4114052953156823	0.6797520661157025
2088.897705078125	-0.08255805608809183	-9.630027104801817	-1.914731463730274	0.3587047118933778	0.003641210253730994	0.3614128686332386	0.1848049281314169	-0.4114052953156823	0.6797520661157025
2092.803955078125	0.05250776591608631	-9.763022489020466	-1.750258863869544	-0.358667525979228	-0.3754631658370828	-0.3651314600482136	0.1848049281314169	-0.4114052953156823	0.6797520661157025
2096.710205078125	0.1628448922392888	-9.540680151509298	-2.094829741309626	-0.3622810739724808	-0.7399471462665556	-0.003776660722940747	0.1848049281314169	-0.4175152749490835	0.6818181818181819
2100.616455078125	0.05399431090950529	-9.912541839472594	-1.799810363650176	-0.3549796061576758	-0.7546230965743135	-0.7339234422034364	0.1848049281314169	-0.4175152749490835	0.6818181818181819
2104.522705078125	0.01475504340947965	-9.561895869297603	-1.825168113649322	-1.083378417580789	-0.3680696360367868	-0.357810415834195	0.1848049281314169	-0.4175152749490835	0.6818181818181819
2108.428955078125	0.1082622722766851	-9.621661865297204	-1.942075742556169	0.3660061797081828	-0.01103474005402697	-0.3687339128472572	0.1848049281314169	-0.4175152749490835	0.6818181818181819
2112.335205078125	0.04494334173737284	-9.418801652838251	-2.164778057912428	-0.7209857858658586	-0.7435883565202867	-0.3651895293561793	0.1848049281314169	-0.4175152749490835	0.6818181818181819
2116.241455078125	0.1724975769710916	-9.804225783446014	-1.749919232369721	-0.358667525979228	-0.3754631658370828	-0.3651314600482136	0.1848049281314169	-0.4175152749490835	0.6818181818181819
2120.147705078125	0.1512924266644375	-9.834415448711832	-1.70974755548125	-0.3549796061576758	-0.7546230965743135	-0.7339234422034364	0.1848049281314169	-0.4175152749490835	0.6818181818181819
2124.053955078125	-0.1201175671764557	-9.978838013387055	-1.996081094118145	-0.3587047118933778	-0.003641210253730994	-0.3614128686332386	0.1868583162217659	-0.4236252545824847	0.6880165289256198
2127.960205078125	-0.1040983690590447	-9.576991805995757	-2.196721031365179	-0.3587047118933778	-0.003641210253730994	-0.3614128686332386	0.1868583162217659	-0.4236252545824847	0.6880165289256198
2131.866455078125	0.1190071929850849	-9.701521007601491	-1.966906432836162	0.007301467814804958	-0.01467595030775797	-0.7301467814804957	0.1868583162217659	-0.4236252545824847	0.6880165289256198
2135.772705078125	0.06496556499356093	-9.722327800652083	-1.832185499785364	0.003613547993252729	0.3644839804294728	-0.3613547993252729	0.1971252566735113	-0.4215885947046843	0.6942148760330579
2139.678955078125	0.006923277717360863	-9.741094806871388	-1.897442590578696	0.3660061797081828	-0.01103474005402697	-0.3687339128472572	0.1971252566735113	-0.4215885947046843	0.6942148760330579
2143.585205078125	0.009987847396101538	-9.680103929341927	-1.999594913203385	-0.358667525979228	-0.3754631658370828	-0.3651314600482136	0.1971252566735113	-0.4215885947046843	0.6942148760330579
2147.491455078125	-0.0822583812353071	-9.829930209932749	-1.924720625489765	3.718591414975016e-05	-0.3718219555833518	-0.003718591414975016	0.1971252566735113	-0.4215885947046843	0.6942148760330579
2151.397705078125	-0.08359508880233371	-9.780362412046088	-1.880163706588877	-0.36239263171493	0.3755187204834998	0.007379113521984299	0.1971252566735113	-0.4215885947046843	0.6942148760330579
2155.303955078125	-0.05535467701754124	-9.671231345569007	-1.821510766081959	3.718591414975016e-05	-0.3718219555833518	-0.003718591414975016	0.1971252566735113	-0.4215885947046843	0.6942148760330579
2159.210205078125	0.4397066025467631	-9.664494865176547	-1.990220084892103	-0.7209857858658586	-0.7435883565202867	-0.3651895293561793	0.1971252566735113	-0.4215885947046843	0.6942148760330579
2163.116455078125	0.01254060397100723	-9.909278538049376	-2.084686799033575	-1.083304045752489	-1.11171354720349	-0.3652475986641451	0.1765913757700205	-0.4134419551934826	0.6962809917355373
2167.022705078125	-0.09395437529228159	-9.67704524801117	-2.201520823590615	-0.724636519773261	-0.7362503813664076	-0.0001161386159314638	0.1765913757700205	-0.4134419551934826	0.6962809917355373
2170.928955078125	-0.04967741579333792	-9.87939569777318	-2.010752806888736	-0.3659318078798833	-0.7326091711126765	0.3612967300173071	0.1765913757700205	-0.4134419551934826	0.6962809917355373
2174.835205078125	0.1634600143055311	-9.740481262041213	-2.115333810184371	-0.362243888058331	-1.111769101849907	-0.007495252137915762	0.1909650924024641	-0.4012219959266802	0.6694214876033058
2178.741455078125	-0.06657119131006019	-9.838191351856921	-2.114293622997995	-0.01087782989390794	-0.7216299857050666	1.087782989390794	0.1909650924024641	-0.4012219959266802	0.6694214876033058
2182.647705078125	0.04392129276577019	-9.579132115339068	-2.130709758859006	3.718591414975016e-05	-0.3718219555833518	-0.003718591414975016	0.1909650924024641	-0.4012219959266802	0.6694214876033058
2186.553955078125	-0.1788498952320942	-9.74782813279171	-2.038336825596859	-0.3622810739724808	-0.7399471462665556	-0.003776660722940747	0.1909650924024641	-0.4012219959266802	0.6694214876033058
2190.460205078125	0.05125701771472689	-9.490093564272238	-2.041900590490896	3.718591414975016e-05	-0.3718219555833518	-0.003718591414975016	0.2012320328542095	-0.4175152749490835	0.6632231404958678
2194.366455078125	-0.1117156306460123	-9.969454720575543	-1.942812311799592	3.718591414975016e-05	-0.3718219555833518	-0.003718591414975016	0.2012320328542095	-0.4175152749490835	0.6632231404958678
2198.272705078125	-0.02683351721277152	-9.468676170565463	-2.10554942624095	-1.075965392023534	-1.4982114530946	-1.099112971559616	0.2012320328542095	-0.4175152749490835	0.6632231404958678
2202.178955078125	0.1132084845837004	-9.833395923317937	-1.773616152790012	-0.7135727603086044	-1.8737301735781	-1.1064920850816	0.1683778234086242	-0.4175152749490835	0.6818181818181819
2206.085205078125	0.009282034255990132	-9.630332142257231	-1.976067808533005	-0.3549052343293763	-1.498267007741017	-0.7413606250333865	0.1683778234086242	-0.4175152749490835	0.6818181818181819
2209.991455078125	0.1011978319313019	-9.470612701008879	-2.039927731043397	-0.3585559682367788	-1.490929032587138	-0.3762872342931387	0.1683778234086242	-0.4175152749490835	0.6818181818181819
2213.897705078125	0.1018176857057461	-9.743745614955142	-1.727256190191537	0.00379947756400148	-1.494625797487286	-0.3799477564001479	0.1683778234086242	-0.4175152749490835	0.6818181818181819
2217.803955078125	0.03212356698245561	-9.849613380009005	-2.070785566081854	0.007413025557254208	-1.130141817057813	-0.7413025557254208	0.1683778234086242	-0.4175152749490835	0.6818181818181819
2221.710205078125	0.447117246208916	-9.625432090392449	-1.903908206963865	0.3587047118933778	0.003641210253730994	0.3614128686332386	0.1683778234086242	-0.4175152749490835	0.6818181818181819
2225.616455078125	0.1202532094782424	-9.901118128935368	-2.008440315941414	0.3587047118933778	0.003641210253730994	0.3614128686332386	0.1683778234086242	-0.4175152749490835	0.6818181818181819
2229.522705078125	0.06121962933375182	-9.890205653182086	-2.040654311125061	0.7174094237867555	0.007282420507461989	0.7228257372664771	0.2053388090349076	-0.4114052953156823	0.6735537190082644
2233.428955078125	-0.1191704369180492	-9.768531774603504	-2.027652102731694	0.3587047118933778	0.003641210253730994	0.3614128686332386	0.2053388090349076	-0.4114052953156823	0.6735537190082644
2237.335205078125	-0.0686744356057888	-9.908871400845872	-2.044185479807041	7.437182829950031e-05	-0.7436439111667036	-0.007437182829950031	0.2053388090349076	-0.4114052953156823	0.6735537190082644
2241.241455078125	0.116078265608131	-9.64246802745337	-1.869275520271032	0.358816269635827	-1.111824656496325	0.3502570943883135	0.1909650924024641	-0.405295315682281	0.6756198347107438
2245.147705078125	0.1012270107985467	-9.700603266508471	-2.040900359951558	-0.003539176164953228	-1.108127891596177	0.3539176164953228	0.1909650924024641	-0.405295315682281	0.6756198347107438
2249.053955078125	-0.01317070977988884	-9.880925196162165	-1.894309674003706	0.3587790837216773	-0.7400027009129726	0.3539756858032885	0.1909650924024641	-0.405295315682281	0.6756198347107438
2252.960205078125	0.1812551802347085	-9.751394158390777	-2.04183934115695	-0.3585931541509285	-1.119107077003786	-0.3725686428781636	0.1909650924024641	-0.405295315682281	0.6756198347107438
2256.866455078125	-0.1383330665175653	-9.898061024840679	-2.05556444941449	-0.7172978660443063	-1.122748287257517	-0.7339815115114022	0.1909650924024641	-0.405295315682281	0.6756198347107438
2260.772705078125	-0.01437177504512868	-9.711313540597924	-1.854274165162378	-0.3622810739724808	-0.7399471462665556	-0.003776660722940747	0.1909650924024641	-0.405295315682281	0.6756198347107438
2264.678955078125	0.01900569461082094	-9.660521492075835	-1.966856487027365	7.437182829950031e-05	-0.7436439111667036	-0.007437182829950031	0.1909650924024641	-0.405295315682281	0.6756198347107438
2268.585205078125	0.1252412185410409	-9.649505339338397	-2.174707284701362	-0.3586303400650783	-0.7472851214204346	-0.3688500514631886	0.1806981519507187	-0.4093686354378818	0.6818181818181819
2272.491455078125	-0.07511744494066047	-9.610954640530814	-1.829418501977985	0.7283988114231127	-0.3865534605375267	-0.3761130263692414	0.1806981519507187	-0.4093686354378818	0.6818181818181819
2276.397705078125	0.1852810752964612	-9.700092452320812	-2.176035843215375	-0.3623182598866305	-0.3681251906832038	-5.806930796573191e-05	0.1806981519507187	-0.4093686354378818	0.6818181818181819
2280.303955078125	-0.1807275947702007	-9.758435255642366	-1.975746840993312	0.003650733907402479	-0.007337975153878983	-0.3650733907402479	0.1806981519507187	-0.4093686354378818	0.6818181818181819
2284.210205078125	0.009207115542793956	-9.580356365974497	-1.973570518093132	0.3660061797081828	-0.01103474005402697	-0.3687339128472572	0.1806981519507187	-0.4093686354378818	0.6818181818181819
2288.116455078125	-0.007687448591961948	-9.749152275044734	-2.077085046934602	-0.7174094237867555	-0.007282420507461989	-0.7228257372664771	0.1806981519507187	-0.4093686354378818	0.6818181818181819
2292.022705078125	0.0237271507782477	-9.722328221248366	-1.79090502594159	-0.7173722378726058	-0.3791043760908138	-0.7265443286814521	0.1806981519507187	-0.4093686354378818	0.6818181818181819
2295.928955078125	0.007554960762309727	-9.530890562686855	-1.918498692076991	0.3623554458007803	-0.003696764900147988	-0.003660522107009284	0.1930184804928131	-0.4114052953156823	0.6694214876033058
2299.835205078125	0.07130447674799159	-9.740278219184818	-2.043482558266386	-0.3550167920718256	-0.3828011409909618	-0.7302048507884614	0.1930184804928131	-0.4114052953156823	0.6694214876033058
2303.741455078125	0.06787872000984195	-9.981385880530151	-1.929290666994732	-0.3549796061576758	-0.7546230965743135	-0.7339234422034364	0.1930184804928131	-0.4114052953156823	0.6694214876033058
2307.647705078125	0.2021149158426266	-9.701316177210884	-2.070497194754218	0.3660061797081828	-0.01103474005402697	-0.3687339128472572	0.1848049281314169	-0.4215885947046843	0.6652892561983471
2311.553955078125	0.1609821764438216	-9.561282429616499	-2.032739214794054	0.007301467814804958	-0.01467595030775797	-0.7301467814804957	0.1848049281314169	-0.4215885947046843	0.6652892561983471
2315.460205078125	-0.1471206372664607	-9.930902339382822	-1.762645424451312	-0.3550539779859753	-0.01097918540760998	-0.7264862593734864	0.1848049281314169	-0.4215885947046843	0.6652892561983471
2319.366455078125	0.04112643045453577	-9.820035787486367	-2.037547681817859	-0.3513660581644231	-0.3901391161448408	-1.095278241528709	0.1848049281314169	-0.4215885947046843	0.6652892561983471
2323.272705078125	0.08879917920635058	-9.761288265389947	-1.959972640211686	-7.437182829950031e-05	0.7436439111667036	0.007437182829950031	0.1868583162217659	-0.4073319755600814	0.6880165289256198
2327.178955078125	0.006697732959738674	-9.801167733009686	-1.889924431991289	0.3622810739724808	0.7399471462665556	0.003776660722940747	0.1868583162217659	-0.4073319755600814	0.6880165289256198
2331.085205078125	-0.3319316962148701	-9.737324581776143	-1.935610126170999	-0.7174094237867555	-0.007282420507461989	-0.7228257372664771	0.1868583162217659	-0.4073319755600814	0.6880165289256198
2334.991455078125	-0.07322555027794846	-9.820342927923203	-1.892481657401719	0.3623182598866305	0.3681251906832038	5.806930796573191e-05	0.1806981519507187	-0.405295315682281	0.6735537190082644
2338.897705078125	-0.08269290977184496	-9.540070707492896	-1.910236340938503	3.718591414975016e-05	-0.3718219555833518	-0.003718591414975016	0.1806981519507187	-0.405295315682281	0.6735537190082644
2342.803955078125	-0.1276930320076402	-9.907954080349137	-2.076898933078662	-0.003650733907402479	0.007337975153878983	0.3650733907402479	0.1806981519507187	-0.405295315682281	0.6735537190082644
2346.710205078125	-0.05262132691293107	-9.810347562368516	-1.912622436235632	-0.003613547993252729	-0.3644839804294728	0.3613547993252729	0.1806981519507187	-0.405295315682281	0.6735537190082644
2350.616455078125	0.03190433116910257	-9.563017599588658	-1.730144372303419	-0.003650733907402479	0.007337975153878983	0.3650733907402479	0.1806981519507187	-0.405295315682281	0.6735537190082644
2354.522705078125	-0.005083431844869375	-9.661643642963176	-1.830552271837688	0.3587790837216773	-0.7400027009129726	0.3539756858032885	0.1806981519507187	-0.405295315682281	0.6735537190082644
2358.428955078125	-0.02469557372356258	-9.491318235503954	-1.843480875881248	-0.3549796061576758	-0.7546230965743135	-0.7339234422034364	0.1806981519507187	-0.405295315682281	0.6735537190082644
2362.335205078125	-0.01948359713920923	-9.59963302974168	-2.017213428693026	0.003725105735701979	-0.7509818863205826	-0.3725105735701979	0.1704312114989733	-0.4032586558044806	0.6735537190082644
2366.241455078125	-0.002169488210554711	-9.710701467854745	-1.927683726314843	0.003725105735701979	-0.7509818863205826	-0.3725105735701979	0.1704312114989733	-0.4032586558044806	0.6735537190082644
2370.147705078125	0.03922034066721817	-9.390652089850935	-1.974011355573939	0.007301467814804958	-0.01467595030775797	-0.7301467814804957	0.1704312114989733	-0.4032586558044806	0.6735537190082644
2374.053955078125	0.05138161936404265	-9.643386609738959	-1.712720645468088	0.003650733907402479	-0.007337975153878983	-0.3650733907402479	0.1642710472279261	-0.4195519348268839	0.6859504132231405
2377.960205078125	0.2107565922552977	-9.85185536850412	-2.025219741843258	-0.3549424202435261	-1.126445052157665	-0.7376420336184115	0.1642710472279261	-0.4195519348268839	0.6859504132231405
2381.866455078125	0.09990528697415936	-9.661030623878355	-1.996842899138645	7.437182829950031e-05	-0.7436439111667036	-0.007437182829950031	0.1642710472279261	-0.4195519348268839	0.6859504132231405
2385.772705078125	0.339284770760567	-9.553631257454084	-1.97615902535223	0.003725105735701979	-0.7509818863205826	-0.3725105735701979	0.1642710472279261	-0.4195519348268839	0.6859504132231405
2389.678955078125	0.3019657881724645	-9.852364395157569	-2.065526272415482	-3.718591414975016e-05	0.3718219555833518	0.003718591414975016	0.1765913757700205	-0.4012219959266802	0.6735537190082644
2393.585205078125	0.05283346516398129	-9.699583846263646	-2.094448838799376	-0.3550911639001251	0.3608427701757418	-0.7227676679585114	0.1765913757700205	-0.4012219959266802	0.6735537190082644
2397.491455078125	0.02303080105454003	-9.819220040992365	-2.101026701818001	0.007264281900655208	0.3571460052755938	-0.7264281900655207	0.1765913757700205	-0.4012219959266802	0.6735537190082644
2401.397705078125	0.056744221992822	-9.641652701555653	-1.8914740664274	0.3658574360515838	1.47625308227938	-0.3538595471873571	0.1991786447638604	-0.405295315682281	0.6508264462809917
2405.303955078125	0.00309848025418735	-9.575664824717812	-2.436616008472912	-0.358816269635827	1.111824656496325	-0.3502570943883135	0.1991786447638604	-0.405295315682281	0.6508264462809917
2409.210205078125	-0.04822004966716378	-9.798924482725717	-2.059331677761208	0.362243888058331	1.111769101849907	0.007495252137915762	0.1991786447638604	-0.405295315682281	0.6508264462809917
2413.116455078125	0.07106394824773016	-9.790355990066567	-2.035464941591005	0.362243888058331	1.111769101849907	0.007495252137915762	0.1991786447638604	-0.405295315682281	0.6508264462809917
2417.022705078125	-0.05943104363344719	-9.829216037441482	-2.018965212218427	-0.3551283498142748	0.7326647257590937	-0.7190490765435364	0.1991786447638604	-0.405295315682281	0.6508264462809917
2420.928955078125	0.007989489298847579	-9.820750065126706	-1.932982976628253	-0.36239263171493	0.3755187204834998	0.007379113521984299	0.1991786447638604	-0.405295315682281	0.6508264462809917
2424.835205078125	0.1490196294914754	-9.721816986464423	-1.967320983049181	0.003576362079102979	0.7363059360128246	-0.3576362079102978	0.1991786447638604	-0.405295315682281	0.6508264462809917
2428.741455078125	0.2702964651773878	-9.709270809592645	-2.343215505912926	-0.3660805515364823	0.7546786512207306	0.3761710956772072	0.1868583162217659	-0.4195519348268839	0.6714876033057852
2432.647705078125	-0.3712474596641592	-9.756703345291411	-1.958418011194696	-3.718591414975016e-05	0.3718219555833518	0.003718591414975016	0.1868583162217659	-0.4195519348268839	0.6714876033057852
2436.553955078125	-0.04079363364433802	-9.559856608211669	-1.973545545188733	0.3550539779859753	0.01097918540760998	0.7264862593734864	0.1868583162217659	-0.4195519348268839	0.6714876033057852
2440.460205078125	-0.1017340921941799	-9.329560689809451	-1.942196926860672	0.3587047118933778	0.003641210253730994	0.3614128686332386	0.1806981519507187	-0.4195519348268839	0.6921487603305785
2444.366455078125	0.2783884748206091	-9.563321059808004	-1.946282494020304	0.72478526342986	-0.7510374409669995	-0.0147582270439686	0.1806981519507187	-0.4195519348268839	0.6921487603305785
2448.272705078125	-0.1190355832342961	-9.858488171912423	-2.032147225523465	0	0	0	0.1806981519507187	-0.4195519348268839	0.6921487603305785
2452.178955078125	0.1660127708804368	-9.969655870748658	-2.200425696014561	0.003725105735701979	-0.7509818863205826	-0.3725105735701979	0.1806981519507187	-0.4195519348268839	0.6921487603305785
2456.085205078125	-0.07893829931366575	-9.728856716778086	-2.035390022877809	-0.3549796061576758	-0.7546230965743135	-0.7339234422034364	0.1806981519507187	-0.4114052953156823	0.6756198347107438
2459.991455078125	0.01237657142000928	-9.589331575240864	-2.079219047333643	-0.3550167920718256	-0.3828011409909618	-0.7302048507884614	0.1806981519507187	-0.4114052953156823	0.6756198347107438
2463.897705078125	0.1191270629261988	-9.781482249653862	-1.970902097539958	-0.7174094237867555	-0.007282420507461989	-0.7228257372664771	0.1806981519507187	-0.4114052953156823	0.6756198347107438
2467.803955078125	-0.1593079403583954	-9.941509567382548	-1.689735321386822	-0.3550911639001251	0.3608427701757418	-0.7227676679585114	0.1909650924024641	-0.415478615071283	0.6776859504132231
2471.710205078125	0.3254445242701144	-9.724772937152663	-1.84815080900381	-0.3514404299927226	0.3535047950218628	-1.087841058698759	0.1909650924024641	-0.415478615071283	0.6776859504132231
2475.616455078125	-0.01476214097178247	-9.661439758914209	-1.841261967607251	-0.3550911639001251	0.3608427701757418	-0.7227676679585114	0.1909650924024641	-0.415478615071283	0.6776859504132231
2479.522705078125	-0.03694360040408789	-9.67194509746399	-1.768546653197071	0.003650733907402479	-0.007337975153878983	-0.3650733907402479	0.1909650924024641	-0.415478615071283	0.6776859504132231
2483.428955078125	-0.107473654243041	-9.711416481538583	-1.750878191898632	0	0	0	0.1909650924024641	-0.415478615071283	0.6776859504132231
2487.335205078125	-0.04740383000234221	-9.78199390503409	-1.753205666588593	-0.358667525979228	-0.3754631658370828	-0.3651314600482136	0.1909650924024641	-0.415478615071283	0.6776859504132231
2491.241455078125	-0.1441309863009162	-9.819935685570629	-1.862300456636129	-0.7209485999517089	-1.115410312103638	-0.3689081207711543	0.1909650924024641	-0.415478615071283	0.6776859504132231
2495.147705078125	-0.06479285764419292	-9.620949690638289	-1.840238078526903	-0.7209857858658586	-0.7435883565202867	-0.3651895293561793	0.1806981519507187	-0.415478615071283	0.6838842975206612
2499.053955078125	-0.02663320823222595	-9.461944737328421	-1.778893058925802	-0.3623182598866305	-0.3681251906832038	-5.806930796573191e-05	0.1806981519507187	-0.415478615071283	0.6838842975206612
2502.960205078125	-0.1778830495228467	-9.620848852679053	-1.737231682571778	-0.7209485999517089	-1.115410312103638	-0.3689081207711543	0.1806981519507187	-0.415478615071283	0.6838842975206612
2506.866455078125	0.2230992530998604	-9.804531241497713	-1.769975103328678	0.7173722378726058	0.3791043760908138	0.7265443286814521	0.1765913757700205	-0.4399185336048879	0.6570247933884298
2510.772705078125	0.09383608258723496	-9.822992999963461	-1.794536086241165	-0.003687919821552229	0.3791599307372308	0.3687919821552229	0.1765913757700205	-0.4399185336048879	0.6570247933884298
2514.678955078125	0.1523144756360402	-9.674084986211016	-1.743815854534672	0.3549424202435261	1.126445052157665	0.7376420336184115	0.1765913757700205	-0.4399185336048879	0.6570247933884298
2518.585205078125	0.1520084918389863	-9.820850587638727	-2.066949727966209	-0.3624298176290798	0.7473406760668516	0.01109770493695932	0.1765913757700205	-0.4399185336048879	0.6570247933884298
2522.491455078125	0.07961808805866687	-9.25092348486103	-1.987269601955562	0.003576362079102979	0.7363059360128246	-0.3576362079102978	0.1868583162217659	-0.4114052953156823	0.6900826446280992
2526.397705078125	0.01445379132062764	-9.781993274139662	-1.815126377354255	0.003576362079102979	0.7363059360128246	-0.3576362079102978	0.1868583162217659	-0.4114052953156823	0.6900826446280992
2530.303955078125	0.2607431463178241	-9.652359716023904	-2.02477154392747	0.003576362079102979	0.7363059360128246	-0.3576362079102978	0.1868583162217659	-0.4114052953156823	0.6900826446280992
2534.210205078125	0.147547279622662	-9.792293046255338	-1.918242654088735	-0.3550539779859753	-0.01097918540760998	-0.7264862593734864	0.1827515400410678	-0.4297352342158859	0.6673553719008265
2538.116455078125	0.121740543089695	-9.840637224400998	-2.058018102989835	-0.7101451418861003	0.3498635847681318	-1.449253927331998	0.1827515400410678	-0.4297352342158859	0.6673553719008265
2542.022705078125	0.05324906686771168	-9.696116135046108	-2.441635562257056	-0.7138330617076526	0.7290235155053626	-1.080461945176775	0.1827515400410678	-0.4297352342158859	0.6673553719008265
2545.928955078125	-0.3542527410391305	-9.584541719602653	-2.191575298695652	-0.7138702476218023	1.100845471088715	-1.0767433537618	0.1827515400410678	-0.4134419551934826	0.6756198347107438
2549.835205078125	-0.09766561175861035	-9.938245214468617	-2.077812941379656	-0.7174466097009052	0.3645395350758898	-0.7191071458515021	0.1827515400410678	-0.4134419551934826	0.6756198347107438
2553.741455078125	-0.2797827515040918	-9.717129756319656	-2.007241616530275	-0.7137215039652034	-0.3864423512446928	-1.0916177194217	0.1827515400410678	-0.4134419551934826	0.6756198347107438
2557.647705078125	-0.2523735431267601	-9.614934112277652	-2.254215229107997	-0.3623182598866305	-0.3681251906832038	-5.806930796573191e-05	0.1827515400410678	-0.4134419551934826	0.6756198347107438
2561.553955078125	-0.4158998013471173	-9.514474269102234	-2.136673288429423	0.3624670035432295	-1.119162631650203	-0.01481629635193433	0.1827515400410678	-0.4195519348268839	0.6632231404958678
2565.460205078125	-0.137822042031764	-9.817895793590269	-2.072598598941201	-0.3657086923949848	-2.963540904612787	0.338985181527457	0.1827515400410678	-0.4195519348268839	0.6632231404958678
2569.366455078125	0.1231679417305907	-9.740175698840444	-2.105598057686358	-0.724339032460063	-3.710826026033222	-0.02986486993573159	0.1827515400410678	-0.4195519348268839	0.6632231404958678
2573.272705078125	0.234500304012252	-9.830844901702706	-2.150010133741732	-0.3620207725734325	-3.342700835350018	-0.02980680062776585	0.1930184804928131	-0.4256619144602851	0.6673553719008265
2577.178955078125	0.04862776519055771	-9.630943689255053	-1.954258839685257	-0.7281385100240645	-2.216200228545936	0.3500828864644163	0.1930184804928131	-0.4256619144602851	0.6673553719008265
2581.085205078125	0.3586508638127631	-9.910702887367208	-2.288362127092105	-0.7208742281234094	-1.859054223270342	-0.3763453036011044	0.1930184804928131	-0.4256619144602851	0.6673553719008265
2584.991455078125	-0.1106778093137367	-9.609119158344773	-1.977406356208776	-1.44562230563912	-1.479838737886694	-0.3653056679721108	0.1930184804928131	-0.4256619144602851	0.6673553719008265
2588.897705078125	0.2840412888857695	-9.614826649926934	-1.801376296192315	-0.7245993338591113	-1.108072336949759	-0.003834730030906479	0.2032854209445585	-0.4093686354378818	0.6859504132231405
2592.803955078125	0.2484959082553325	-9.622986322997443	-1.949863608511081	-0.362243888058331	-1.111769101849907	-0.007495252137915762	0.2032854209445585	-0.4093686354378818	0.6859504132231405
2596.710205078125	0.1171145097043392	-9.702132975195598	-1.90381699014464	-0.7245621479449615	-1.479894292533111	-0.007553321445881495	0.2032854209445585	-0.4093686354378818	0.6859504132231405
2600.616455078125	0.4672695914406554	-9.945582832100856	-1.908986381355177	-1.083304045752489	-1.11171354720349	-0.3652475986641451	0.188911704312115	-0.4358452138492871	0.6756198347107438
2604.522705078125	0.3779830462895128	-9.964452148366391	-1.932768209650424	-0.7247108916015605	0.007393529800295976	0.007321044214018567	0.188911704312115	-0.4358452138492871	0.6756198347107438
2608.428955078125	0.3406711612637131	-9.706516324524735	-1.689038708790436	-3.718591414975016e-05	0.3718219555833518	0.003718591414975016	0.188911704312115	-0.4358452138492871	0.6756198347107438
2612.335205078125	0.4538063043702846	-9.736602628253609	-1.793543479009485	-0.3550911639001251	0.3608427701757418	-0.7227676679585114	0.188911704312115	-0.4256619144602851	0.6797520661157025
2616.241455078125	0.3373163801485915	-9.714267703751954	-1.910546004953047	-0.3624298176290798	0.7473406760668516	0.01109770493695932	0.188911704312115	-0.4256619144602851	0.6797520661157025
2620.147705078125	0.344831910009219	-9.745171015763688	-1.827730333640631	0.365820250137434	1.848075037862732	-0.3501409557723821	0.188911704312115	-0.4256619144602851	0.6797520661157025
2624.053955078125	0.3061320572442059	-9.754350634824373	-1.871068574806861	0.007078352329906457	2.216255783192353	-0.7078352329906457	0.188911704312115	-0.4256619144602851	0.6797520661157025
2627.960205078125	0.2178967399319107	-9.842880054088683	-1.92989133106369	0.369396612216537	2.584380973875557	-0.7077771636826798	0.1868583162217659	-0.4175152749490835	0.6735537190082644
2631.866455078125	-0.006706407758108774	-9.842168405175123	-1.776453074729708	0.007003980501606956	2.959899694359057	-0.7003980501606956	0.1868583162217659	-0.4175152749490835	0.6735537190082644
2635.772705078125	-0.01710591376777251	-9.782197578784912	-1.763136207740917	0.7317520580173174	2.580684208975409	-0.7114376857896891	0.1868583162217659	-0.4175152749490835	0.6735537190082644
2639.678955078125	-0.1838520994194983	-9.779445512145637	-1.871596686016724	0.7281385100240645	2.216200228545936	-0.3500828864644163	0.1950718685831622	-0.3991853360488798	0.6756198347107438
2643.585205078125	-0.2810445403579222	-9.717537734715728	-1.96518198806926	0.01076627215145869	1.837095852455122	-1.076627215145868	0.1950718685831622	-0.3991853360488798	0.6756198347107438
2647.491455078125	-0.2653068788785221	-9.619115890837389	-1.823104037382598	0.007115538244056207	1.844433827609001	-0.7115538244056206	0.1950718685831622	-0.3991853360488798	0.6756198347107438
2651.397705078125	-0.1794807896590095	-9.748032121989747	-2.017307011366352	0.7318264298456169	1.837040297808705	-0.7188748686196392	0.1950718685831622	-0.3991853360488798	0.6756198347107438
2655.303955078125	-0.1694054056611735	-9.451441081163781	-1.686486477960886	0.724487776116662	2.223538203699815	0.01499050427583152	0.1786447638603696	-0.4032586558044806	0.6735537190082644
2659.210205078125	-0.2173541707247637	-9.676944515201006	-2.088194309174546	0.369545355873136	1.097093151542149	-0.7226515293425799	0.1786447638603696	-0.4032586558044806	0.6735537190082644
2663.116455078125	-0.2625735287739119	-9.758232107636898	-1.91421570753627	0.362243888058331	1.111769101849907	0.007495252137915762	0.1786447638603696	-0.4032586558044806	0.6735537190082644
2667.022705078125	-0.15211101218336	-9.479182560605954	-1.929632927221333	0.3696569136155852	-0.01837271520790595	-0.733807303587505	0.1642710472279261	-0.405295315682281	0.6921487603305785
