Time Stamp	Accelerometer X	Accelerometer Y	Accelerometer Z	Gyroscope X	Gyroscope Y	Gyroscope Z	Magnetometer X	Magnetometer Y	Magnetometer Z
1175.811767578125	-0.1083064348865692	-10.13835241394666	-1.056452170447696	-14.09166712733485	-0.3083658511702491	-3.87676552738434	0.1724845995893224	-0.4236252545824847	0.6714876033057852
1179.718017578125	-0.07728614453318153	-9.778322520065728	-2.09046184889395	-13.74044981282703	1.569061087307999	-2.76661292019573	0.1848049281314169	-0.4114052953156823	0.6776859504132231
1183.624267578125	-0.1231419173354805	-9.996482553271806	-2.228602755483984	-11.52467162847493	-13.40671545211963	-6.953127007579512	0.1848049281314169	-0.4114052953156823	0.6776859504132231
1187.530517578125	-0.2239533264302968	-9.625744908879129	-2.201555785656773	-26.06709271958537	-5.727012067446247	-1.986380215376419	0.1848049281314169	-0.4114052953156823	0.6776859504132231
1191.436767578125	-0.2706947172843781	-9.674191291921948	-2.310176090520732	-47.80577275340683	4.526648652159252	-2.031420311491785	0.1848049281314169	-0.4114052953156823	0.6776859504132231
1195.343017578125	-0.1645751202051038	-9.866545955532983	-2.180829326496541	-63.76487058029622	13.27056318679837	-0.3245361732779592	0.1560574948665298	-0.4175152749490835	0.6632231404958678
1199.249267578125	-0.1169315503205338	-9.577807867936974	-2.102281655982206	-2.529000723219908	-1.847908373923481	-0.7231160838063058	0.1560574948665298	-0.4175152749490835	0.6632231404958678
1203.155517578125	-0.3657791822188715	-9.614935268917435	-2.140693926037617	8.700813593666675	-6.417033577674411	-0.516141975363046	0.1560574948665298	-0.4175152749490835	0.6632231404958678
1207.061767578125	-0.1322638621306409	-9.736098648755574	-2.257871262311971	7.247703890642001	-6.023086587336588	-0.1327079047797859	0.1827515400410678	-0.4317718940936863	0.6549586776859504
1210.968017578125	-0.3607328154215834	-9.823303610319646	-2.308906152613888	6.164288287147063	-6.019334267790024	-0.4867997291990059	0.1827515400410678	-0.4317718940936863	0.6549586776859504
1214.874267578125	0.2534981124427365	-9.591368943643516	-2.116603748091216	3.265295977084222	-4.502472326255432	-0.4426411866830316	0.1827515400410678	-0.4317718940936863	0.6549586776859504
1218.780517578125	0.05394541659141936	-9.599224315302108	-2.131513886380645	2.17443016211788	-2.996756234067702	-0.05171186396185583	0.1827515400410678	-0.4317718940936863	0.6549586776859504
1222.686767578125	0.06015341775226511	-9.810550394926768	-2.005113925075503	-0.724636519773261	-0.7362503813664076	-0.0001161386159314638	0.1827515400410678	-0.4317718940936863	0.6549586776859504
1226.593017578125	0.08785283756597775	-9.761594249187	-1.928427918865925	-2.177783408712084	0.02951856455476691	0.3870365233823035	0.1827515400410678	-0.4317718940936863	0.6549586776859504
1230.499267578125	-0.1758460491419442	-9.856856889222563	-2.138465028601861	-3.253897544392217	0.01859493379357393	-0.6972020825174121	0.1827515400410678	-0.4317718940936863	0.6549586776859504
1234.405517578125	-0.05901465331168317	-9.615748071237444	-2.366178222943895	-1.449458969117271	0.3866090151839437	0.01836067984301215	0.1724845995893224	-0.4236252545824847	0.6508264462809917
1238.311767578125	0.07480436358130375	-9.759146589108713	-2.160145452710125	-1.811777229003901	0.01848382450073994	0.01830261053504642	0.1724845995893224	-0.4236252545824847	0.6508264462809917
1242.218017578125	0.09921445757668719	-9.621253992050205	-1.97381525255624	-1.445771049295719	0.00744908444671297	-0.3504313023122107	0.1724845995893224	-0.4236252545824847	0.6508264462809917
1246.124267578125	-0.105991840957824	-9.787604028576363	-2.133605301405869	-1.079690497759237	-0.7472295667740175	-0.7266023979894179	0.1642710472279261	-0.4256619144602851	0.6466942148760331
1250.030517578125	0.04572328497264678	-9.728549471192178	-2.190776165754893	-2.532874572612209	0.3903613347305088	-0.3357311445762078	0.1642710472279261	-0.4256619144602851	0.6466942148760331
1253.936767578125	-0.0720442004635497	-9.906627624816549	-2.265193317881677	-0.7173722378726058	-0.3791043760908138	-0.7265443286814521	0.1642710472279261	-0.4256619144602851	0.6466942148760331
1257.843017578125	-0.3607280837133815	-9.896635413733994	-1.975730542887283	-1.090642699481444	-0.7252156413123806	0.3686177742313257	0.1642710472279261	-0.4256619144602851	0.6466942148760331
1261.749267578125	0.1757522035959405	-9.799840120837311	-2.191740119864684	-0.3586303400650783	-0.7472851214204346	-0.3688500514631886	0.1683778234086242	-0.405295315682281	0.6466942148760331
1265.655517578125	-0.1150641028168648	-9.63053739324412	-1.831196572771175	-0.3622810739724808	-0.7399471462665556	-0.003776660722940747	0.1683778234086242	-0.405295315682281	0.6466942148760331
1269.561767578125	0.0969306197512541	-9.781992432947094	-1.897687325041803	-0.7209485999517089	-1.115410312103638	-0.3689081207711543	0.1683778234086242	-0.405295315682281	0.6466942148760331
1273.468017578125	-0.01976907686738838	-9.61972533485379	-2.007697437753721	-0.362243888058331	-1.111769101849907	-0.007495252137915762	0.1663244353182751	-0.4256619144602851	0.6528925619834711
1277.374267578125	-0.08682369103207234	-9.521406326767039	-1.772543632264256	-1.442008757645867	-1.115354757457222	-0.7266604672973836	0.1663244353182751	-0.4256619144602851	0.6528925619834711
1281.280517578125	-0.1261544382240007	-9.530789935025762	-1.794852059199979	-0.003650733907402479	0.007337975153878983	0.3650733907402479	0.1663244353182751	-0.4256619144602851	0.6528925619834711
1285.186767578125	-0.1621808758549605	-9.63910514985977	-1.927304138167983	-0.7210229717800084	-0.3717664009369348	-0.3614709379412043	0.1663244353182751	-0.4256619144602851	0.6528925619834711
1289.093017578125	-0.07838153498191308	-9.468676696310819	-2.053948833936232	-0.3550911639001251	0.3608427701757418	-0.7227676679585114	0.1663244353182751	-0.4256619144602851	0.6528925619834711
1292.999267578125	-0.1724155606955927	-9.689081031291574	-1.919481310146911	-1.079727683673386	-0.3754076111906658	-0.7228838065744428	0.1663244353182751	-0.4256619144602851	0.6528925619834711
1296.905517578125	-0.1827298959576228	-9.615749333026299	-2.242336801412573	-0.3624298176290798	0.7473406760668516	0.01109770493695932	0.1663244353182751	-0.4256619144602851	0.6528925619834711
1300.811767578125	-0.4249484046651489	-9.724066650841733	-2.168386511161705	-0.3660805515364823	0.7546786512207306	0.3761710956772072	0.1663244353182751	-0.4317718940936863	0.6528925619834711
1304.718017578125	-0.02119647550828406	-9.720186860414346	-1.960117483057199	-0.36239263171493	0.3755187204834998	0.007379113521984299	0.1663244353182751	-0.4317718940936863	0.6528925619834711
1308.624267578125	-0.2822605893658013	-9.537930923894942	-1.924647021139958	-0.7210601576941581	5.555464641699391e-05	-0.3577523465262293	0.1663244353182751	-0.4317718940936863	0.6528925619834711
1312.530517578125	-0.03427491697823654	-9.697748889822963	-2.19083610072545	-0.003762291649851729	1.122803841903934	0.3762291649851729	0.1724845995893224	-0.4134419551934826	0.6466942148760331
1316.436767578125	-0.1150246719151826	-9.797191310585911	-2.165844269493915	-7.437182829950031e-05	0.7436439111667036	0.007437182829950031	0.1724845995893224	-0.4134419551934826	0.6466942148760331
1320.343017578125	-0.0696956959593578	-9.859201608360191	-2.010143468021407	-7.437182829950031e-05	0.7436439111667036	0.007437182829950031	0.1724845995893224	-0.4134419551934826	0.6466942148760331
1324.249267578125	0.001270463652200512	-9.689589216752456	-2.042348788406684	0.362243888058331	1.111769101849907	0.007495252137915762	0.1724845995893224	-0.4134419551934826	0.6466942148760331
1328.155517578125	-0.06852302094332914	-9.588822443438342	-2.049232635222363	-0.7174466097009052	0.3645395350758898	-0.7191071458515021	0.1642710472279261	-0.4175152749490835	0.6694214876033058
1332.061767578125	-0.2368913938902607	-9.55659488402452	-2.103620203657978	-7.437182829950031e-05	0.7436439111667036	0.007437182829950031	0.1642710472279261	-0.4175152749490835	0.6694214876033058
1335.968017578125	-0.1587858752201231	-9.58800743298784	-2.0404708259959	-1.083415603494938	0.003752319546564981	-0.35409182441922	0.1642710472279261	-0.4175152749490835	0.6694214876033058
1339.874267578125	-0.3044026178964245	-9.715090179786511	-2.186579403452517	-0.7211345295224576	0.7436994658131205	-0.3503151636962792	0.1519507186858316	-0.4073319755600814	0.6549586776859504
1343.780517578125	0.06084503576777091	-9.64032677176842	-2.028167858925697	0.3622810739724808	0.7399471462665556	0.003776660722940747	0.1519507186858316	-0.4073319755600814	0.6549586776859504
1347.686767578125	-0.1913526455374866	-9.758537355390454	-1.954911815417115	-0.7247480775157102	0.3792154853836477	0.01103963562899358	0.1519507186858316	-0.4073319755600814	0.6549586776859504
1351.593017578125	-0.03658872228894809	-9.838497020206761	-2.113709257035064	-0.3623554458007803	0.003696764900147988	0.003660522107009284	0.1519507186858316	-0.4073319755600814	0.6549586776859504
1355.499267578125	-0.3120080502128875	-9.624215936235501	-2.266398326237085	-0.003650733907402479	0.007337975153878983	0.3650733907402479	0.1519507186858316	-0.4073319755600814	0.6549586776859504
1359.405517578125	-0.272331888322223	-9.634720643890851	-2.255603722592566	-0.3660061797081828	0.01103474005402697	0.3687339128472572	0.1519507186858316	-0.4073319755600814	0.6549586776859504
1363.311767578125	-0.3169810755330467	-9.885823881089017	-2.100630815565112	-0.7282500677665138	-1.10073436179588	0.3612386607093414	0.1519507186858316	-0.4073319755600814	0.6549586776859504
1367.218017578125	-0.3920969432376398	-9.743444678313503	-2.263435225412007	-1.090605513567294	-1.097037596895733	0.3648991828163506	0.1663244353182751	-0.4012219959266802	0.6363636363636364
1371.124267578125	-0.3558615218277643	-9.985061892057645	-2.137949272407858	-1.449235853632372	-1.844322718316167	-0.003950868646837944	0.1663244353182751	-0.4012219959266802	0.6363636363636364
1375.030517578125	-0.2454139889798516	-9.696017189770153	-2.152867034004947	-1.086768850089143	-2.96348534996637	-0.01876716499877227	0.1663244353182751	-0.4012219959266802	0.6363636363636364
1378.936767578125	-0.1933707190855816	-9.815856532504338	-2.220976030480613	-1.094033131989798	-3.320631355241964	0.7076610250667484	0.1642710472279261	-0.4419551934826884	0.6301652892561984
1382.843017578125	0.1912643203177185	-9.761491203097272	-2.042144010590615	-1.090382398082396	-3.327969330395843	0.3425876343265006	0.1642710472279261	-0.4419551934826884	0.6301652892561984
1386.749267578125	-0.00206933372028193	-9.707335751236224	-2.264355542657269	-2.162697056198527	-4.833518758644323	-1.121598727973363	0.1642710472279261	-0.4419551934826884	0.6301652892561984
1390.655517578125	0.1483232797677678	-9.81870880620842	-2.277442658925592	-0.3621323303158818	-2.227234968599963	-0.01865102638284081	0.1642710472279261	-0.4419551934826884	0.6301652892561984
1394.561767578125	0.2769106046255602	-9.770465571171069	-2.230353487518674	-1.086954779659892	-1.104375572049612	-0.000174207923897194	0.1745379876796715	-0.4276985743380855	0.6487603305785125
1398.468017578125	0.4476677015963996	-9.711920776483831	-2.255590053213316	-0.7209485999517089	-1.115410312103638	-0.3689081207711543	0.1745379876796715	-0.4276985743380855	0.6487603305785125
1402.374267578125	0.01974226385424445	-9.520283334687127	-1.991408795141482	-1.44562230563912	-1.479838737886694	-0.3653056679721108	0.1745379876796715	-0.4276985743380855	0.6487603305785125
1406.280517578125	-0.02145671945938657	-9.686937672625202	-2.284776018020448	-0.3550167920718256	-0.3828011409909618	-0.7302048507884614	0.1971252566735113	-0.4338085539714867	0.6508264462809917
1410.186767578125	0.06517060568230838	-9.788928170829386	-2.172353522743613	-1.083378417580789	-0.3680696360367868	-0.357810415834195	0.1971252566735113	-0.4338085539714867	0.6508264462809917
1414.093017578125	0.1949345486462978	-9.75363782927103	-1.831151621543257	-0.7247480775157102	0.3792154853836477	0.01103963562899358	0.1971252566735113	-0.4338085539714867	0.6508264462809917
1417.999267578125	0.2420016387482739	-9.641752803471391	-2.06672129160913	-1.075965392023534	-1.4982114530946	-1.099112971559616	0.1971252566735113	-0.4338085539714867	0.6508264462809917
1421.905517578125	-0.2427800047474806	-9.628498868201687	-1.907333175083981	0.365968993794033	0.3607872155293249	-0.3650153214322821	0.1971252566735113	-0.4338085539714867	0.6508264462809917
1425.811767578125	-0.1252286006525026	-9.65715724754431	-2.159046644916581	0.003613547993252729	0.3644839804294728	-0.3613547993252729	0.1971252566735113	-0.4338085539714867	0.6508264462809917
1429.718017578125	-0.1172927373799428	-9.757924651752848	-2.090242087335241	-0.7173722378726058	-0.3791043760908138	-0.7265443286814521	0.1971252566735113	-0.4338085539714867	0.6508264462809917
1433.624267578125	-0.4083700763618843	-9.76537299135701	-2.054330787937193	-1.079727683673386	-0.3754076111906658	-0.7228838065744428	0.1827515400410678	-0.4317718940936863	0.6384297520661157
1437.530517578125	-0.07458197329581617	-9.687448171365649	-2.180600890139462	-0.3623554458007803	0.003696764900147988	0.003660522107009284	0.1827515400410678	-0.4317718940936863	0.6384297520661157
1441.436767578125	-0.1712736417828762	-9.608711810843129	-1.95754527390413	-0.3584815964084793	-2.234572943753842	-0.3837244171230887	0.1827515400410678	-0.4317718940936863	0.6384297520661157
1445.343017578125	-0.3441536985002852	-9.654609695848425	-2.194876716657164	0.3588906414641265	-1.855468567663028	0.3428199115583635	0.162217659137577	-0.415478615071283	0.6466942148760331
1449.249267578125	-0.1329854476314252	-9.886331961400826	-2.233818412285828	-0.003501990250803478	-1.479949847179528	0.3501990250803478	0.162217659137577	-0.415478615071283	0.6466942148760331
1453.155517578125	-0.1523121097819393	-9.695914248829494	-2.256263007268692	-1.08319248801004	-2.227179413953546	-0.3764033729090701	0.162217659137577	-0.415478615071283	0.6466942148760331
1457.061767578125	0.1333876428285836	-9.680204662152091	-2.112921427619454	-0.007227095986505457	-0.7289679608589457	0.7227095986505457	0.162217659137577	-0.415478615071283	0.6466942148760331
1460.968017578125	0.08275599921453644	-9.6599088935873	-2.091866640484548	-0.7209114140375591	-1.48723226768699	-0.3726267121861294	0.1806981519507187	-0.4256619144602851	0.6632231404958678
1464.874267578125	0.1469124421055786	-9.50916497705253	-2.23041473685262	-0.3623182598866305	-0.3681251906832038	-5.806930796573191e-05	0.1806981519507187	-0.4256619144602851	0.6632231404958678
1468.780517578125	0.00840587962061163	-9.607282098922669	-2.280195987353721	-0.0001115577424492505	1.115465866750055	0.01115577424492505	0.1806981519507187	-0.4256619144602851	0.6632231404958678
1472.686767578125	0.2855380859136258	-9.701009352221261	-2.184602863787527	-7.437182829950031e-05	0.7436439111667036	0.007437182829950031	0.1519507186858316	-0.4338085539714867	0.6322314049586777
1476.593017578125	-0.09278406613035386	-10.03666684804881	-2.240531128988206	-0.0001115577424492505	1.115465866750055	0.01115577424492505	0.1519507186858316	-0.4338085539714867	0.6322314049586777
1480.499267578125	0.3385884210368592	-9.650523077198082	-2.286280701228641	-0.3549796061576758	-0.7546230965743135	-0.7339234422034364	0.1519507186858316	-0.4338085539714867	0.6322314049586777
1484.405517578125	-0.007767887631393635	-9.835844950334153	-2.407737078953546	1.090605513567294	1.097037596895733	-0.3648991828163506	0.1519507186858316	-0.4338085539714867	0.6322314049586777
1488.311767578125	-0.01045628650808611	-9.726714199304283	-2.318123783063797	0.358518782322629	1.86275098817049	0.3800058257081136	0.1519507186858316	-0.4338085539714867	0.6322314049586777
1492.218017578125	-0.1141682327306452	-9.736914395249576	-2.194392242311829	-0.3624670035432295	1.119162631650203	0.01481629635193433	0.1519507186858316	-0.4338085539714867	0.6322314049586777
1496.124267578125	-0.1120649884349166	-9.666234346260625	-2.264500385502782	-0.717483795615055	0.7363614906592416	-0.7153885544365272	0.1519507186858316	-0.4338085539714867	0.6322314049586777
1500.030517578125	-0.2086218032382234	-9.677454383047026	-2.045939892059221	-0.003725105735701979	0.7509818863205826	0.3725105735701979	0.1868583162217659	-0.4073319755600814	0.6508264462809917
1503.936767578125	-0.3279957036089527	-9.626051944166896	-2.066809879701576	0	0	0	0.1868583162217659	-0.4073319755600814	0.6508264462809917
1507.843017578125	-0.2070895183988531	-9.646958944282296	-2.097016053371565	-0.365968993794033	-0.3607872155293249	0.3650153214322821	0.1868583162217659	-0.4073319755600814	0.6508264462809917
1511.749267578125	-0.08639389420373633	-9.737934025792542	-2.120203526542123	-1.083266859838339	-1.483535502786842	-0.3689661900791201	0.1642710472279261	-0.4175152749490835	0.6549586776859504
1515.655517578125	-0.2560390397471375	-9.696119289518242	-2.132032008428749	-1.083304045752489	-1.11171354720349	-0.3652475986641451	0.1642710472279261	-0.4175152749490835	0.6549586776859504
1519.561767578125	0.04331957720609979	-9.809326670036697	-2.11065257353666	-0.003613547993252729	-0.3644839804294728	0.3613547993252729	0.1642710472279261	-0.4175152749490835	0.6549586776859504
1523.468017578125	-0.02624836263180766	-9.648486970584285	-2.125054578939745	0.3624670035432295	-1.119162631650203	-0.01481629635193433	0.1642710472279261	-0.4175152749490835	0.6549586776859504
1527.374267578125	-0.0180767025671883	-9.625844800496726	-2.39744324776039	-0.003576362079102979	-0.7363059360128246	0.3576362079102978	0.1745379876796715	-0.4419551934826884	0.6632231404958678
1531.280517578125	0.1937729142827401	-9.750680091048581	-2.125763809424669	-0.01456574971546017	-0.3424700549678359	1.456574971546016	0.1745379876796715	-0.4419551934826884	0.6632231404958678
1535.186767578125	0.03155339614413098	-9.67979773524673	-2.051779871471033	-0.365968993794033	-0.3607872155293249	0.3650153214322821	0.1745379876796715	-0.4419551934826884	0.6632231404958678
1539.093017578125	-0.01772497892418306	-9.299064409852154	-2.075834035860565	0.3587418978075275	-0.3681807453296208	0.3576942772182636	0.162217659137577	-0.4256619144602851	0.6384297520661157
1542.999267578125	-0.05113399330147844	-9.749866657834145	-1.962200223284053	-0.3549052343293763	-1.498267007741017	-0.7413606250333865	0.162217659137577	-0.4256619144602851	0.6384297520661157
1546.905517578125	0.103180417667883	-9.529971664954052	-2.106013922262766	-3.718591414975016e-05	0.3718219555833518	0.003718591414975016	0.162217659137577	-0.4256619144602851	0.6384297520661157
1550.811767578125	-0.1988082404275572	-9.76761466440491	-2.039725319081428	-0.0001115577424492505	1.115465866750055	0.01115577424492505	0.1540041067761807	-0.4256619144602851	0.6384297520661157
1554.718017578125	0.01563592975306002	-9.658277716046511	-2.187864325102001	0.003650733907402479	-0.007337975153878983	-0.3650733907402479	0.1540041067761807	-0.4256619144602851	0.6384297520661157
1558.624267578125	-0.1026417915509041	-9.706520845934792	-2.245273614969863	-0.3552027216425743	1.476308636925797	-0.7116118937135864	0.1540041067761807	-0.4256619144602851	0.6384297520661157
1562.530517578125	-0.04556082965771613	-9.678064668255995	-2.147972344742796	0.003464804336653728	1.85177180276288	-0.3464804336653728	0.1540041067761807	-0.4256619144602851	0.6384297520661157
1566.436767578125	-0.2004004602374845	-9.758129482143453	-1.986651325417185	0.007078352329906457	2.216255783192353	-0.7078352329906457	0.1663244353182751	-0.4195519348268839	0.6652892561983471
1570.343017578125	-0.1009241814736274	-9.659298818676474	-1.969193950879086	0.362095144401732	2.599056924183315	0.02236961779781583	0.1663244353182751	-0.4195519348268839	0.6652892561983471
1574.249267578125	-0.1606343958909846	-9.828605121338086	-1.978853470300513	-0.3515519877351718	1.468970661771918	-1.076685284453834	0.1663244353182751	-0.4195519348268839	0.6652892561983471
1578.155517578125	-0.2158029590525859	-9.93977629009367	-1.806568031580472	1.086880407831592	1.848019483216315	0.007611390753847227	0.1724845995893224	-0.4256619144602851	0.6611570247933884
1582.061767578125	-0.5227370408370077	-9.755684976537299	-1.908765305433079	0.7245249620308118	1.851716248116463	0.01127191286085651	0.1724845995893224	-0.4256619144602851	0.6611570247933884
1585.968017578125	-0.4122303616365717	-9.71662115026249	-1.925654612114277	0.3623554458007803	-0.003696764900147988	-0.003660522107009284	0.1724845995893224	-0.4256619144602851	0.6611570247933884
1589.874267578125	-0.3940645452315817	-9.694080869624878	-2.197848492280612	0.3660061797081828	-0.01103474005402697	-0.3687339128472572	0.1724845995893224	-0.4256619144602851	0.6611570247933884
1593.780517578125	-0.2544618036798495	-9.695609316523152	-2.184606544005018	-0.003687919821552229	0.3791599307372308	0.3687919821552229	0.1765913757700205	-0.4093686354378818	0.6528925619834711
1597.686767578125	-0.1484470927990499	-9.81799789333836	-2.051763573365004	-0.003613547993252729	-0.3644839804294728	0.3613547993252729	0.1765913757700205	-0.4093686354378818	0.6528925619834711
1601.593017578125	-0.2573749586961305	-9.436551236645082	-2.08750137679565	-0.007189910072355707	-1.100789916442297	0.7189910072355706	0.1765913757700205	-0.4093686354378818	0.6528925619834711
1605.499267578125	-0.1630270630050606	-9.636045417038302	-2.232431233164648	-0.3620579584875823	-2.970878879766667	-0.02608820921279084	0.1560574948665298	-0.4175152749490835	0.6384297520661157
1609.405517578125	-0.09889664450912869	-9.748643248391284	-2.036778516362378	-1.08315530209589	-2.599001369536898	-0.3801219643240451	0.1560574948665298	-0.4175152749490835	0.6384297520661157
1613.311767578125	0.04315554465510184	-9.489379707228185	-2.105184821836728	-0.003427618422503978	-2.223593758346232	0.3427618422503977	0.1560574948665298	-0.4175152749490835	0.6384297520661157
1617.218017578125	-0.1478004260114618	-9.617788804410374	-2.073319132951274	-0.7316776861890179	-3.324328120142112	0.7040005029597391	0.1806981519507187	-0.4093686354378818	0.6446280991735538
1621.124267578125	0.2987080070754811	-9.363417744378927	-1.9569335691827	0.0002231154848985009	-2.230931733500111	-0.02231154848985009	0.1806981519507187	-0.4093686354378818	0.6446280991735538
1625.030517578125	0.02779326535971628	-9.627680177533692	-2.259775511990543	-0.007078352329906457	-2.216255783192353	0.7078352329906457	0.1806981519507187	-0.4093686354378818	0.6446280991735538
1628.936767578125	0.3184100514100097	-9.593714083377431	-1.947001713666987	-0.3621695162300315	-1.855413013016611	-0.0149324349678658	0.1806981519507187	-0.4093686354378818	0.6446280991735538
1632.843017578125	0.1250014786588131	-9.489582855233651	-2.166715955293769	7.437182829950031e-05	-0.7436439111667036	-0.007437182829950031	0.1724845995893224	-0.4317718940936863	0.6549586776859504
1636.749267578125	-0.05214026991240821	-9.710192020605012	-1.928657669586394	-0.7172978660443063	-1.122748287257517	-0.7339815115114022	0.1724845995893224	-0.4317718940936863	0.6549586776859504
1640.655517578125	0.1528948985088022	-9.780563982815487	-2.096496616960072	-0.3622810739724808	-0.7399471462665556	-0.003776660722940747	0.1724845995893224	-0.4317718940936863	0.6549586776859504
1644.561767578125	0.09366652971000149	-9.639714488727099	-2.122217657000049	-7.437182829950031e-05	0.7436439111667036	0.007437182829950031	0.1642710472279261	-0.4256619144602851	0.6322314049586777
1648.468017578125	0.09114295200234061	-9.640530445519243	-2.038098400078021	-0.7210601576941581	5.555464641699391e-05	-0.3577523465262293	0.1642710472279261	-0.4256619144602851	0.6322314049586777
1652.374267578125	-0.05816846616158312	-9.618807804058912	-2.06105112794723	0.003576362079102979	0.7363059360128246	-0.3576362079102978	0.1642710472279261	-0.4256619144602851	0.6322314049586777
1656.280517578125	0.07138018407922142	-9.580253740481051	-2.046006135974047	-7.437182829950031e-05	0.7436439111667036	0.007437182829950031	0.1642710472279261	-0.4256619144602851	0.6322314049586777
1660.186767578125	0.1250156737834187	-9.709578265476694	-2.167189126113956	0.003501990250803478	1.479949847179528	-0.3501990250803478	0.1642710472279261	-0.4256619144602851	0.6322314049586777
1664.093017578125	0.1607566316861994	-9.621355355754796	-2.025221056206647	0.358518782322629	1.86275098817049	0.3800058257081136	0.1642710472279261	-0.4256619144602851	0.6322314049586777
1667.999267578125	-0.118944892160427	-9.708458848465204	-2.0351702613191	-0.717483795615055	0.7363614906592416	-0.7153885544365272	0.1642710472279261	-0.4256619144602851	0.6322314049586777
1671.905517578125	-0.08770536599368634	-9.635024735004624	-2.409821133543789	0.3511057567653748	2.992892805228303	1.121308381433535	0.1519507186858316	-0.4114052953156823	0.6673553719008265
1675.811767578125	-0.218735829519708	-9.597391251544707	-2.042139016009735	0.003539176164953228	1.108127891596177	-0.3539176164953228	0.1519507186858316	-0.4114052953156823	0.6673553719008265
1679.718017578125	-0.3337833713578662	-9.484589956739045	-2.207220954737794	-0.003650733907402479	0.007337975153878983	0.3650733907402479	0.1519507186858316	-0.4114052953156823	0.6673553719008265
1683.624267578125	-0.2280707011839523	-10.03707619338281	-2.064309960534925	0.3623182598866305	0.3681251906832038	5.806930796573191e-05	0.1724845995893224	-0.4338085539714867	0.6301652892561984
1687.530517578125	-0.113687964348156	-9.84675910847257	-2.210401188394802	-0.01452856380131042	-0.7142920105511876	1.452856380131041	0.1724845995893224	-0.4338085539714867	0.6301652892561984
1691.436767578125	-0.1215489089075196	-9.795967480546764	-2.281703036416015	-0.007301467814804958	0.01467595030775797	0.7301467814804957	0.1724845995893224	-0.4338085539714867	0.6301652892561984
1695.343017578125	-0.01936451581612899	-9.889594526780549	-2.021182806129034	-0.003687919821552229	0.3791599307372308	0.3687919821552229	0.1724845995893224	-0.4338085539714867	0.6301652892561984
1699.249267578125	0.07671203060468865	-9.768529776771151	-2.223734353489621	-0.3587047118933778	-0.003641210253730994	-0.3614128686332386	0.1827515400410678	-0.4297352342158859	0.6570247933884298
1703.155517578125	-0.3101256189665792	-9.686940616799195	-1.995812701114028	0.3551655357284246	-1.104486681342445	0.7153304851285613	0.1827515400410678	-0.4297352342158859	0.6570247933884298
1707.061767578125	-0.2954447056522621	-9.655527121494233	-2.151843144924599	-0.003613547993252729	-0.3644839804294728	0.3613547993252729	0.1827515400410678	-0.4297352342158859	0.6570247933884298
1710.968017578125	-0.2439416391110382	-9.625541129979236	-2.201945362965393	-0.728212881852364	-1.472556317379232	0.3575200692943664	0.1560574948665298	-0.4276985743380855	0.6487603305785125
1714.874267578125	-0.2706797335417389	-9.684186447178496	-2.310675548608707	-0.7245249620308118	-1.851716248116463	-0.01127191286085651	0.1560574948665298	-0.4276985743380855	0.6487603305785125
1718.780517578125	-0.1170671926223206	-9.697851725614552	-2.097760245922648	-0.003501990250803478	-1.479949847179528	0.3501990250803478	0.1560574948665298	-0.4276985743380855	0.6487603305785125
1722.686767578125	-0.2404717197630045	-9.624419189390039	-2.317609341233183	-0.7207998562951099	-2.602698134437046	-0.3837824864310544	0.1560574948665298	-0.4276985743380855	0.6487603305785125
1726.593017578125	-0.2329861573876555	-9.635332190888676	-2.233794753744818	-0.003464804336653728	-1.85177180276288	0.3464804336653728	0.1560574948665298	-0.4276985743380855	0.6487603305785125
1730.499267578125	0.1505613777472495	-9.83798515452839	-2.352045924908317	-0.7245621479449615	-1.479894292533111	-0.007553321445881495	0.1560574948665298	-0.4276985743380855	0.6487603305785125
1734.405517578125	0.04643461843899369	-9.641652806704725	-1.881153947966456	-0.3622067021441813	-1.483591057433259	-0.01121384355289078	0.1560574948665298	-0.4276985743380855	0.6487603305785125
1738.311767578125	0.02895016801507206	-9.557306112341793	-2.298338933835736	-0.3658946219657335	-1.104431126696028	0.3575781386023321	0.1909650924024641	-0.405295315682281	0.640495867768595
1742.218017578125	-0.1486316294189226	-9.624724226845451	-2.378945686035914	-0.3586303400650783	-0.7472851214204346	-0.3688500514631886	0.1909650924024641	-0.405295315682281	0.640495867768595
1746.124267578125	0.1044855805135638	-9.979549662300615	-2.149519350452128	-0.717335051958456	-0.7509263316741656	-0.7302629200964272	0.1909650924024641	-0.405295315682281	0.640495867768595
1750.030517578125	-0.1286993086185699	-9.868279443120004	-2.043356379381003	-0.3733448334371375	0.3975326459451367	1.102599285742728	0.162217659137577	-0.4175152749490835	0.6549586776859504
1753.936767578125	-0.3369898922826629	-10.01229339850473	-2.433670257244574	-7.437182829950031e-05	0.7436439111667036	0.007437182829950031	0.162217659137577	-0.4175152749490835	0.6549586776859504
1757.843017578125	-0.3177326285191094	-10.01606688322118	-2.07557904936302	-0.36239263171493	0.3755187204834998	0.007379113521984299	0.162217659137577	-0.4175152749490835	0.6549586776859504
1761.749267578125	-0.01422666932693818	-9.737933289749044	-2.192444355768728	-1.079727683673386	-0.3754076111906658	-0.7228838065744428	0.162217659137577	-0.4175152749490835	0.6549586776859504
1765.655517578125	-0.3010328530386636	-9.717333955815835	-1.965571565377881	-0.007264281900655208	-0.3571460052755938	0.7264281900655207	0.162217659137577	-0.4256619144602851	0.6466942148760331
1769.561767578125	-0.2468358672945118	-9.65981026375856	-1.772137756849608	-0.3660433656223325	0.3828566956373787	0.3724525042622321	0.162217659137577	-0.4256619144602851	0.6466942148760331
1773.468017578125	-0.3267141993042812	-9.708970924441717	-1.776193356523961	-0.7245993338591113	-1.108072336949759	-0.003834730030906479	0.162217659137577	-0.4256619144602851	0.6466942148760331
1777.374267578125	-0.2848338500095818	-9.435429611503098	-2.17220499968061	-0.7245993338591113	-1.108072336949759	-0.003834730030906479	0.1704312114989733	-0.4419551934826884	0.640495867768595
1781.280517578125	-0.04163508908623619	-9.630128678804549	-1.945497030458794	-0.007189910072355707	-1.100789916442297	0.7189910072355706	0.1704312114989733	-0.4419551934826884	0.640495867768595
1785.186767578125	-0.02970250961916848	-9.449603811443533	-2.009916346027718	-0.728212881852364	-1.472556317379232	0.3575200692943664	0.1704312114989733	-0.4419551934826884	0.640495867768595
1789.093017578125	-0.04880520424812764	-9.619113682706896	-2.039826525062412	-0.3659318078798833	-0.7326091711126765	0.3612967300173071	0.1704312114989733	-0.4419551934826884	0.640495867768595
1792.999267578125	0.1638811363354971	-9.600345099251523	-2.129371211183234	-0.3696569136155852	0.01837271520790595	0.733807303587505	0.1704312114989733	-0.4419551934826884	0.640495867768595
1796.905517578125	0.01033326209483762	-9.699992245256004	-2.011108736494588	-0.003650733907402479	0.007337975153878983	0.3650733907402479	0.1704312114989733	-0.4419551934826884	0.640495867768595
1800.811767578125	0.1110863134551643	-9.610748758649496	-2.036210448505477	-0.7247108916015605	0.007393529800295976	0.007321044214018567	0.1704312114989733	-0.4419551934826884	0.640495867768595
1804.718017578125	0.1300383820396975	-9.551287589807165	-2.001279401323248	0	0	0	0.162217659137577	-0.4093686354378818	0.6301652892561984
1808.624267578125	0.0538547255175503	-9.749253638749325	-2.12849085058501	-0.3587418978075275	0.3681807453296208	-0.3576942772182636	0.162217659137577	-0.4093686354378818	0.6301652892561984
1812.530517578125	0.09935009987847396	-9.501210134372627	-1.978336662615799	-0.3587047118933778	-0.003641210253730994	-0.3614128686332386	0.162217659137577	-0.4093686354378818	0.6301652892561984
1816.436767578125	0.02652122447144847	-9.691424804087566	-1.884040815714949	0.003576362079102979	0.7363059360128246	-0.3576362079102978	0.1642710472279261	-0.4236252545824847	0.6487603305785125
1820.343017578125	-0.1717886093588457	-9.405544983692694	-2.273713021371811	-0.3624298176290798	0.7473406760668516	0.01109770493695932	0.1642710472279261	-0.4236252545824847	0.6487603305785125
1824.249267578125	-0.1881831896602713	-9.767512564656821	-2.060560344657625	0.3621695162300315	1.855413013016611	0.0149324349678658	0.1642710472279261	-0.4236252545824847	0.6487603305785125
1828.155517578125	-0.2309444252985511	-9.944672030846533	-2.301852490048298	-0.007413025557254208	1.130141817057813	0.7413025557254208	0.1642710472279261	-0.4236252545824847	0.6487603305785125
1832.061767578125	-0.05310711562165578	-9.837171300717669	-2.229762812611474	-0.0002603013990482511	2.602753689083463	0.02603013990482511	0.1663244353182751	-0.4317718940936863	0.6487603305785125
1835.968017578125	-0.3077526673033443	-9.796173362428082	-2.074911089888523	0.003501990250803478	1.479949847179528	-0.3501990250803478	0.1663244353182751	-0.4317718940936863	0.6487603305785125
1839.874267578125	-0.1337062445141758	-9.826565019059583	-2.209791849527473	-0.3587047118933778	-0.003641210253730994	-0.3614128686332386	0.1663244353182751	-0.4317718940936863	0.6487603305785125
1843.780517578125	-0.2928572498838761	-9.978023844129121	-1.904758337204133	-0.003650733907402479	0.007337975153878983	0.3650733907402479	0.1540041067761807	-0.415478615071283	0.6508264462809917
1847.686767578125	-0.3482734391080415	-9.362608411978268	-2.390885363065284	-0.7283244395948133	-0.3570904506291769	0.3686758435392914	0.1540041067761807	-0.415478615071283	0.6508264462809917
1851.593017578125	-0.215206763819151	-9.846250186968192	-2.159774539361635	-0.7209114140375591	-1.48723226768699	-0.3726267121861294	0.1540041067761807	-0.415478615071283	0.6508264462809917
1855.499267578125	-0.3847012833181262	-9.69438674827286	-2.176623889395795	-0.7318636157597666	-1.465218342225353	0.7225934600346142	0.1540041067761807	-0.415478615071283	0.6508264462809917
1859.405517578125	-0.3023750809319257	-9.804434609501325	-2.25416396893581	-0.7318636157597666	-1.465218342225353	0.7225934600346142	0.1540041067761807	-0.415478615071283	0.6508264462809917
1863.311767578125	-0.07004584236629577	-9.76598148903177	-2.331805254456809	-0.7318636157597666	-1.465218342225353	0.7225934600346142	0.1540041067761807	-0.415478615071283	0.6508264462809917
1867.218017578125	-0.1372510825754057	-9.777711183366046	-2.09163058081981	-1.086843221917442	-2.219841438799667	-0.01132998216882224	0.1540041067761807	-0.415478615071283	0.6508264462809917
1871.124267578125	0.04341026827996886	-9.659297346589478	-2.113675609332295	-1.086768850089143	-2.96348534996637	-0.01876716499877227	0.1745379876796715	-0.4317718940936863	0.6322314049586777
1875.030517578125	-0.2172043332983713	-9.776896067766472	-2.093188890054291	-0.7281385100240645	-2.216200228545936	0.3500828864644163	0.1745379876796715	-0.4317718940936863	0.6322314049586777
1878.936767578125	0.04515311413432215	-9.558733826429904	-2.171770471144072	-1.445473561982521	-2.967126560220101	-0.3801800336320109	0.1745379876796715	-0.4317718940936863	0.6322314049586777
1882.843017578125	0.1150120540266442	-9.562812769198052	-1.833735134221475	-0.3621695162300315	-1.855413013016611	-0.0149324349678658	0.1704312114989733	-0.4378818737270875	0.6508264462809917
1886.749267578125	0.07515450998824171	-9.852366708437135	-1.838483666274723	-1.80794056552575	-1.847963928569898	-0.3653637372800765	0.1704312114989733	-0.4378818737270875	0.6508264462809917
1890.655517578125	0.02384228901115973	-9.728957659886392	-2.128076300371991	-0.3622810739724808	-0.7399471462665556	-0.003776660722940747	0.1704312114989733	-0.4378818737270875	0.6508264462809917
1894.561767578125	-0.07582404669880549	-9.771183108432615	-1.805865110039817	-1.438283651910165	-1.866336643777804	-1.099171040867581	0.1704312114989733	-0.4378818737270875	0.6508264462809917
1898.468017578125	0.03864780397479261	-9.85083721004815	-1.954926799159754	-0.3586303400650783	-0.7472851214204346	-0.3688500514631886	0.1601642710472279	-0.4093686354378818	0.6363636363636364
1902.374267578125	0.08523935740248147	-9.702439274439865	-1.841311913416049	-0.7209114140375591	-1.48723226768699	-0.3726267121861294	0.1601642710472279	-0.4093686354378818	0.6363636363636364
1906.280517578125	-0.0833245928167938	-9.750274951677431	-1.889180239440207	0.3660061797081828	-0.01103474005402697	-0.3687339128472572	0.1601642710472279	-0.4093686354378818	0.6363636363636364
1910.186767578125	0.07867016918222676	-9.67122997863108	-1.955672306074225	0.003650733907402479	-0.007337975153878983	-0.3650733907402479	0.1786447638603696	-0.4195519348268839	0.6446280991735538
1914.093017578125	-0.07468685949429082	-9.617482084569822	-2.17710468352364	0.003650733907402479	-0.007337975153878983	-0.3650733907402479	0.1786447638603696	-0.4195519348268839	0.6446280991735538
1917.999267578125	-0.1517821584633305	-9.909076231236478	-1.940594717888985	-1.079802055501686	0.3682362999760378	-0.7154466237444929	0.1786447638603696	-0.4195519348268839	0.6446280991735538
1921.905517578125	0.1590989565794797	-9.7085580040393	-2.303298552649323	-0.3587790837216773	0.7400027009129726	-0.3539756858032885	0.1704312114989733	-0.4236252545824847	0.6590909090909091
1925.811767578125	0.0004589756955808128	-9.779851597858428	-2.015299189852694	0.7208370422092596	2.230876178853694	0.3800638950160794	0.1704312114989733	-0.4236252545824847	0.6590909090909091
1929.718017578125	-0.07079660673432486	-9.686224236177432	-2.306779775522505	-0.0002603013990482511	2.602753689083463	0.02603013990482511	0.1704312114989733	-0.4236252545824847	0.6590909090909091
1933.624267578125	-0.2060382905600056	-9.716619047281069	-2.132056981333148	0.3622067021441813	1.483591057433259	0.01121384355289078	0.1704312114989733	-0.4236252545824847	0.6590909090909091
1937.530517578125	0.07391874552952152	-9.589432938945455	-2.130624850984051	0.7208742281234094	1.859054223270342	0.3763453036011044	0.1745379876796715	-0.415478615071283	0.6342975206611571
1941.436767578125	0.08062278743352935	-9.710598632063158	-2.020759581117645	0.358518782322629	1.86275098817049	0.3800058257081136	0.1745379876796715	-0.415478615071283	0.6342975206611571
1945.343017578125	-0.2015620946010422	-9.755171743921004	-2.281263513298597	-0.00383666347815123	1.866447753070638	0.3836663478151229	0.1745379876796715	-0.415478615071283	0.6342975206611571
1949.249267578125	-0.2823063292117526	-9.717945713111799	-1.923122359608246	-1.08717789514479	1.126556161450499	0.0221373405659529	0.1663244353182751	-0.4215885947046843	0.6528925619834711
1953.155517578125	-0.2354797676100379	-9.656138458193913	-2.150674412998738	0.3513660581644231	0.3901391161448408	1.095278241528709	0.1663244353182751	-0.4215885947046843	0.6528925619834711
1957.061767578125	-0.116691810438306	-9.737730352041721	-2.110272985389799	-0.003762291649851729	1.122803841903934	0.3762291649851729	0.1663244353182751	-0.4215885947046843	0.6528925619834711
1960.968017578125	-0.2199132362439385	-9.794438613052206	-2.336225458535384	-0.3587790837216773	0.7400027009129726	-0.3539756858032885	0.1663244353182751	-0.4215885947046843	0.6528925619834711
1964.874267578125	-0.2763877508692543	-9.666032039447726	-2.120408304358192	-0.7210229717800084	-0.3717664009369348	-0.3614709379412043	0.1827515400410678	-0.4175152749490835	0.6570247933884298
1968.780517578125	-0.2848196548849762	-9.655425021746142	-2.172678170500796	0.003576362079102979	0.7363059360128246	-0.3576362079102978	0.1827515400410678	-0.4175152749490835	0.6570247933884298
1972.686767578125	-0.1856895794378889	-9.746706297351583	-2.143680685403705	-0.7172978660443063	-1.122748287257517	-0.7339815115114022	0.1827515400410678	-0.4175152749490835	0.6570247933884298
1976.593017578125	-0.219477919089367	-9.874297860505562	-2.350736030354434	-0.3623182598866305	-0.3681251906832038	-5.806930796573191e-05	0.1724845995893224	-0.4093686354378818	0.6322314049586777
1980.499267578125	-0.2436514276746572	-9.678780628281473	-1.878285744178093	-0.003613547993252729	-0.3644839804294728	0.3613547993252729	0.1724845995893224	-0.4093686354378818	0.6322314049586777
1984.405517578125	-0.0933242694834	-9.886841513799633	-2.222524350553334	0.358816269635827	-1.111824656496325	0.3502570943883135	0.1724845995893224	-0.4093686354378818	0.6322314049586777
1988.311767578125	-0.1377313509578949	-9.667866470143053	-2.075621634736837	-0.3622810739724808	-0.7399471462665556	-0.003776660722940747	0.1704312114989733	-0.4215885947046843	0.6384297520661157
1992.218017578125	-0.4119748493936711	-9.676538534637286	-1.934171686877632	-1.08322967392419	-1.855357458370194	-0.3726847814940951	0.1704312114989733	-0.4215885947046843	0.6384297520661157
1996.124267578125	-0.01034666860140959	-9.870012089514455	-1.988444379953014	-0.7245993338591113	-1.108072336949759	-0.003834730030906479	0.1704312114989733	-0.4215885947046843	0.6384297520661157
2000.06103515625	-0.01809641801802941	-9.542517841825829	-1.73011939939902	-1.086917593745742	-1.476197527632963	-0.00389279933887221	0.1704312114989733	-0.4215885947046843	0.6384297520661157
2003.936767578125	-0.1212413478743984	-9.229201369146056	-1.958621737520054	-0.3658574360515838	-1.47625308227938	0.3538595471873571	0.1581108829568789	-0.4215885947046843	0.6446280991735538
2007.843017578125	-0.2049421114932404	-9.816264616049482	-2.168596283558655	-0.3658946219657335	-1.104431126696028	0.3575781386023321	0.1581108829568789	-0.4215885947046843	0.6446280991735538
2011.749267578125	-0.2326817508266689	-9.908567099433956	-1.910608305777705	-1.44562230563912	-1.479838737886694	-0.3653056679721108	0.1581108829568789	-0.4215885947046843	0.6446280991735538
2015.655517578125	0.01598134445179611	-9.678166031960586	-2.199378148393204	0.3514776159068723	-0.7253267506052147	1.084122467283784	0.1848049281314169	-0.4399185336048879	0.6528925619834711
2019.561767578125	-0.0247318501531102	-9.817996631549505	-2.175604994896327	0.7210229717800084	0.3717664009369348	0.3614709379412043	0.1848049281314169	-0.4399185336048879	0.6528925619834711
2023.468017578125	-0.0180569871163472	-9.709171759167619	-2.064767096121761	-0.3624670035432295	1.119162631650203	0.01481629635193433	0.1848049281314169	-0.4399185336048879	0.6528925619834711
2027.374267578125	-0.2945141363725621	-9.855226237427129	-2.182862120914597	-0.3587418978075275	0.3681807453296208	-0.3576942772182636	0.1848049281314169	-0.4399185336048879	0.6528925619834711
2031.280517578125	-0.1403456197394249	-9.818711750382413	-1.988479342019172	0.3623182598866305	0.3681251906832038	5.806930796573191e-05	0.1848049281314169	-0.4399185336048879	0.6528925619834711
2035.186767578125	-0.1787844399353018	-9.651140302245746	-1.707185335489941	-0.3660805515364823	0.7546786512207306	0.3761710956772072	0.1848049281314169	-0.4399185336048879	0.6528925619834711
2039.093017578125	-0.1592211923746945	-9.508148185534484	-2.02596025417685	-3.718591414975016e-05	0.3718219555833518	0.003718591414975016	0.1848049281314169	-0.4399185336048879	0.6528925619834711
2042.999267578125	-0.2369363451181784	-9.52660941825488	-2.102121829394055	-0.3660061797081828	0.01103474005402697	0.3687339128472572	0.162217659137577	-0.4338085539714867	0.6446280991735538
2046.905517578125	-0.3516092933903557	-9.663687004862883	-2.279690220321478	-3.718591414975016e-05	0.3718219555833518	0.003718591414975016	0.162217659137577	-0.4338085539714867	0.6446280991735538
2050.811767578125	-0.5041493137840182	-9.3830082781235	-2.195022873866066	0	0	0	0.162217659137577	-0.4338085539714867	0.6446280991735538
2054.718017578125	-0.1668928686059836	-9.723962027515936	-2.436904379800548	-1.083415603494938	0.003752319546564981	-0.35409182441922	0.1683778234086242	-0.4317718940936863	0.6528925619834711
2058.624267578125	-0.2331517671747207	-9.735385738053161	-2.22827442750931	-0.7209857858658586	-0.7435883565202867	-0.3651895293561793	0.1683778234086242	-0.4317718940936863	0.6528925619834711
2062.530517578125	-0.05570561204251284	-9.788011481227079	-2.143146265249573	-0.362243888058331	-1.111769101849907	-0.007495252137915762	0.1683778234086242	-0.4317718940936863	0.6528925619834711
2066.436767578125	-0.3739413788670871	-9.78424104583369	-2.201954037763763	7.437182829950031e-05	-0.7436439111667036	-0.007437182829950031	0.1683778234086242	-0.4317718940936863	0.6528925619834711
2070.343017578125	-0.1008043115325136	-9.739260060728848	-1.973189615582882	-0.7245621479449615	-1.479894292533111	-0.007553321445881495	0.1704312114989733	-0.4236252545824847	0.6570247933884298
2074.249267578125	0.0473162934006077	-9.528034398467138	-2.243876446686924	-1.449273039546522	-1.472500762732815	-0.0002322772318629276	0.1704312114989733	-0.4236252545824847	0.6570247933884298
2078.155517578125	-0.1915781902951088	-9.818610281528752	-1.947393656829708	-1.438246465996015	-2.238158599361156	-1.102889632282557	0.1704312114989733	-0.4236252545824847	0.6570247933884298
2082.061767578125	-0.1172469975339914	-9.577909862535991	-2.091766748866953	0.0001115577424492505	-1.115465866750055	-0.01115577424492505	0.1642710472279261	-0.4317718940936863	0.6466942148760331
2085.968017578125	-0.1784137894594891	-9.617687125258568	-2.052873684683697	-1.087029151488191	-0.3607316608829078	0.007262974906052836	0.1642710472279261	-0.4317718940936863	0.6466942148760331
2089.874267578125	0.1952452641515535	-9.680204031257665	-2.174842138385115	-0.7246737056874109	-0.3644284257830558	0.003602452799043552	0.1642710472279261	-0.4317718940936863	0.6466942148760331
2093.780517578125	-0.2139292026046477	-9.645837108842169	-2.202359913178412	-0.7284359973372625	0.7583754161208786	0.3798316177842165	0.1642710472279261	-0.4317718940936863	0.6466942148760331
2097.686767578125	-0.06846387459080584	-9.838803319451028	-2.051204180306473	-0.3623554458007803	0.003696764900147988	0.003660522107009284	0.1642710472279261	-0.4317718940936863	0.6466942148760331
2101.593017578125	0.06212180836424058	-9.649913948628896	-2.070726945474686	-0.3623554458007803	0.003696764900147988	0.003660522107009284	0.1642710472279261	-0.4317718940936863	0.6466942148760331
2105.499267578125	0.5110173882390239	-9.724771044469383	-2.033912941300794	-0.0001115577424492505	1.115465866750055	0.01115577424492505	0.1642710472279261	-0.4317718940936863	0.6466942148760331
2109.405517578125	-0.3272599229835629	-9.695814041764686	-2.091335900547906	-0.0001487436565990006	1.487287822333407	0.01487436565990006	0.1868583162217659	-0.4236252545824847	0.6363636363636364
2113.311767578125	-0.03914147886385379	-9.609322411499312	-2.028617371204874	-0.00387384939230098	2.23826970865399	0.387384939230098	0.1868583162217659	-0.4236252545824847	0.6363636363636364
2117.218017578125	-0.07757162426136066	-9.798414825177842	-2.080945857954645	-1.083564347151537	1.491040141879972	-0.33921745875932	0.1868583162217659	-0.4236252545824847	0.6363636363636364
2121.124267578125	-0.1306211707665604	-9.63890084521452	-1.97929430778132	0.007189910072355707	1.100789916442297	-0.7189910072355706	0.162217659137577	-0.4236252545824847	0.6487603305785125
2125.030517578125	0.1340729518998203	-9.85664974555239	-2.469098396660676	-7.437182829950031e-05	0.7436439111667036	0.007437182829950031	0.162217659137577	-0.4236252545824847	0.6487603305785125
2128.936767578125	-0.2275738718227565	-9.736915551889359	-2.080870939241449	0.362243888058331	1.111769101849907	0.007495252137915762	0.162217659137577	-0.4236252545824847	0.6487603305785125
2132.843017578125	-0.07351576171432947	-9.767103429620969	-2.216141276189019	0.3659318078798833	0.7326091711126765	-0.3612967300173071	0.162217659137577	-0.4236252545824847	0.6487603305785125
2136.749267578125	-0.2189913417626087	-9.637473867169909	-2.033621941246379	0.3622067021441813	1.483591057433259	0.01121384355289078	0.1786447638603696	-0.4175152749490835	0.6446280991735538
2140.655517578125	-0.1488666375929485	-9.538133546155054	-2.037778746901717	0.7209114140375591	1.48723226768699	0.3726267121861294	0.1786447638603696	-0.4175152749490835	0.6446280991735538
2144.561767578125	-0.3981204077786129	-9.725392265181751	-2.062653074046239	-0.003762291649851729	1.122803841903934	0.3762291649851729	0.1786447638603696	-0.4175152749490835	0.6446280991735538
2148.468017578125	-0.2577810969834572	-9.586682554691318	-2.073963433884761	-0.3624298176290798	0.7473406760668516	0.01109770493695932	0.1806981519507187	-0.4256619144602851	0.6528925619834711
2152.374267578125	-0.2177902764973688	-9.80708552273415	-2.073657450087707	-0.7283244395948133	-0.3570904506291769	0.3686758435392914	0.1806981519507187	-0.4256619144602851	0.6528925619834711
2156.280517578125	-0.3140813270233376	-9.714886295737545	-2.197289099222081	0.3550167920718256	0.3828011409909618	0.7302048507884614	0.1806981519507187	-0.4256619144602851	0.6528925619834711
2160.186767578125	-0.02727041160341031	-9.808817433085103	-2.090986279886323	7.437182829950031e-05	-0.7436439111667036	-0.007437182829950031	0.1806981519507187	-0.4256619144602851	0.6528925619834711
2164.093017578125	-0.1963445976904533	-9.726818086586579	-2.121846743651559	-0.003613547993252729	-0.3644839804294728	0.3613547993252729	0.1806981519507187	-0.4256619144602851	0.6528925619834711
2167.999267578125	-0.05361735148942347	-9.707336276981581	-2.212754950352552	-0.3587047118933778	-0.003641210253730994	-0.3614128686332386	0.1806981519507187	-0.4256619144602851	0.6528925619834711
2171.905517578125	-0.04631159402574524	-9.59830741540166	-2.122946865808492	-0.3623182598866305	-0.3681251906832038	-5.806930796573191e-05	0.1806981519507187	-0.4256619144602851	0.6528925619834711
2175.811767578125	-0.008783627658727141	-9.649506706276322	-2.040545744709096	0.3550911639001251	-0.3608427701757418	0.7227676679585114	0.1663244353182751	-0.4297352342158859	0.640495867768595
2179.718017578125	-0.09254196039402515	-9.566588567194067	-2.248601320199163	0.007227095986505457	0.7289679608589457	-0.7227095986505457	0.1663244353182751	-0.4297352342158859	0.640495867768595
2183.624267578125	-0.07205918420618895	-9.896632469560002	-2.264693859793703	0.3696197277014355	0.3534492403754458	-0.73008871217253	0.1663244353182751	-0.4297352342158859	0.640495867768595
2187.530517578125	-0.2252458713874394	-9.816162831748604	-2.158470953752021	0.007227095986505457	0.7289679608589457	-0.7227095986505457	0.1663244353182751	-0.4134419551934826	0.6384297520661157
2191.436767578125	-0.4940810273484849	-9.643086198842676	-2.19729908838384	0.003539176164953228	1.108127891596177	-0.3539176164953228	0.1663244353182751	-0.4134419551934826	0.6384297520661157
2195.343017578125	-0.1877667993385072	-9.554044598452784	-2.407773355383093	0.003576362079102979	0.7363059360128246	-0.3576362079102978	0.1663244353182751	-0.4134419551934826	0.6384297520661157
2199.249267578125	-0.4979870524691237	-9.774349146965015	-2.067098251029212	-0.7137215039652034	-0.3864423512446928	-1.0916177194217	0.1663244353182751	-0.4134419551934826	0.6384297520661157
2203.155517578125	-0.1727664957205643	-9.805861166949651	-2.241116809314525	-1.083304045752489	-1.11171354720349	-0.3652475986641451	0.162217659137577	-0.4317718940936863	0.6322314049586777
2207.061767578125	-0.220268902977112	-9.837886945295933	-1.991036567429602	-0.3622810739724808	-0.7399471462665556	-0.003776660722940747	0.162217659137577	-0.4317718940936863	0.6322314049586777
2210.968017578125	-0.2296163925298945	-9.637575966917998	-2.012786915670182	-1.442008757645867	-1.115354757457222	-0.7266604672973836	0.162217659137577	-0.4317718940936863	0.6322314049586777
2214.874267578125	-0.3890434142113702	-9.955790703928342	-2.031886192954329	-0.7209114140375591	-1.48723226768699	-0.3726267121861294	0.1663244353182751	-0.4399185336048879	0.6508264462809917
2218.780517578125	0.2979564540894183	-9.493660746511088	-1.931881802980608	-0.7245249620308118	-1.851716248116463	-0.01127191286085651	0.1663244353182751	-0.4399185336048879	0.6508264462809917
2222.686767578125	0.0516371316069433	-9.603303994113755	-1.721237720231444	-0.3549052343293763	-1.498267007741017	-0.7413606250333865	0.1663244353182751	-0.4399185336048879	0.6508264462809917
2226.593017578125	-0.1924038733763341	-9.688877252391681	-1.919870887455532	-0.7245993338591113	-1.108072336949759	-0.003834730030906479	0.1663244353182751	-0.4399185336048879	0.6508264462809917
2230.499267578125	0.01502080768681768	-9.458476605514598	-2.167360256227257	-0.3586303400650783	-0.7472851214204346	-0.3688500514631886	0.1663244353182751	-0.4399185336048879	0.6508264462809917
2234.405517578125	-0.1021717752028523	-9.879702207315589	-1.927607493238257	-0.7282872536806635	-0.7289124062125286	0.3649572521243164	0.1663244353182751	-0.4399185336048879	0.6508264462809917
2238.311767578125	-0.1923439384057771	-9.728857873417867	-1.92186871980743	-0.3623182598866305	-0.3681251906832038	-5.806930796573191e-05	0.1663244353182751	-0.4399185336048879	0.6508264462809917
2242.218017578125	-0.1303214959137757	-9.838803950345454	-1.989283469540811	-0.36239263171493	0.3755187204834998	0.007379113521984299	0.1765913757700205	-0.4215885947046843	0.6652892561983471
2246.124267578125	0.05029490371368118	-9.690404647799243	-2.009830123789373	-0.3623554458007803	0.003696764900147988	0.003660522107009284	0.1765913757700205	-0.4215885947046843	0.6652892561983471
2250.030517578125	-0.1101076384754121	-9.778934803107049	-1.996412050819597	-0.003613547993252729	-0.3644839804294728	0.3613547993252729	0.1765913757700205	-0.4215885947046843	0.6652892561983471
2253.936767578125	-0.04204043875552921	-9.570259741864287	-1.931985374815693	0	0	0	0.1724845995893224	-0.4195519348268839	0.640495867768595
2257.843017578125	-0.008904286217874677	-9.779545719210445	-2.036523792737511	-0.003687919821552229	0.3791599307372308	0.3687919821552229	0.1724845995893224	-0.4195519348268839	0.640495867768595
2261.749267578125	-0.1329539029100794	-9.486321761940927	-2.234869902997353	-3.718591414975016e-05	0.3718219555833518	0.003718591414975016	0.1724845995893224	-0.4195519348268839	0.640495867768595
2265.655517578125	-0.2351643203965803	-9.656036463594896	-2.161189320113992	-0.3624298176290798	0.7473406760668516	0.01109770493695932	0.1724845995893224	-0.4195519348268839	0.640495867768595
2269.561767578125	-0.1042789625887491	-9.667050197903695	-2.190701247041697	-0.7174094237867555	-0.007282420507461989	-0.7228257372664771	0.1540041067761807	-0.4256619144602851	0.6632231404958678
2273.468017578125	-0.2772591737964309	-9.716313799527512	-2.091360873452304	-0.7211345295224576	0.7436994658131205	-0.3503151636962792	0.1540041067761807	-0.4256619144602851	0.6632231404958678
2277.374267578125	-0.1179685830347757	-9.728143175181245	-2.06771389884081	-1.083378417580789	-0.3680696360367868	-0.357810415834195	0.1540041067761807	-0.4256619144602851	0.6632231404958678
2281.280517578125	-0.05041713950889602	-9.526301541774544	-2.3194286830368	-0.362243888058331	-1.111769101849907	-0.007495252137915762	0.1540041067761807	-0.415478615071283	0.6590909090909091
2285.186767578125	-0.2254414486597831	-9.896226068399995	-2.151951711340564	-0.362243888058331	-1.111769101849907	-0.007495252137915762	0.1540041067761807	-0.415478615071283	0.6590909090909091
2289.093017578125	0.04195369077182835	-9.529768306650444	-2.065123025727612	-0.7245621479449615	-1.479894292533111	-0.007553321445881495	0.1540041067761807	-0.415478615071283	0.6590909090909091
2292.999267578125	-0.2318300433503333	-9.774958380683275	-2.272331888322223	0.0001115577424492505	-1.115465866750055	-0.01115577424492505	0.1540041067761807	-0.415478615071283	0.6590909090909091
2296.905517578125	-0.06069677557744586	-9.546291957436708	-2.310107480751805	-0.007227095986505457	-0.7289679608589457	0.7227095986505457	0.1540041067761807	-0.415478615071283	0.6590909090909091
2300.811767578125	-0.2856319314596295	-9.955687657838613	-2.145602284679018	-0.007189910072355707	-1.100789916442297	0.7189910072355706	0.1540041067761807	-0.415478615071283	0.6590909090909091
2304.718017578125	-0.03830081203998926	-9.749050595892928	-2.056639598667025	-0.7282500677665138	-1.10073436179588	0.3612386607093414	0.1540041067761807	-0.415478615071283	0.6590909090909091
2308.624267578125	0.002727041160341021	-9.819118256691489	-2.090901372011368	-0.3658574360515838	-1.47625308227938	0.3538595471873571	0.1581108829568789	-0.4195519348268839	0.6487603305785125
2312.530517578125	0.008230806417142652	-9.560672039258458	-1.941026880571422	-0.01084064397975819	-1.093451941288418	1.084064397975818	0.1581108829568789	-0.4195519348268839	0.6487603305785125
2316.436767578125	-0.02992884299482431	-9.719676992568326	-2.002371900172523	-0.365968993794033	-0.3607872155293249	0.3650153214322821	0.1581108829568789	-0.4195519348268839	0.6487603305785125
2320.343017578125	0.06149012531929172	-9.860118192813429	-2.049670843976391	-0.003687919821552229	0.3791599307372308	0.3687919821552229	0.1827515400410678	-0.405295315682281	0.6590909090909091
2324.249267578125	0.3721859151241956	-9.676326554109846	-1.73953050413985	0.3513288722502733	0.7619610717281925	1.098996832943684	0.1827515400410678	-0.405295315682281	0.6590909090909091
2328.155517578125	0.07763313646798486	-9.82156528587535	-1.921104548932829	-0.3587418978075275	0.3681807453296208	-0.3576942772182636	0.1827515400410678	-0.405295315682281	0.6590909090909091
2332.061767578125	-0.0008469757681336907	-9.540273855498363	-1.971767474395544	0.3549424202435261	1.126445052157665	0.7376420336184115	0.1827515400410678	-0.405295315682281	0.6590909090909091
2335.968017578125	0.1224668602986812	-9.763735715170094	-1.748895343289373	-0.00391103530645073	2.610091664237342	0.391103530645073	0.1663244353182751	-0.4358452138492871	0.6384297520661157
2339.874267578125	0.09905042502568924	-9.301307029241695	-1.968347500856308	0.3584815964084793	2.234572943753842	0.3837244171230887	0.1663244353182751	-0.4358452138492871	0.6384297520661157
2343.780517578125	0.08062751914173122	-9.783930435477506	-1.687583971391041	0.7171119364735575	2.981858065174276	0.7525744685862773	0.1663244353182751	-0.4358452138492871	0.6384297520661157
2347.686767578125	-0.09760409955198612	-9.558225325521809	-2.07986334826713	0.361946400745133	4.086344746516722	0.03724398345771589	0.1745379876796715	-0.4114052953156823	0.6508264462809917
2351.593017578125	0.1577819644632942	-9.742317164823536	-1.926065482109806	1.445287632411772	4.82623633813686	0.3987729907068859	0.1745379876796715	-0.4114052953156823	0.6508264462809917
2355.499267578125	0.2183028782192374	-9.692748736042446	-1.94342927397458	1.086582920518394	4.82259512788313	0.03736012207364735	0.1745379876796715	-0.4114052953156823	0.6508264462809917
2359.405517578125	-0.03405962425505171	-9.701012611842467	-1.864679191498277	0.361797657088534	5.573632568850129	0.05211834911761595	0.1806981519507187	-0.415478615071283	0.6673553719008265
2363.311767578125	-0.08870691089641425	-9.668681901189842	-2.043102970119525	0.3617604711743843	5.94545452443348	0.05583694053259097	0.1806981519507187	-0.415478615071283	0.6673553719008265
2367.218017578125	-0.2653273829473968	-9.745789187152992	-2.15575390175344	-0.3591509428631748	4.458222256746491	-0.3167897716535384	0.1806981519507187	-0.415478615071283	0.6673553719008265
2371.124267578125	-0.2888013873368449	-9.946712448572248	-2.039953755438507	0.01050597075241043	4.439849541538584	-1.050597075241043	0.1806981519507187	-0.415478615071283	0.6673553719008265
2375.030517578125	-0.2981638606322666	-9.736406314937767	-2.061204645591113	0.003278874765904977	3.710881580679639	-0.3278874765904977	0.1601642710472279	-0.415478615071283	0.628099173553719
2378.936767578125	-0.3325933467450974	-9.927538515447582	-1.913555108496755	0.3657086923949848	2.963540904612787	-0.338985181527457	0.1601642710472279	-0.415478615071283	0.628099173553719
2382.843017578125	-0.4839961799342451	-9.493158764845406	-2.200127335525166	0.373121717952239	1.833399087554974	-1.080287737252878	0.1601642710472279	-0.415478615071283	0.628099173553719
2386.749267578125	-0.5686866591853104	-9.630542019803251	-2.377111360489658	0.3804603716811937	1.446901181663864	-1.814153110148349	0.1683778234086242	-0.4338085539714867	0.6570247933884298
2390.655517578125	-0.6307706138839361	-9.900615831822474	-2.307646203868802	-7.437182829950031e-05	0.7436439111667036	0.007437182829950031	0.1683778234086242	-0.4338085539714867	0.6570247933884298
2394.561767578125	-0.5733434486739782	-9.682047715071255	-2.221885044200727	-0.007338653728954708	0.3864979058911098	0.7338653728954707	0.1683778234086242	-0.4338085539714867	0.6570247933884298
2398.468017578125	-0.5454334678452827	-9.563023487936642	-2.15221773849058	-0.3586303400650783	-0.7472851214204346	-0.3688500514631886	0.1683778234086242	-0.4338085539714867	0.6570247933884298
2402.374267578125	-0.4370458053012482	-9.794644810380737	-2.098473156625062	0.0002974873131980013	-2.974575644666814	-0.02974873131980012	0.1683778234086242	-0.4338085539714867	0.6570247933884298
2406.280517578125	-0.532836083375853	-9.685617000291526	-1.905463887471567	-0.369247868559938	-4.071668796208963	0.6929027980227799	0.1683778234086242	-0.4338085539714867	0.6570247933884298
2410.186767578125	-0.4527811009265473	-9.263065889299584	-2.240629969115089	-0.365522762824236	-4.822650682529546	0.3203922244525819	0.1683778234086242	-0.4338085539714867	0.6570247933884298
2414.093017578125	-0.3079774234429329	-9.646246033579882	-2.067419218568905	-0.003204502937605477	-4.454525491846343	0.3204502937605477	0.1704312114989733	-0.4195519348268839	0.6549586776859504
2417.999267578125	-0.2340523689691422	-9.555676932633357	-2.198254367695261	-0.7169260069028088	-4.840967843091036	-0.7711674256611524	0.1704312114989733	-0.4195519348268839	0.6549586776859504
2421.905517578125	-0.2544168524519318	-9.725594782292792	-2.186104918268941	-1.456239834133979	-4.804222412675223	0.6964471815138576	0.1704312114989733	-0.4195519348268839	0.6549586776859504
2425.811767578125	-0.2421144111270851	-9.721616992931091	-2.596186295763833	-0.3729357883814902	-3.692508865471733	1.061694780178003	0.162217659137577	-0.4297352342158859	0.6342975206611571
2429.718017578125	-0.316054449343515	-9.802190938621072	-2.464851688549503	-0.006966794587457206	-3.331721649942408	0.6966794587457206	0.162217659137577	-0.4297352342158859	0.6342975206611571
2433.624267578125	-0.2189676832215993	-10.00413288424165	-2.367743892613356	-1.090345212168246	-3.699791285979195	0.3388690429115255	0.162217659137577	-0.4297352342158859	0.6342975206611571
2437.530517578125	-0.1937965728237494	-9.882660891879679	-2.540114239208354	-0.727915394539166	-4.447131962046047	0.3277713379745663	0.162217659137577	-0.4297352342158859	0.6342975206611571
2441.436767578125	-0.04867665950864367	-10.05573878657446	-2.377444683045212	-1.082932186610992	-4.829933103037009	-0.4024335128138952	0.1848049281314169	-0.4175152749490835	0.6487603305785125
2445.343017578125	-0.08846322792401826	-10.11193644369543	-2.717892402532726	-1.44156252667607	-5.577218224457443	-0.7712835642770838	0.1848049281314169	-0.4175152749490835	0.6487603305785125
2449.249267578125	-0.1206380550786607	-9.912339637808765	-2.645398164044643	-1.42688521921816	-6.350214036239662	-2.239014310068025	0.1848049281314169	-0.4175152749490835	0.6487603305785125
2453.155517578125	-0.00402747229782004	-9.804635549376297	-2.532417590072666	-1.807531520470103	-5.938005439986767	-0.4062682428448017	0.1827515400410678	-0.4276985743380855	0.6198347107438017
2457.061767578125	-0.2978444703286409	-10.01963637873959	-2.738517655711973	-1.456277020048129	-4.432400457091871	0.7001657729288326	0.1827515400410678	-0.4276985743380855	0.6198347107438017
2460.968017578125	-0.005565277463425882	-9.971799439713175	-2.814490751219138	-1.807680264126702	-4.45071761765336	-0.3913938771849017	0.1827515400410678	-0.4276985743380855	0.6198347107438017
2464.874267578125	-0.1280179426375015	-9.76139246811946	-2.732735245416618	-2.169961338099183	-5.190664763919917	-0.3951705379078424	0.1827515400410678	-0.4276985743380855	0.6198347107438017
2468.780517578125	0.1060975157743322	-10.07236180323297	-2.86991719247774	-1.45612827639153	-5.919688279425278	0.6852914072689326	0.1827515400410678	-0.4276985743380855	0.6198347107438017
2472.686767578125	-0.2915899407038101	-9.840947414160897	-2.613668643206331	-2.539432322144019	-7.031401826628769	0.3200438086047875	0.1827515400410678	-0.4276985743380855	0.6198347107438017
2476.593017578125	0.1338931469881494	-9.736707882473832	-2.463104899604981	-2.180616052508192	-8.143226483125094	0.6703009029931011	0.1827515400410678	-0.4276985743380855	0.6198347107438017
2480.499267578125	0.2425071429078398	-9.698256023793133	-2.416904763594657	-2.897951104466648	-8.894152814799259	-0.0599620171033261	0.1765913757700205	-0.4215885947046843	0.6570247933884298
2484.405517578125	0.324087312634213	-9.801878435581605	-2.136243754473764	-2.908903306188856	-8.872138889337622	1.035258155117418	0.1765913757700205	-0.4215885947046843	0.6570247933884298
2488.311767578125	0.4398414562305163	-9.754451262485466	-1.994715207683873	-2.557611619852732	-7.738355862026078	2.137973579476077	0.1765913757700205	-0.4215885947046843	0.6570247933884298
2492.218017578125	0.4631395987984617	-9.716918196388498	-1.771319959948719	-1.452514728398277	-5.555204298995806	0.3239366079436597	0.1724845995893224	-0.4256619144602851	0.6570247933884298
2496.124267578125	0.5036272486457457	-9.637160522937878	-1.787574954858189	-1.093921574247349	-4.43609722199202	0.6965052508218234	0.1724845995893224	-0.4256619144602851	0.6570247933884298
2500.030517578125	0.4608265821057838	-9.647666071785796	-1.694219403526122	0.7140561771925511	-2.959955249005473	1.058150396686925	0.1724845995893224	-0.4256619144602851	0.6570247933884298
2503.936767578125	0.6655218561544936	-9.561481266510047	-1.517395205149781	-0.3622810739724808	-0.7399471462665556	-0.003776660722940747	0.1724845995893224	-0.4256619144602851	0.6570247933884298
2507.843017578125	0.4192183060326914	-9.471119414382764	-1.307276867756379	0.3586303400650783	0.7472851214204346	0.3688500514631886	0.1704312114989733	-0.4195519348268839	0.6590909090909091
2511.749267578125	0.3611744415204241	-9.909886930575064	-1.372481384014134	0.3657458783091345	2.591718949029436	-0.342703772942432	0.1704312114989733	-0.4195519348268839	0.6590909090909091
2515.655517578125	0.509690144088401	-9.821866853411418	-1.323004802946698	-0.3480128115702186	2.577098553368094	-1.430602900949157	0.1704312114989733	-0.4195519348268839	0.6590909090909091
2519.561767578125	0.3501148622166003	-9.620129527883298	-1.337162073886675	0.731491756618269	5.183437898058871	-0.6854075458848641	0.1745379876796715	-0.4439918533604887	0.6570247933884298
2523.468017578125	0.3945282526353643	-9.492435864981232	-1.150941754512144	1.467043292199588	6.269496309546994	-1.776792988074701	0.1745379876796715	-0.4439918533604887	0.6570247933884298
2527.374267578125	0.5459437037130503	-9.233478202466115	-1.198123457101676	0.7422580287697277	7.020533750513994	-1.762034761030733	0.1745379876796715	-0.4439918533604887	0.6570247933884298
2531.280517578125	-0.001618244205037539	-9.587189898959629	-1.279391859832082	0.3797538393123484	8.511518337747548	-1.743499873263823	0.1745379876796715	-0.4439918533604887	0.6570247933884298
2535.186767578125	-0.2474162901672738	-9.553331267154086	-1.419456994424207	0.3795679097415997	10.37062811566431	-1.724906916188948	0.1745379876796715	-0.4439918533604887	0.6570247933884298
2539.093017578125	-0.1891689622023263	-9.601164631112088	-1.694367926589124	0.7381982498066779	11.11791323708474	-1.35605686472576	0.1745379876796715	-0.4439918533604887	0.6570247933884298
2542.999267578125	-0.7616756871426084	-9.806275138842777	-1.610810428579728	0.7529127431787371	9.973095469719171	-2.827506201931676	0.1745379876796715	-0.4439918533604887	0.6570247933884298
2546.905517578125	-0.7369099264140514	-9.624934209540543	-1.769669119531624	1.821762596958215	9.62687309520477	-1.01683940596644	0.1601642710472279	-0.4195519348268839	0.6632231404958678
2550.811767578125	-0.7851086833943067	-9.753851807630825	-1.829710553523112	1.459518708899884	8.515103993354863	-1.024334658104355	0.1601642710472279	-0.4195519348268839	0.6632231404958678
2554.718017578125	-0.7810780566243523	-9.775881904975208	-1.630731445854932	1.104613474570508	7.016836985613845	-1.765695283137742	0.1601642710472279	-0.4195519348268839	0.6632231404958678
2558.624267578125	-0.9249827095496125	-9.992411076087709	-1.833909681679588	1.097423564498152	5.916047069171547	-1.046704275902171	0.1540041067761807	-0.4114052953156823	0.640495867768595
2562.530517578125	-0.7514465226282118	-9.892967708983122	-1.951782579059615	1.093847202419049	5.179741133158723	-0.6890680679918734	0.1540041067761807	-0.4114052953156823	0.640495867768595
2566.436767578125	-0.8383348803390428	-9.96772827797629	-2.388837322031911	1.093995946075648	3.692453310825316	-0.7039424336517734	0.1540041067761807	-0.4114052953156823	0.640495867768595
2570.343017578125	-0.6675722630419679	-9.772515031716901	-2.080924565267737	1.086843221917442	2.219841438799667	0.01132998216882224	0.1540041067761807	-0.4114052953156823	0.640495867768595
2574.249267578125	-0.7290292664038467	-9.759052796137246	-2.365691119871781	1.44562230563912	1.479838737886694	0.3653056679721108	0.1724845995893224	-0.4317718940936863	0.6446280991735538
2578.155517578125	-0.8392851650695838	-9.684702203372501	-2.690494497680543	0.717335051958456	0.7509263316741656	0.7302629200964272	0.1724845995893224	-0.4317718940936863	0.6446280991735538
2582.061767578125	-0.6960287561679789	-10.08838263116098	-2.46570812773404	-0.003576362079102979	-0.7363059360128246	0.3576362079102978	0.1724845995893224	-0.4317718940936863	0.6446280991735538
2585.968017578125	-0.7411164150055086	-9.766294307518447	-2.629452833149716	0.00387384939230098	-2.23826970865399	-0.387384939230098	0.162217659137577	-0.4175152749490835	0.6446280991735538
2589.874267578125	-0.661313790326969	-9.877158125539053	-2.622873655767703	-0.727915394539166	-4.447131962046047	0.3277713379745663	0.162217659137577	-0.4175152749490835	0.6446280991735538
2593.780517578125	-0.4625568100715987	-9.759560035256484	-2.581439664280046	0.3629132345130265	-5.581026098650425	-0.05943939333163452	0.162217659137577	-0.4175152749490835	0.6446280991735538
2597.686767578125	-0.03895694224398109	-9.802596077992222	-2.701435258533964	-0.3617232852602345	-6.317276480016832	-0.05955553194756599	0.162217659137577	-0.4175152749490835	0.6446280991735538
2601.593017578125	-0.2027994362958296	-9.912238484402318	-2.573352123472348	-1.086396990947645	-6.681704905799888	-0.05595307914852242	0.162217659137577	-0.4175152749490835	0.6446280991735538
2605.499267578125	-0.08524251187461607	-9.804228412172794	-2.491916270846132	-1.090047724855048	-6.674366930646009	0.3091203115917254	0.162217659137577	-0.4175152749490835	0.6446280991735538
2609.405517578125	0.02502442744359211	-9.605242101793239	-2.500814248119737	-1.800081308998699	-7.439969212627933	-1.151289389985197	0.162217659137577	-0.4175152749490835	0.6446280991735538
2613.311767578125	-0.01403582376279632	-9.584538249683305	-2.532139207906789	-1.463281000549736	-7.392300151450928	1.400563823089528	0.1581108829568789	-0.4338085539714867	0.6611570247933884
2617.218017578125	0.1634245264940171	-9.857159403100267	-2.447484216467238	-1.437800235026218	-6.700022066361377	-1.147512729262257	0.1581108829568789	-0.4338085539714867	0.6611570247933884
2621.124267578125	0.03991590177289219	-9.503760525093432	-2.66386339242974	-2.535781588236617	-7.038739801782648	-0.04502958213546031	0.1581108829568789	-0.4338085539714867	0.6611570247933884
2625.030517578125	0.1048270521221317	-9.716105919813844	-2.494235070737723	-1.811107882549206	-6.674311375999592	-0.04863203493450385	0.1704312114989733	-0.4297352342158859	0.6570247933884298
2628.936767578125	0.3247276704775319	-9.948338053212266	-2.490922349251063	-1.448826808576725	-5.934364229733037	-0.04485537421156312	0.1704312114989733	-0.4297352342158859	0.6570247933884298
2632.843017578125	0.3183296123705779	-9.680406758666846	-2.277653745685931	-1.0937356446766	-6.295206999908778	0.6779122937469483	0.1704312114989733	-0.4297352342158859	0.6570247933884298
2636.749267578125	0.566801862084901	-9.603400731259217	-2.226728736163368	-1.452514728398277	-5.555204298995806	0.3239366079436597	0.1704312114989733	-0.4297352342158859	0.6570247933884298
2640.655517578125	0.5692047812334144	-9.732623787401197	-2.306826041113812	-1.090308026254096	-4.071613241562547	0.3351504514965505	0.188911704312115	-0.4175152749490835	0.6446280991735538
2644.561767578125	0.5156741777276919	-9.673265349201381	-2.189139257589725	-1.090493955824845	-2.212503463645788	0.3537434085714256	0.188911704312115	-0.4175152749490835	0.6446280991735538
2648.468017578125	0.4763584142784028	-9.69264411271665	-2.211947142613422	-0.7172978660443063	-1.122748287257517	-0.7339815115114022	0.188911704312115	-0.4175152749490835	0.6446280991735538
2652.374267578125	0.4854259444292417	-9.776378944634546	-1.847531480974721	-0.7210601576941581	5.555464641699391e-05	-0.3577523465262293	0.1601642710472279	-0.405295315682281	0.6549586776859504
2656.280517578125	0.4236085426259877	-9.733033237884264	-2.120284754199588	-0.7211717154366073	1.115521421396473	-0.3465965722813042	0.1601642710472279	-0.405295315682281	0.6549586776859504
2660.186767578125	0.2239714646450706	-9.544249226431427	-1.799048821502354	0.003427618422503978	2.223593758346232	-0.3427618422503977	0.1601642710472279	-0.405295315682281	0.6549586776859504
2664.093017578125	0.2346406780222406	-9.784132847439475	-1.821355934074687	-0.3553886512133231	3.335418414842556	-0.6930189366387113	0.1601642710472279	-0.405295315682281	0.6549586776859504
2667.999267578125	0.4201985582485109	-9.774135799499648	-2.006618608283696	0.006892422759157706	4.075365561109112	-0.6892422759157706	0.1601642710472279	-0.405295315682281	0.6549586776859504
2671.905517578125	0.001455788890106858	-9.672862628258867	-1.715192963003562	0.01050597075241043	4.439849541538584	-1.050597075241043	0.1601642710472279	-0.405295315682281	0.6549586776859504
2675.811767578125	0.03019145280002776	-9.683571430261324	-1.673048426667592	-0.004208522619648731	5.584667308904156	0.4208522619648731	0.1601642710472279	-0.405295315682281	0.6549586776859504
2679.718017578125	-0.3101059035157381	-9.77026757547009	-1.663136549475398	0.735068118697372	5.919743834071696	-1.043043753795162	0.1560574948665298	-0.4276985743380855	0.640495867768595
2683.624267578125	-0.3264728821859861	-9.448892898573469	-1.78423726046713	0.3692106826457882	4.443490751792315	-0.6891842066078048	0.1560574948665298	-0.4276985743380855	0.640495867768595
2687.530517578125	-0.2810098411644419	-9.810859848643171	-1.633005294518605	0.7279525804533158	4.075310006462695	-0.3314899293895412	0.1560574948665298	-0.4276985743380855	0.640495867768595
2691.436767578125	-0.3020091621643149	-9.697649629099796	-1.933027927856171	0.7279525804533158	4.075310006462695	-0.3314899293895412	0.162217659137577	-0.4175152749490835	0.6694214876033058
2695.343017578125	-0.2607407804637232	-9.717639519016604	-1.975307317875894	1.086694478260843	3.707129261133074	0.02620434782872231	0.162217659137577	-0.4175152749490835	0.6694214876033058
2699.249267578125	-0.2415947118429136	-9.998115623495876	-1.946842938569547	0.7242646606317635	4.454469937199926	0.03730205276568162	0.162217659137577	-0.4175152749490835	0.6694214876033058
2703.155517578125	-0.2517986405802336	-9.858081560454275	-1.940045313992213	0.7243018465459133	4.082647981616574	0.0335834613507066	0.162217659137577	-0.4175152749490835	0.6694214876033058
2707.061767578125	-0.408820377259095	-9.675518588647106	-2.039320758030169	1.079355824531889	4.093627167024184	0.760069720724193	0.1581108829568789	-0.4175152749490835	0.6466942148760331
2710.968017578125	-0.4555018331426192	-9.763945592716114	-2.149938895246026	0.7316033143607183	4.067972031308816	-0.6965633201297892	0.1581108829568789	-0.4175152749490835	0.6466942148760331
2714.874267578125	-0.4833613424171617	-9.776286834048214	-1.88795525276128	0.003464804336653728	1.85177180276288	-0.3464804336653728	0.1581108829568789	-0.4175152749490835	0.6466942148760331
2718.780517578125	-0.542393345325585	-9.345373848321939	-1.920221822480503	0.7208742281234094	1.859054223270342	0.3763453036011044	0.1601642710472279	-0.4114052953156823	0.6611570247933884
2722.686767578125	-0.6034560396706417	-9.665117452826841	-1.884798677645281	0.362243888058331	1.111769101849907	0.007495252137915762	0.1601642710472279	-0.4114052953156823	0.6611570247933884
2726.593017578125	-0.5032297851567892	-9.856044297200695	-1.892340494773697	0	0	0	0.1601642710472279	-0.4114052953156823	0.6611570247933884
2730.499267578125	0.0005047155415321662	-9.599836808641573	-2.016823851384406	-0.3550167920718256	-0.3828011409909618	-0.7302048507884614	0.1540041067761807	-0.4236252545824847	0.6611570247933884
2734.405517578125	-0.3150371320801141	-9.568528672705904	-1.832095597329529	0.00379947756400148	-1.494625797487286	-0.3799477564001479	0.1540041067761807	-0.4236252545824847	0.6611570247933884
2738.311767578125	-0.4067021492207272	-9.614833694914703	-2.109928359309097	0.358816269635827	-1.111824656496325	0.3502570943883135	0.1540041067761807	-0.4236252545824847	0.6611570247933884
2742.218017578125	-0.279392385577438	-9.767003538003372	-2.020253814085402	0.0001115577424492505	-1.115465866750055	-0.01115577424492505	0.1540041067761807	-0.4236252545824847	0.6611570247933884
2746.124267578125	-0.2136429342584349	-9.415744548743561	-2.211902191385505	0.0001487436565990006	-1.487287822333407	-0.01487436565990006	0.1581108829568789	-0.4399185336048879	0.6487603305785125
2750.030517578125	-0.3445606254056455	-10.01474126888116	-2.181312486478487	-0.3621695162300315	-1.855413013016611	-0.0149324349678658	0.1581108829568789	-0.4399185336048879	0.6487603305785125
2753.936767578125	-0.424363250084185	-9.903877450860554	-2.187891663860501	-0.358518782322629	-1.86275098817049	-0.3800058257081136	0.1581108829568789	-0.4399185336048879	0.6487603305785125
2757.843017578125	-0.04140008091221027	-9.716719359494949	-2.286663969592992	-0.365820250137434	-1.848075037862732	0.3501409557723821	0.1642710472279261	-0.4134419551934826	0.6528925619834711
2761.749267578125	0.0195711337409437	-9.757005333423763	-2.31903779136479	-0.007115538244056207	-1.844433827609001	0.7115538244056206	0.1642710472279261	-0.4134419551934826	0.6528925619834711
2765.655517578125	0.1146453466409998	-9.879598004586077	-2.154844888033326	0.3589278273782763	-2.22729052324638	0.3391013201433885	0.1642710472279261	-0.4134419551934826	0.6528925619834711
2769.561767578125	0.168387299779739	-9.658888106404552	-2.279576659324633	-0.007115538244056207	-1.844433827609001	0.7115538244056206	0.1642710472279261	-0.4134419551934826	0.6528925619834711
2773.468017578125	0.09025260224235651	-9.397484991941637	-2.34175340807855	-0.362243888058331	-1.111769101849907	-0.007495252137915762	0.1601642710472279	-0.4195519348268839	0.6590909090909091
2777.374267578125	0.07656140456026264	-9.878578479192184	-2.218713485342088	-0.3622067021441813	-1.483591057433259	-0.01121384355289078	0.1601642710472279	-0.4195519348268839	0.6590909090909091
2781.280517578125	-0.01673999500016167	-9.675412598383385	-2.442000166661278	-0.362243888058331	-1.111769101849907	-0.007495252137915762	0.1601642710472279	-0.4195519348268839	0.6590909090909091
2785.186767578125	0.09198361882620515	-9.78025862991286	-2.066120627540172	-0.3659318078798833	-0.7326091711126765	0.3612967300173071	0.1683778234086242	-0.4114052953156823	0.6590909090909091
2789.093017578125	0.3973507165777764	-9.901523268306519	-2.245023885925876	-0.003613547993252729	-0.3644839804294728	0.3613547993252729	0.1683778234086242	-0.4114052953156823	0.6590909090909091
2792.999267578125	0.2650537324897224	-9.790965959828323	-2.168457749657411	-0.7210229717800084	-0.3717664009369348	-0.3614709379412043	0.1683778234086242	-0.4114052953156823	0.6590909090909091
2796.905517578125	0.04032598315038709	-9.636961265448042	-2.344199438346236	-0.358667525979228	-0.3754631658370828	-0.3651314600482136	0.1724845995893224	-0.4215885947046843	0.6549586776859504
2800.811767578125	0.0520669284352793	-9.819831693139259	-2.06889761450931	-0.3660805515364823	0.7546786512207306	0.3761710956772072	0.1724845995893224	-0.4215885947046843	0.6549586776859504
2804.718017578125	-0.03924715368036209	-9.749356579689984	-2.025094877321264	-0.3624298176290798	0.7473406760668516	0.01109770493695932	0.1724845995893224	-0.4215885947046843	0.6549586776859504
2808.624267578125	-0.1758200247468339	-9.593515141334811	-2.472665841772203	-0.724636519773261	-0.7362503813664076	-0.0001161386159314638	0.1724845995893224	-0.4215885947046843	0.6549586776859504
2812.530517578125	-0.097515774332218	-10.03819676703408	-2.082807522259401	-0.3623182598866305	-0.3681251906832038	-5.806930796573191e-05	0.1683778234086242	-0.415478615071283	0.6549586776859504
2816.436767578125	-0.09460025346183604	-9.667254081952661	-2.179991551272133	-0.3623182598866305	-0.3681251906832038	-5.806930796573191e-05	0.1683778234086242	-0.415478615071283	0.6549586776859504
2820.343017578125	-0.0409347962723603	-9.816568917461398	-2.30217345758799	-0.7210229717800084	-0.3717664009369348	-0.3614709379412043	0.1683778234086242	-0.415478615071283	0.6549586776859504
2824.249267578125	-0.1364553669794589	-9.887453901990025	-2.118154434018038	-0.7174094237867555	-0.007282420507461989	-0.7228257372664771	0.1642710472279261	-0.4236252545824847	0.6487603305785125
2828.155517578125	0.2252127494300263	-9.67051454435096	-2.173758314334211	-1.076039763851834	-0.7545675419278965	-1.091675788729666	0.1642710472279261	-0.4236252545824847	0.6487603305785125
2832.061767578125	0.02940520062048466	-9.720492318466043	-1.980173354016155	-1.079802055501686	0.3682362999760378	-0.7154466237444929	0.1642710472279261	-0.4236252545824847	0.6487603305785125
2835.968017578125	-0.04043875552919821	-9.726408530954442	-2.318708149026727	0.003613547993252729	0.3644839804294728	-0.3613547993252729	0.1642710472279261	-0.4236252545824847	0.6487603305785125
2839.874267578125	-0.0418913899471705	-9.880211549416252	-1.936953668427651	0.003539176164953228	1.108127891596177	-0.3539176164953228	0.1642710472279261	-0.4236252545824847	0.6487603305785125
2843.780517578125	-0.143174392626106	-9.756293053615774	-2.227520245796469	-0.00383666347815123	1.866447753070638	0.3836663478151229	0.1642710472279261	-0.4236252545824847	0.6487603305785125
2847.686767578125	-0.050893464801217	-9.699788886952396	-1.970217839959433	0.731789243931467	2.208862253392057	-0.7151562772046642	0.1642710472279261	-0.4236252545824847	0.6487603305785125
2851.593017578125	-0.3558544242654615	-9.428392930512498	-1.804852524484618	0.3584444104943295	2.606394899337194	0.3874430085380637	0.1765913757700205	-0.4093686354378818	0.6363636363636364
2855.499267578125	-0.334896111403338	-9.794949742687081	-2.170129619888737	0.358518782322629	1.86275098817049	0.3800058257081136	0.1765913757700205	-0.4093686354378818	0.6363636363636364
2859.405517578125	-0.2475472007608587	-9.746706928246011	-2.081759974638044	0.3585931541509285	1.119107077003786	0.3725686428781636	0.1765913757700205	-0.4093686354378818	0.6363636363636364
2863.311767578125	-0.5547525671488541	-9.802703330044798	-2.174914428371533	0.3585931541509285	1.119107077003786	0.3725686428781636	0.1786447638603696	-0.4276985743380855	0.6384297520661157
2867.218017578125	-0.09620824563243621	-9.857773999421154	-2.126391812252127	0.358667525979228	0.3754631658370828	0.3651314600482136	0.1786447638603696	-0.4276985743380855	0.6384297520661157
2871.124267578125	-0.1411263515927325	-9.718964187014983	-1.962454946908919	0.36239263171493	-0.3755187204834998	-0.007379113521984299	0.1786447638603696	-0.4276985743380855	0.6384297520661157
2875.030517578125	-0.3274255327706281	-9.795867588929172	-2.085815574312397	-0.007227095986505457	-0.7289679608589457	0.7227095986505457	0.1786447638603696	-0.4276985743380855	0.6384297520661157
2878.936767578125	-0.2051163960786757	-9.559654301398773	-1.829453464044144	0.36239263171493	-0.3755187204834998	-0.007379113521984299	0.1724845995893224	-0.415478615071283	0.6363636363636364
2882.843017578125	-0.00780179820684032	-9.532522581420213	-1.739940059771989	-0.003576362079102979	-0.7363059360128246	0.3576362079102978	0.1724845995893224	-0.415478615071283	0.6363636363636364
2886.749267578125	-0.1413716118011957	-9.695710154482388	-2.287612939960143	0.3587418978075275	-0.3681807453296208	0.3576942772182636	0.1724845995893224	-0.415478615071283	0.6363636363636364
2890.655517578125	-0.3548544565988008	-9.81473627430028	-2.171518113373306	0.3513660581644231	0.3901391161448408	1.095278241528709	0.1827515400410678	-0.4195519348268839	0.6549586776859504
2894.561767578125	-0.07922851075004675	-9.675617218475848	-2.359049641665109	0.7174094237867555	0.007282420507461989	0.7228257372664771	0.1827515400410678	-0.4195519348268839	0.6549586776859504
2898.468017578125	-0.1651555430778658	-9.76006695892851	-1.828148564071141	0.7174094237867555	0.007282420507461989	0.7228257372664771	0.1827515400410678	-0.4195519348268839	0.6549586776859504
2902.374267578125	-0.1683896656338399	-9.637779325221606	-2.053677812205336	-0.003613547993252729	-0.3644839804294728	0.3613547993252729	0.1827515400410678	-0.4195519348268839	0.6549586776859504
2906.280517578125	0.0414726337713055	-9.629923848413945	-2.04908779237685	0.717335051958456	0.7509263316741656	0.7302629200964272	0.1827515400410678	-0.4195519348268839	0.6549586776859504
2910.186767578125	0.01369829524439666	-9.62890421787098	-2.123276508146556	0.358667525979228	0.3754631658370828	0.3651314600482136	0.1827515400410678	-0.4195519348268839	0.6549586776859504
2914.093017578125	0.003343740462650647	-9.59891885725041	-2.111458015421688	0.3623182598866305	0.3681251906832038	5.806930796573191e-05	0.1827515400410678	-0.4195519348268839	0.6549586776859504
2917.999267578125	0.1317804392760171	-9.660724324634089	-2.059347975867237	0.3585559682367788	1.490929032587138	0.3762872342931387	0.1683778234086242	-0.4378818737270875	0.6508264462809917
2921.905517578125	0.1645877380936421	-9.440116631349722	-2.152924603121403	-0.3587418978075275	0.3681807453296208	-0.3576942772182636	0.1683778234086242	-0.4378818737270875	0.6508264462809917
2925.811767578125	-0.1139127204877445	-9.696831779624372	-2.202909317075184	-0.7138330617076526	0.7290235155053626	-1.080461945176775	0.1683778234086242	-0.4378818737270875	0.6508264462809917
2929.718017578125	-0.1418676525443578	-9.785870540989343	-2.271078248521407	0.3621695162300315	1.855413013016611	0.0149324349678658	0.1642710472279261	-0.4195519348268839	0.6487603305785125
2933.624267578125	-0.1725417395809757	-9.955788495797849	-2.248608680634143	-0.3624670035432295	1.119162631650203	0.01481629635193433	0.1642710472279261	-0.4195519348268839	0.6487603305785125
2937.530517578125	0.1284051540920207	-9.795149000176913	-2.613505136400689	-0.3624298176290798	0.7473406760668516	0.01109770493695932	0.1642710472279261	-0.4195519348268839	0.6487603305785125
2941.436767578125	-0.2413983459525363	-9.708052131857986	-1.953388468248792	-0.36239263171493	0.3755187204834998	0.007379113521984299	0.1642710472279261	-0.4195519348268839	0.6487603305785125
2945.343017578125	-0.1637336647632056	-9.796273884940103	-2.20887784122648	0.7210601576941581	-5.555464641699391e-05	0.3577523465262293	0.1724845995893224	-0.4358452138492871	0.6528925619834711
2949.249267578125	-0.04904573274838906	-9.669191453588647	-2.031808908387032	3.718591414975016e-05	-0.3718219555833518	-0.003718591414975016	0.1724845995893224	-0.4358452138492871	0.6528925619834711
2953.155517578125	-0.1477554747835441	-9.647774270180014	-2.074817507215198	-0.3549424202435261	-1.126445052157665	-0.7376420336184115	0.1724845995893224	-0.4358452138492871	0.6528925619834711
2957.061767578125	-0.1149189970986743	-9.657157142395238	-2.169366763377525	-0.724636519773261	-0.7362503813664076	-0.0001161386159314638	0.1683778234086242	-0.4175152749490835	0.6322314049586777
2960.968017578125	0.04889826117609761	-9.600856228886396	-1.963275372536587	-0.003613547993252729	-0.3644839804294728	0.3613547993252729	0.1683778234086242	-0.4175152749490835	0.6322314049586777
2964.874267578125	0.08024740524951481	-9.670720005635991	-2.008246841650493	-0.362243888058331	-1.111769101849907	-0.007495252137915762	0.1683778234086242	-0.4175152749490835	0.6322314049586777
2968.780517578125	-0.08744512204258381	-9.66827392279377	-2.08516259858054	-0.7209485999517089	-1.115410312103638	-0.3689081207711543	0.1683778234086242	-0.4175152749490835	0.6322314049586777
2972.686767578125	0.2514642665339685	-9.848693220487348	-2.382142217798951	3.718591414975016e-05	-0.3718219555833518	-0.003718591414975016	0.1683778234086242	-0.4175152749490835	0.6322314049586777
2976.593017578125	0.03933863337226477	-9.890613841876302	-1.977954445742159	-0.003650733907402479	0.007337975153878983	0.3650733907402479	0.1683778234086242	-0.4175152749490835	0.6322314049586777
2980.499267578125	0.1211695836333368	-9.880821834625221	-2.038986121111226	-0.3587047118933778	-0.003641210253730994	-0.3614128686332386	0.1683778234086242	-0.4175152749490835	0.6322314049586777
2984.405517578125	-0.107013101311393	-9.737934236090684	-2.099563289620236	0.3585931541509285	1.119107077003786	0.3725686428781636	0.1663244353182751	-0.4215885947046843	0.6487603305785125
2988.311767578125	0.01484573448334872	-9.411866545850383	-1.828191149444957	0.3548680484152266	1.870088963324369	0.7450792164483615	0.1663244353182751	-0.4215885947046843	0.6487603305785125
2992.218017578125	-0.04127469064486087	-9.660012149975172	-1.957510311837972	-0.0001487436565990006	1.487287822333407	0.01487436565990006	0.1663244353182751	-0.4215885947046843	0.6487603305785125
2996.124267578125	0.07380360729660949	-9.582803500307429	-1.79345357655365	0.003539176164953228	1.108127891596177	-0.3539176164953228	0.1663244353182751	-0.4338085539714867	0.640495867768595
3000.030517578125	-0.1160861517884674	-9.790867855744937	-1.797128273717753	-0.373419205265437	1.14117655711184	1.110036468572678	0.1663244353182751	-0.4338085539714867	0.640495867768595
3003.936767578125	-0.3217719300874341	-9.637372924061603	-1.940935663752197	0.7245249620308118	1.851716248116463	0.01127191286085651	0.1663244353182751	-0.4338085539714867	0.640495867768595
3007.843017578125	-0.4331555525412822	-9.863386961988349	-2.228148248623927	0.3658946219657335	1.104431126696028	-0.3575781386023321	0.1663244353182751	-0.4338085539714867	0.640495867768595
3011.749267578125	-0.4889692052544043	-9.754766709698925	-2.034359824853192	-0.3515148018210221	1.097148706188567	-1.080403875868809	0.1683778234086242	-0.4215885947046843	0.640495867768595
3015.655517578125	-0.227603839308035	-9.716925241376265	-2.0798720230655	0.007152724158205957	1.472611872025649	-0.7152724158205956	0.1683778234086242	-0.4215885947046843	0.640495867768595
3019.561767578125	-0.2771093363700385	-9.816265352092978	-2.09635545433205	-1.068812667865328	-0.02559958106895095	-1.814385387380211	0.1683778234086242	-0.4215885947046843	0.640495867768595
3023.468017578125	-0.2033144038717991	-9.709071657251881	-1.88951987094003	0.7282500677665138	1.10073436179588	-0.3612386607093414	0.1581108829568789	-0.4215885947046843	0.6611570247933884
3027.374267578125	-0.3229745725887412	-9.88776177847036	-1.900847580375293	-0.3550539779859753	-0.01097918540760998	-0.7264862593734864	0.1581108829568789	-0.4215885947046843	0.6611570247933884
3031.280517578125	0.05793109213345625	-9.59126894687685	-1.931036404448542	-0.3513660581644231	-0.3901391161448408	-1.095278241528709	0.1581108829568789	-0.4215885947046843	0.6611570247933884
3035.186767578125	-0.3282370207272478	-9.886129970035144	-2.058765975758407	-0.3623554458007803	0.003696764900147988	0.003660522107009284	0.1581108829568789	-0.4215885947046843	0.6611570247933884
3039.093017578125	-0.2944187135904912	-9.778528717394257	-1.852709546983628	0.3550167920718256	0.3828011409909618	0.7302048507884614	0.1581108829568789	-0.4215885947046843	0.6611570247933884
3042.999267578125	-0.2913391601691113	-9.727532995121345	-1.955361327696292	-0.007301467814804958	0.01467595030775797	0.7301467814804957	0.1581108829568789	-0.4215885947046843	0.6611570247933884
3046.905517578125	-0.3112060256726715	-9.387289948300833	-1.959799144244284	-0.007189910072355707	-1.100789916442297	0.7189910072355706	0.1581108829568789	-0.4215885947046843	0.6611570247933884
3050.811767578125	-0.3173706528416668	-9.625949844418805	-2.087644905277774	0.3515148018210221	-1.097148706188567	1.080403875868809	0.1786447638603696	-0.4195519348268839	0.6611570247933884
3054.718017578125	-0.1446964254310389	-9.723451844222703	-2.510119152298703	-0.003501990250803478	-1.479949847179528	0.3501990250803478	0.1786447638603696	-0.4195519348268839	0.6611570247933884
3058.624267578125	-0.1564137121749218	-9.907240433603226	-2.119542927502607	-1.086806036003293	-2.591663394383019	-0.01504857358379726	0.1786447638603696	-0.4195519348268839	0.6611570247933884
3062.530517578125	-0.1187493148880833	-9.628395611813815	-2.041689503730558	-0.007152724158205957	-1.472611872025649	0.7152724158205956	0.1765913757700205	-0.4093686354378818	0.6425619834710744
3066.436767578125	-0.03579221807496763	-9.738239483844239	-2.14025939750108	-0.3658574360515838	-1.47625308227938	0.3538595471873571	0.1765913757700205	-0.4093686354378818	0.6425619834710744
3070.343017578125	-0.0608284747890644	-9.949667873515132	-1.972384173697854	-0.365820250137434	-1.848075037862732	0.3501409557723821	0.1765913757700205	-0.4093686354378818	0.6425619834710744
3074.249267578125	0.3934312849505656	-9.602790551199318	-2.114376165018849	-0.7281756959382143	-1.844378272962584	0.3538014778793914	0.1765913757700205	-0.4093686354378818	0.6425619834710744
3078.155517578125	0.07572073773639812	-9.738850294798565	-2.190691257879937	-1.079616125930937	-1.490873477940721	-0.7340395808193679	0.1745379876796715	-0.4338085539714867	0.6466942148760331
3082.061767578125	-0.06709641092046711	-9.698361172864285	-2.096786302651097	-0.7246737056874109	-0.3644284257830558	0.003602452799043552	0.1745379876796715	-0.4338085539714867	0.6466942148760331
3085.968017578125	-0.09142606587641885	-9.749561094633375	-1.952464470786039	-0.3623182598866305	-0.3681251906832038	-5.806930796573191e-05	0.1745379876796715	-0.4338085539714867	0.6466942148760331
3089.874267578125	-0.1552252647982203	-9.436856168951424	-2.159157840059325	-0.3586303400650783	-0.7472851214204346	-0.3688500514631886	0.1560574948665298	-0.415478615071283	0.6425619834710744
3093.780517578125	-0.06049725521493391	-9.749560779186162	-1.98342482616887	-0.003539176164953228	-1.108127891596177	0.3539176164953228	0.1560574948665298	-0.415478615071283	0.6425619834710744
3097.686767578125	0.09240474085617105	-9.64012246712317	-2.080158028539035	-0.3622810739724808	-0.7399471462665556	-0.003776660722940747	0.1560574948665298	-0.415478615071283	0.6425619834710744
3101.593017578125	-0.2053774286478119	-9.736405368596127	-2.154085711739604	0.003687919821552229	-0.3791599307372308	-0.3687919821552229	0.162217659137577	-0.4215885947046843	0.6322314049586777
3105.499267578125	0.08231989344193129	-9.790049901120442	-2.07732978139771	0.36239263171493	-0.3755187204834998	-0.007379113521984299	0.162217659137577	-0.4215885947046843	0.6322314049586777
3109.405517578125	-0.08424017835385453	-9.560570991001081	-1.858660721538184	0.3623554458007803	-0.003696764900147988	-0.003660522107009284	0.162217659137577	-0.4215885947046843	0.6322314049586777
3113.311767578125	0.1617029733265723	-9.621049371957742	-2.056765777552408	0	0	0	0.162217659137577	-0.4215885947046843	0.6322314049586777
3117.218017578125	0.02459305337918884	-9.808714912740729	-2.153101779306295	-0.7246737056874109	-0.3644284257830558	0.003602452799043552	0.1704312114989733	-0.4236252545824847	0.6694214876033058
3121.124267578125	-0.05819843364686159	-9.59881749354582	-2.060052211771281	0	0	0	0.1704312114989733	-0.4236252545824847	0.6694214876033058
3125.030517578125	-0.1245527549976697	-9.686938724115914	-2.181574833411012	-0.358667525979228	-0.3754631658370828	-0.3651314600482136	0.1704312114989733	-0.4236252545824847	0.6694214876033058
3128.936767578125	-0.2962254375055696	-9.555779558126803	-2.125818749814346	-0.007375839643104458	0.7583198614744615	0.7375839643104457	0.1642710472279261	-0.4338085539714867	0.6570247933884298
3132.843017578125	-0.2701087740853806	-9.644001836954272	-2.329707530487316	-0.00379947756400148	1.494625797487286	0.3799477564001479	0.1642710472279261	-0.4338085539714867	0.6570247933884298
3136.749267578125	-0.1328048541017207	-9.79627356949289	-2.23983819660931	-0.3624298176290798	0.7473406760668516	0.01109770493695932	0.1642710472279261	-0.4338085539714867	0.6570247933884298
3140.655517578125	0.03966906432836162	-9.90050700253383	-1.988968810945387	-1.083452789409088	0.3755742751299168	-0.350373233004245	0.1642710472279261	-0.4338085539714867	0.6570247933884298
3144.561767578125	0.03009681863599047	-9.550268695307697	-2.003227287866349	-0.3660805515364823	0.7546786512207306	0.3761710956772072	0.1786447638603696	-0.4175152749490835	0.6590909090909091
3148.468017578125	-0.1756354881269612	-9.786788807827717	-2.145483729101294	-0.003687919821552229	0.3791599307372308	0.3687919821552229	0.1786447638603696	-0.4175152749490835	0.6590909090909091
3152.374267578125	-0.224854716842752	-9.656036358445823	-2.171509438574935	-1.087029151488191	-0.3607316608829078	0.007262974906052836	0.1786447638603696	-0.4175152749490835	0.6590909090909091
3156.280517578125	-0.0745378106859321	-9.927433892121785	-2.182072977135597	-0.003613547993252729	-0.3644839804294728	0.3613547993252729	0.1786447638603696	-0.4134419551934826	0.6363636363636364
3160.186767578125	-0.1835863351421603	-9.676026248362632	-2.213788828594659	0.3623182598866305	0.3681251906832038	5.806930796573191e-05	0.1786447638603696	-0.4134419551934826	0.6363636363636364
3164.093017578125	0.07979710435230407	-9.580865602926087	-1.993236811743469	0.003613547993252729	0.3644839804294728	-0.3613547993252729	0.1786447638603696	-0.4134419551934826	0.6363636363636364
3167.999267578125	-0.3279349800203621	-9.456032310206586	-2.068833999321263	0.362243888058331	1.111769101849907	0.007495252137915762	0.1827515400410678	-0.4175152749490835	0.6425619834710744
3171.905517578125	-0.2588023573370262	-9.537012762205638	-2.039921422099128	0.362243888058331	1.111769101849907	0.007495252137915762	0.1827515400410678	-0.4175152749490835	0.6425619834710744
3175.811767578125	-0.2357352798529385	-9.696221073819117	-2.142157338235383	-0.7174094237867555	-0.007282420507461989	-0.7228257372664771	0.1827515400410678	-0.4175152749490835	0.6425619834710744
3179.718017578125	-0.259584666426401	-9.857265708811202	-2.013844452453299	0.3623182598866305	0.3681251906832038	5.806930796573191e-05	0.1827515400410678	-0.4175152749490835	0.6425619834710744
3183.624267578125	-0.2460456720248005	-9.906221433954686	-2.131810932506651	0.3585559682367788	1.490929032587138	0.3762872342931387	0.1704312114989733	-0.4175152749490835	0.6487603305785125
3187.530517578125	-0.2592234793669921	-9.677148924995327	-2.025884021100264	3.718591414975016e-05	-0.3718219555833518	-0.003718591414975016	0.1704312114989733	-0.4175152749490835	0.6487603305785125
3191.436767578125	-0.3521952365893532	-9.693876459830559	-2.260158780354894	-0.003539176164953228	-1.108127891596177	0.3539176164953228	0.1704312114989733	-0.4175152749490835	0.6487603305785125
3195.343017578125	0.03648068161833883	-9.598204579610071	-2.216022720611294	0.7211345295224576	-0.7436994658131205	0.3503151636962792	0.1560574948665298	-0.4378818737270875	0.6446280991735538
3199.249267578125	-0.4317234221921847	-9.836257239842141	-1.942552593593845	-0.003539176164953228	-1.108127891596177	0.3539176164953228	0.1560574948665298	-0.4378818737270875	0.6446280991735538
3203.155517578125	-0.02483594773355122	-9.538030289767182	-2.172135075548293	-0.3658574360515838	-1.47625308227938	0.3538595471873571	0.1560574948665298	-0.4378818737270875	0.6446280991735538
3207.061767578125	-0.07582877840700739	-9.697851305018267	-2.139040719766422	-0.007189910072355707	-1.100789916442297	0.7189910072355706	0.1560574948665298	-0.4378818737270875	0.6446280991735538
3210.968017578125	-0.1625460060045378	-9.535889875274799	-2.248466466515409	-0.01095220172220744	0.02201392546163695	1.095220172220744	0.1560574948665298	-0.4378818737270875	0.6446280991735538
3214.874267578125	-0.221604821926105	-9.578318892422773	-1.946505935796503	-0.728361625508963	0.01473150495417496	0.3723944349542664	0.1560574948665298	-0.4378818737270875	0.6446280991735538
3218.780517578125	0.05679390492894157	-9.744969970739643	-2.559796830964719	0.36239263171493	-0.3755187204834998	-0.007379113521984299	0.1560574948665298	-0.4378818737270875	0.6446280991735538
3222.686767578125	-0.1231111612321684	-9.806472608798401	-2.229627958927721	0.3587047118933778	0.003641210253730994	0.3614128686332386	0.1704312114989733	-0.4215885947046843	0.6590909090909091
3226.593017578125	0.03732134844220336	-9.737932764003689	-2.244044948073445	0.3587418978075275	-0.3681807453296208	0.3576942772182636	0.1704312114989733	-0.4215885947046843	0.6590909090909091
3230.499267578125	-0.02752513522827733	-9.638899793723809	-2.082495492390756	-0.3659318078798833	-0.7326091711126765	0.3612967300173071	0.1704312114989733	-0.4215885947046843	0.6590909090909091
3234.405517578125	-0.1565178097553628	-9.627274091820901	-2.116073008154573	-0.3623554458007803	0.003696764900147988	0.003660522107009284	0.1704312114989733	-0.415478615071283	0.640495867768595
3238.311767578125	-0.119966152513996	-9.658789055979526	-2.001128249533467	-0.7172978660443063	-1.122748287257517	-0.7339815115114022	0.1704312114989733	-0.415478615071283	0.640495867768595
3242.218017578125	-0.1683147469206438	-9.68775510150434	-2.056175102645209	-1.442008757645867	-1.115354757457222	-0.7266604672973836	0.1704312114989733	-0.415478615071283	0.640495867768595
3246.124267578125	-0.07257888349036036	-9.620133838995216	-1.914037216987989	-1.079653311845087	-1.11905152235737	-0.7303209894043929	0.1704312114989733	-0.415478615071283	0.640495867768595
3250.030517578125	-0.1087251910624341	-9.648487811776853	-2.042493631252197	0.366117737450632	-1.126500606804082	-0.3798896870921822	0.1642710472279261	-0.4317718940936863	0.6425619834710744
3253.936767578125	-0.17766302509146	-9.697444378112907	-2.077899163618001	-0.3659318078798833	-0.7326091711126765	0.3612967300173071	0.1642710472279261	-0.4317718940936863	0.6425619834710744
3257.843017578125	-0.2314988237762029	-9.574851286354306	-2.283372540793239	-0.7209485999517089	-1.115410312103638	-0.3689081207711543	0.1642710472279261	-0.4317718940936863	0.6425619834710744
3261.749267578125	-0.1544153540776679	-9.766594297818447	-2.186154864077739	-1.086954779659892	-1.104375572049612	-0.000174207923897194	0.1581108829568789	-0.4236252545824847	0.6632231404958678
3265.655517578125	-0.02143700400854548	-9.770264631296097	-1.952099866381818	-1.083266859838339	-1.483535502786842	-0.3689661900791201	0.1581108829568789	-0.4236252545824847	0.6632231404958678
3269.561767578125	-0.1050849302191333	-9.620644127437521	-1.83050232602889	-0.7282500677665138	-1.10073436179588	0.3612386607093414	0.1581108829568789	-0.4236252545824847	0.6632231404958678
3273.468017578125	-0.1823048308374887	-9.758945228637455	-1.923172305417044	-0.7282500677665138	-1.10073436179588	0.3612386607093414	0.1581108829568789	-0.4236252545824847	0.6632231404958678
3277.374267578125	0.2363693287519883	-9.463573917036857	-1.878977625066277	-1.086954779659892	-1.104375572049612	-0.000174207923897194	0.1581108829568789	-0.4236252545824847	0.6632231404958678
3281.280517578125	-0.1288041948170446	-9.798313356324178	-2.039860172765181	-1.086954779659892	-1.104375572049612	-0.000174207923897194	0.1581108829568789	-0.4236252545824847	0.6632231404958678
3285.186767578125	0.280610800439418	-9.782602507857922	-2.020360014647265	-0.7209485999517089	-1.115410312103638	-0.3689081207711543	0.1581108829568789	-0.4236252545824847	0.6632231404958678
3289.093017578125	-0.06327555654746181	-9.580459096617012	-1.890814781751273	-0.7283244395948133	-0.3570904506291769	0.3686758435392914	0.1581108829568789	-0.4338085539714867	0.6570247933884298
3292.999267578125	-0.385776169697983	-9.258067628202348	-1.807461010067235	-0.003650733907402479	0.007337975153878983	0.3650733907402479	0.1581108829568789	-0.4338085539714867	0.6570247933884298
3296.905517578125	-0.178544700053074	-9.811062786350494	-1.715176664897534	0.3587418978075275	-0.3681807453296208	0.3576942772182636	0.1581108829568789	-0.4338085539714867	0.6570247933884298
3300.811767578125	-0.005764797825937818	-9.768530617963719	-2.141173405802073	0.3586303400650783	0.7472851214204346	0.3688500514631886	0.1765913757700205	-0.4297352342158859	0.640495867768595
3304.718017578125	0.04178729236672946	-9.839822108801425	-2.059576412224315	-0.003762291649851729	1.122803841903934	0.3762291649851729	0.1765913757700205	-0.4297352342158859	0.640495867768595
3308.624267578125	-0.09586283093370013	-9.877662315335231	-2.13790563554333	-0.358816269635827	1.111824656496325	-0.3502570943883135	0.1765913757700205	-0.4297352342158859	0.640495867768595
3312.530517578125	0.06042391373780501	-9.780462934558109	-2.014130457926834	-0.3551283498142748	0.7326647257590937	-0.7190490765435364	0.1765913757700205	-0.4297352342158859	0.640495867768595
3316.436767578125	-0.141862920836156	-9.859202344403689	-1.937902638794802	-0.7175209815292047	1.108183446242593	-0.7116699630215522	0.1704312114989733	-0.4276985743380855	0.6384297520661157
3320.343017578125	-0.1062426214925227	-9.901018447615916	-1.791912616915909	-0.7175209815292047	1.108183446242593	-0.7116699630215522	0.1704312114989733	-0.4276985743380855	0.6384297520661157
3324.249267578125	0.1133543789199245	-9.650015417482557	-2.11181263066415	-0.358816269635827	1.111824656496325	-0.3502570943883135	0.1704312114989733	-0.4276985743380855	0.6384297520661157
3328.155517578125	-0.0043224154424029	-9.678064247659709	-2.18925281858657	0.003576362079102979	0.7363059360128246	-0.3576362079102978	0.1519507186858316	-0.4195519348268839	0.6487603305785125
3332.061767578125	-0.1188250222193131	-9.788420090517578	-2.039165926022897	0.003613547993252729	0.3644839804294728	-0.3613547993252729	0.1519507186858316	-0.4195519348268839	0.6487603305785125
3335.968017578125	-0.2513672665158304	-9.654608749506785	-2.287757782805656	-0.3624298176290798	0.7473406760668516	0.01109770493695932	0.1519507186858316	-0.4195519348268839	0.6487603305785125
3339.874267578125	-0.184337888128223	-9.806269250494793	-2.188737062392567	-0.7174094237867555	-0.007282420507461989	-0.7228257372664771	0.1519507186858316	-0.4195519348268839	0.6487603305785125
3343.780517578125	-0.2468705664879921	-9.566488149831118	-2.104314450400263	-0.7210973436083078	0.3718775102297688	-0.3540337551112543	0.1519507186858316	-0.4195519348268839	0.6487603305785125
3347.686767578125	-0.2440764927947913	-9.535584732670316	-2.197450240173622	0	0	0	0.1519507186858316	-0.4195519348268839	0.6487603305785125
3351.593017578125	-0.2593039184064239	-9.763841600284746	-2.356536053119207	-0.7247108916015605	0.007393529800295976	0.007321044214018567	0.1519507186858316	-0.4195519348268839	0.6487603305785125
3355.499267578125	-0.1822196600898552	-9.745584356762386	-2.259344663671495	0.003650733907402479	-0.007337975153878983	-0.3650733907402479	0.1683778234086242	-0.4256619144602851	0.6446280991735538
3359.405517578125	-0.2485392822471829	-9.927027701259922	-2.048690591760571	-1.086991965574041	-0.7325536164662596	0.003544383491077821	0.1683778234086242	-0.4256619144602851	0.6446280991735538
3363.311767578125	-0.0005772684006274351	-9.720186650116203	-1.980757719979086	0.0001487436565990006	-1.487287822333407	-0.01487436565990006	0.1683778234086242	-0.4256619144602851	0.6446280991735538
3367.218017578125	-0.1663321611840627	-9.747114065449512	-2.122261293864578	-0.003501990250803478	-1.479949847179528	0.3501990250803478	0.1683778234086242	-0.4297352342158859	0.6384297520661157
3371.124267578125	-0.2284153272646547	-9.807187622482239	-2.05282242451151	-0.3621695162300315	-1.855413013016611	-0.0149324349678658	0.1683778234086242	-0.4297352342158859	0.6384297520661157
3375.030517578125	-0.2325058890051662	-9.745176904111672	-2.249803699827792	-0.728212881852364	-1.472556317379232	0.3575200692943664	0.1683778234086242	-0.4297352342158859	0.6384297520661157
3378.936767578125	-0.2131334870087009	-9.755579827466146	-2.228883766376639	-0.3621695162300315	-1.855413013016611	-0.0149324349678658	0.1683778234086242	-0.4297352342158859	0.6384297520661157
3382.843017578125	-0.2924361278539102	-9.837887681339431	-1.918795738202997	-0.3658946219657335	-1.104431126696028	0.3575781386023321	0.162217659137577	-0.4297352342158859	0.6384297520661157
3386.749267578125	-0.007131472878242913	-9.698972509563966	-2.095617570725237	-0.01087782989390794	-0.7216299857050666	1.087782989390794	0.162217659137577	-0.4297352342158859	0.6384297520661157
3390.655517578125	-0.2810800281694363	-9.834215875774785	-2.297332394352128	-0.7207626703809601	-2.974520090020397	-0.3875010778460294	0.162217659137577	-0.4297352342158859	0.6384297520661157
3394.561767578125	-0.03059522523325352	-9.836559122825419	-2.313492492224883	-0.003501990250803478	-1.479949847179528	0.3501990250803478	0.1683778234086242	-0.4338085539714867	0.6652892561983471
3398.468017578125	-0.1177580220197928	-9.658075093786401	-2.074732599340242	-0.007152724158205957	-1.472611872025649	0.7152724158205956	0.1683778234086242	-0.4338085539714867	0.6652892561983471
3402.374267578125	-0.01307055528961604	-9.877559479543644	-2.230981490346132	-0.724487776116662	-2.223538203699815	-0.01499050427583152	0.1683778234086242	-0.4338085539714867	0.6652892561983471
3406.280517578125	0.02354182554034135	-9.739054809741956	-2.118060851344712	-0.3622067021441813	-1.483591057433259	-0.01121384355289078	0.1683778234086242	-0.4338085539714867	0.6652892561983471
3410.186767578125	-0.1496379060298524	-9.58504958961632	-2.345403132338255	-0.007227095986505457	-0.7289679608589457	0.7227095986505457	0.1683778234086242	-0.4338085539714867	0.6652892561983471
3414.093017578125	0.002321691491047998	-9.759249319751229	-2.077389716368267	0.3551655357284246	-1.104486681342445	0.7153304851285613	0.1683778234086242	-0.4338085539714867	0.6652892561983471
3417.999267578125	0.06030404379669112	-9.700501692505737	-2.010134793223037	0.3587790837216773	-0.7400027009129726	0.3539756858032885	0.1683778234086242	-0.4338085539714867	0.6652892561983471
3421.905517578125	-0.1169165665778946	-9.587803023193521	-2.102781114070181	0.7210973436083078	-0.3718775102297688	0.3540337551112543	0.1683778234086242	-0.4256619144602851	0.6239669421487604
3425.811767578125	0.103029791623457	-9.640020367375083	-2.100993054115232	-0.3549796061576758	-0.7546230965743135	-0.7339234422034364	0.1683778234086242	-0.4256619144602851	0.6239669421487604
3429.718017578125	0.1424204737859423	-9.670617380142545	-2.080682459531408	-0.3550167920718256	-0.3828011409909618	-0.7302048507884614	0.1683778234086242	-0.4256619144602851	0.6239669421487604
3433.624267578125	0.04351515447844351	-9.729263433385304	-2.117171815948117	-0.3624298176290798	0.7473406760668516	0.01109770493695932	0.1786447638603696	-0.4175152749490835	0.6508264462809917
3437.530517578125	-0.002350081740259192	-9.800759859762683	-1.92166394199136	-7.437182829950031e-05	0.7436439111667036	0.007437182829950031	0.1786447638603696	-0.4175152749490835	0.6508264462809917
3441.436767578125	-0.3130403512189275	-9.84788304689412	-1.898654959369084	-0.3624670035432295	1.119162631650203	0.01481629635193433	0.1786447638603696	-0.4175152749490835	0.6508264462809917
3445.343017578125	-0.09851101029067674	-9.725185226660651	-2.382966323644109	0.007189910072355707	1.100789916442297	-0.7189910072355706	0.1786447638603696	-0.4175152749490835	0.6508264462809917
3449.249267578125	-0.3521353016187962	-9.733857080856746	-2.262156612706792	0.3585559682367788	1.490929032587138	0.3762872342931387	0.1601642710472279	-0.4256619144602851	0.6487603305785125
3453.155517578125	-0.3323883060563499	-9.994138885624887	-2.253723131455003	0.724636519773261	0.7362503813664076	0.0001161386159314638	0.1601642710472279	-0.4256619144602851	0.6487603305785125
3457.061767578125	-0.2951442421814437	-9.645429971638668	-2.161858593951878	0.36239263171493	-0.3755187204834998	-0.007379113521984299	0.1601642710472279	-0.4256619144602851	0.6487603305785125
3460.968017578125	-0.276118043501748	-9.845944834065564	-2.129398549941734	0.7174094237867555	0.007282420507461989	0.7228257372664771	0.1848049281314169	-0.4236252545824847	0.6466942148760331
3464.874267578125	-0.2132233894645363	-9.695608895926867	-2.225887017848792	-0.3623182598866305	-0.3681251906832038	-5.806930796573191e-05	0.1848049281314169	-0.4236252545824847	0.6466942148760331
3468.780517578125	-0.1676688687510893	-9.697546267562853	-2.077704374963691	-0.3622810739724808	-0.7399471462665556	-0.003776660722940747	0.1848049281314169	-0.4236252545824847	0.6466942148760331
3472.686767578125	-0.1444211977372972	-9.766696187268394	-2.185960075423429	0	0	0	0.1601642710472279	-0.4134419551934826	0.6322314049586777
3476.593017578125	-0.1936404264530879	-9.635943737886498	-2.211985784897071	-0.007264281900655208	-0.3571460052755938	0.7264281900655207	0.1601642710472279	-0.4134419551934826	0.6322314049586777
3480.499267578125	-0.2593141704408611	-9.827178248442545	-2.022860985304629	0.0001115577424492505	-1.115465866750055	-0.01115577424492505	0.1601642710472279	-0.4134419551934826	0.6322314049586777
3484.405517578125	-0.2423352241765054	-9.855021722483738	-2.255492527449822	-0.007152724158205957	-1.472611872025649	0.7152724158205956	0.1601642710472279	-0.4134419551934826	0.6322314049586777
3488.311767578125	-0.169561552031835	-9.69815823515696	-2.014614932272169	-0.3695081699589862	-1.468915107125501	0.7189329379276049	0.1581108829568789	-0.4378818737270875	0.6466942148760331
3492.218017578125	-0.2010360863726016	-9.685001667927143	-2.298797120913282	0.3515148018210221	-1.097148706188567	1.080403875868809	0.1581108829568789	-0.4378818737270875	0.6466942148760331
3496.124267578125	-0.05265050578017589	-9.580356996868924	-1.911649807327471	-0.7281756959382143	-1.844378272962584	0.3538014778793914	0.1581108829568789	-0.4378818737270875	0.6466942148760331
3500.030517578125	-0.07198189963889184	-9.316607480883242	-2.26727001203694	-0.3658574360515838	-1.47625308227938	0.3538595471873571	0.1765913757700205	-0.4297352342158859	0.6590909090909091
3503.936767578125	-0.1866958560488186	-9.707031660122452	-2.110138131706046	-0.369545355873136	-1.097093151542149	0.7226515293425799	0.1765913757700205	-0.4297352342158859	0.6590909090909091
3507.843017578125	0.03395710391067797	-9.599020536402215	-2.131903463689266	-0.724636519773261	-0.7362503813664076	-0.0001161386159314638	0.1765913757700205	-0.4297352342158859	0.6590909090909091
3511.749267578125	0.05556760388662511	-9.628699808076657	-2.185586796220837	-0.7209485999517089	-1.115410312103638	-0.3689081207711543	0.1765913757700205	-0.4297352342158859	0.6590909090909091
3515.655517578125	-0.1663479335447356	-9.947119165179465	-2.121735548508815	-0.7172606801301565	-1.494570242840869	-0.7377001029263772	0.1827515400410678	-0.4195519348268839	0.6466942148760331
3519.561767578125	-0.0008777318714458062	-9.730283799971769	-1.970742270951807	-0.3586303400650783	-0.7472851214204346	-0.3688500514631886	0.1827515400410678	-0.4195519348268839	0.6466942148760331
3523.468017578125	0.07900060013832361	-9.681123139288609	-1.966686671277453	0.007301467814804958	-0.01467595030775797	-0.7301467814804957	0.1827515400410678	-0.4195519348268839	0.6466942148760331
3527.374267578125	-0.08454616215090838	-9.707336592428794	-2.181794594969721	-0.7137215039652034	-0.3864423512446928	-1.0916177194217	0.1540041067761807	-0.4195519348268839	0.6528925619834711
3531.280517578125	-0.1860499778792642	-9.716822826180962	-2.131667404024528	-0.7174094237867555	-0.007282420507461989	-0.7228257372664771	0.1540041067761807	-0.4195519348268839	0.6528925619834711
3535.186767578125	-0.1327149516458853	-9.856244501032169	-2.242834945137158	0.003576362079102979	0.7363059360128246	-0.3576362079102978	0.1540041067761807	-0.4195519348268839	0.6528925619834711
3539.093017578125	-0.002785398894830698	-9.720900612309329	-1.90715337017231	-0.3660805515364823	0.7546786512207306	0.3761710956772072	0.1786447638603696	-0.4256619144602851	0.640495867768595
3542.999267578125	-0.4992180852196421	-9.584747180887685	-2.026063826011935	-0.0001487436565990006	1.487287822333407	0.01487436565990006	0.1786447638603696	-0.4256619144602851	0.640495867768595
3546.905517578125	-0.4848384239941769	-9.773431090424785	-2.172052533527439	-0.7210973436083078	0.3718775102297688	-0.3540337551112543	0.1786447638603696	-0.4256619144602851	0.640495867768595
3550.811767578125	-0.1695166008039173	-9.7281437009266	-2.016113306536092	-1.076076949765984	-0.3827455863445448	-1.087957197314691	0.1786447638603696	-0.4256619144602851	0.640495867768595
3554.718017578125	-0.119095518204853	-9.818507550886237	-2.030149393171567	-0.003650733907402479	0.007337975153878983	0.3650733907402479	0.1601642710472279	-0.4215885947046843	0.6384297520661157
3558.624267578125	-0.05454870938715706	-9.717637416035181	-2.181709687094765	-0.7245993338591113	-1.108072336949759	-0.003834730030906479	0.1601642710472279	-0.4215885947046843	0.6384297520661157
3562.530517578125	-0.3969587734150553	-9.7283500034042	-1.768040886164827	-0.7245621479449615	-1.479894292533111	-0.007553321445881495	0.1601642710472279	-0.4215885947046843	0.6384297520661157
3566.436767578125	-0.3166490673408826	-9.475716531773552	-2.111697755303916	0.3587047118933778	0.003641210253730994	0.3614128686332386	0.1765913757700205	-0.4195519348268839	0.6466942148760331
3570.343017578125	0.05483024602516795	-9.978938220451862	-2.161008200838932	-0.3660061797081828	0.01103474005402697	0.3687339128472572	0.1765913757700205	-0.4195519348268839	0.6466942148760331
3574.249267578125	-0.2827724024696363	-9.828096410131849	-1.907586584345459	-0.3623554458007803	0.003696764900147988	0.003660522107009284	0.1765913757700205	-0.4195519348268839	0.6466942148760331
3578.155517578125	-0.2002190780897463	-9.458070835249018	-1.992697397008456	-0.3549796061576758	-0.7546230965743135	-0.7339234422034364	0.1765913757700205	-0.4195519348268839	0.6466942148760331
3582.061767578125	-0.2416388744527977	-9.758129902739739	-1.945370851573411	0.3623182598866305	0.3681251906832038	5.806930796573191e-05	0.1765913757700205	-0.4195519348268839	0.6466942148760331
3585.968017578125	-0.1148693141625547	-9.760474411579226	-1.837689527914844	0.358667525979228	0.3754631658370828	0.3651314600482136	0.1765913757700205	-0.4195519348268839	0.6466942148760331
3589.874267578125	-0.3614338968534929	-9.846863626649297	-1.952203438216903	0.003687919821552229	-0.3791599307372308	-0.3687919821552229	0.1765913757700205	-0.4195519348268839	0.6466942148760331
3593.780517578125	-0.2473823795918271	-9.856653636068025	-2.087254013605764	0.3587047118933778	0.003641210253730994	0.3614128686332386	0.1683778234086242	-0.4276985743380855	0.6652892561983471
3597.686767578125	-0.3587896605866845	-9.716008656923028	-2.040344647110516	1.087029151488191	0.3607316608829078	-0.007262974906052836	0.1683778234086242	-0.4276985743380855	0.6652892561983471
3601.593017578125	-0.04222182090326734	-9.870318388758722	-1.925939303224423	0.3660061797081828	-0.01103474005402697	-0.3687339128472572	0.1683778234086242	-0.4276985743380855	0.6652892561983471
3605.499267578125	-0.0569823846389825	-9.778424304366604	-2.100587178700584	0.7246737056874109	0.3644284257830558	-0.003602452799043552	0.1745379876796715	-0.4399185336048879	0.6446280991735538
3609.405517578125	-0.0222185244798867	-9.880517322915164	-1.926049184003777	0.7283988114231127	-0.3865534605375267	-0.3761130263692414	0.1745379876796715	-0.4399185336048879	0.6446280991735538
3613.311767578125	0.08385217828130163	-9.759554462355712	-2.128405942710054	0.7283988114231127	-0.3865534605375267	-0.3761130263692414	0.1745379876796715	-0.4399185336048879	0.6446280991735538
