Time Stamp	Accelerometer X	Accelerometer Y	Accelerometer Z	Gyroscope X	Gyroscope Y	Gyroscope Z	Magnetometer X	Magnetometer Y	Magnetometer Z
356.475830078125	0.1788664562108007	-9.842166512491842	-1.962215207026692	-114.2634161353929	-35.37552036814049	-22.93374877955375	0.1868583162217659	-0.4175152749490835	0.6983471074380165
360.382080078125	0.07358831457342467	-9.579539778287927	-2.119610485780822	-11.57697185243136	-1.405681221298066	-1.723104611936842	0.1786447638603696	-0.415478615071283	0.6797520661157025
364.288330078125	0.133167618397197	-9.603609136718241	-1.772253946573231	-12.25310762581219	-12.64834003599875	-6.573295389795296	0.1786447638603696	-0.415478615071283	0.6797520661157025
368.194580078125	0.06840630547434981	-9.491215294563295	-1.946876849144993	-27.87521921468187	-5.715866218099387	-2.333150995581621	0.1786447638603696	-0.415478615071283	0.6797520661157025
372.100830078125	0.2747221895821981	-9.854506492035089	-1.824072986073268	-49.2552317225241	4.913257667343195	-2.013059631648772	0.1786447638603696	-0.415478615071283	0.6797520661157025
376.007080078125	0.1508539550377314	-9.261223887871132	-2.028465167924381	-64.85197410361272	13.65347543708216	-0.3098360155419562	0.1806981519507187	-0.3869653767820774	0.6838842975206612
379.913330078125	0.1451136043708366	-9.853079934586763	-1.837120145694553	9.062908738068407	-3.817976653491097	-0.4937723575652301	0.1806981519507187	-0.3869653767820774	0.6838842975206612
383.819580078125	0.02151428857584257	-9.649710380027143	-2.050476285861419	7.975916772494366	-4.550530269957356	-0.4902279740741523	0.1806981519507187	-0.3869653767820774	0.6838842975206612
387.725830078125	0.269640334973396	-9.762816291691935	-1.988011165779866	7.968578118765411	-4.164032364066246	0.2436373988213185	0.1868583162217659	-0.4073319755600814	0.6756198347107438
391.632080078125	0.117504875630993	-9.752006756879311	-1.916829187699767	5.794333886218279	-3.026385907915303	0.2767563057082992	0.1868583162217659	-0.4073319755600814	0.6756198347107438
395.538330078125	0.06929113490809839	-9.87092919971305	-1.97637116360328	3.978682807822077	-0.7696323747605736	0.6824438554734436	0.1868583162217659	-0.4073319755600814	0.6756198347107438
399.444580078125	0.1563995170503162	-9.872764156153732	-1.879983901677206	1.087066337402341	-0.01109029470044396	-0.01098156632102785	0.1868583162217659	-0.4073319755600814	0.6756198347107438
403.350830078125	-0.2730637258574447	-9.848290604693908	-1.897875804751844	-0.7247480775157102	0.3792154853836477	0.01103963562899358	0.1868583162217659	-0.4073319755600814	0.6756198347107438
407.257080078125	0.2440291757127727	-9.731097233186203	-2.134305857092423	-1.094553734787894	1.884876022924961	0.7597213048763987	0.1868583162217659	-0.4073319755600814	0.6756198347107438
411.163330078125	-0.115925273709604	-9.617482505166105	-2.135824209679866	-2.177932152368683	1.516806386888174	0.4019108890422036	0.1868583162217659	-0.4073319755600814	0.6756198347107438
415.069580078125	0.04150102402051668	-10.06991466890003	-2.050034134017223	-1.815651078396202	2.25675353315473	0.4056875497651444	0.1909650924024641	-0.4195519348268839	0.6714876033057852
418.975830078125	0.04399621147896637	-9.629107891621802	-2.133207049298879	-1.815613892482053	1.884931577571378	0.4019689583501693	0.1909650924024641	-0.4195519348268839	0.6714876033057852
422.882080078125	0.04108147922661806	-9.790050321716727	-2.036049307553935	-0.7284731832514122	1.13019737170423	0.3835502091991915	0.1909650924024641	-0.4195519348268839	0.6714876033057852
426.788330078125	0.138889830849318	-9.841758954692054	-1.962994361643932	-0.3697684713580345	1.133838581957961	0.7449630778324301	0.1930184804928131	-0.3991853360488798	0.6611570247933884
430.694580078125	0.1056929547230728	-9.802492611306207	-1.856431824102428	-0.36239263171493	0.3755187204834998	0.007379113521984299	0.1930184804928131	-0.3991853360488798	0.6611570247933884
434.600830078125	0.1313301383788064	-9.570869921924185	-2.044337945960212	-0.003687919821552229	0.3791599307372308	0.3687919821552229	0.1930184804928131	-0.3991853360488798	0.6611570247933884
438.507080078125	-0.04098921091668174	-9.63991984486306	-1.967026302777276	0.3549796061576758	0.7546230965743135	0.7339234422034364	0.1930184804928131	-0.3991853360488798	0.6611570247933884
442.413330078125	0.03466291705078936	-9.648792323486912	-2.155430568359646	1.076002577937684	1.126389497511249	1.095394380144641	0.188911704312115	-0.4114052953156823	0.6962809917355373
446.319580078125	0.02735637096907749	-9.967821440053331	-2.245212365635917	-0.01098938763635719	0.3938358810449887	1.098938763635719	0.188911704312115	-0.4114052953156823	0.6962809917355373
450.225830078125	-0.04598195168768204	-9.818200831045685	-2.133934943743932	-0.365968993794033	-0.3607872155293249	0.3650153214322821	0.188911704312115	-0.4114052953156823	0.6962809917355373
454.132080078125	0.1750913416837468	-9.780053799522253	-2.169711389458227	-0.3733076475229877	0.02571069036178494	1.098880694327753	0.1848049281314169	-0.4134419551934826	0.6694214876033058
458.038330078125	-0.05465438420366535	-9.857671584225852	-2.178187193211155	-0.01095220172220744	0.02201392546163695	1.095220172220744	0.1848049281314169	-0.4134419551934826	0.6694214876033058
461.944580078125	0.09973967718709412	-9.761084171042841	-1.991322572903137	-0.7282872536806635	-0.7289124062125286	0.3649572521243164	0.1848049281314169	-0.4134419551934826	0.6694214876033058
465.850830078125	-0.01218336000176652	-9.627272619733906	-2.260554666607783	-1.086954779659892	-1.104375572049612	-0.000174207923897194	0.1848049281314169	-0.4134419551934826	0.6694214876033058
469.757080078125	-0.1495732393510936	-9.698362014056855	-2.014225354963548	-0.7283244395948133	-0.3570904506291769	0.3686758435392914	0.1848049281314169	-0.4134419551934826	0.6694214876033058
473.663330078125	0.01833852375435809	-9.987403877319426	-2.277950791811937	-0.7282872536806635	-0.7289124062125286	0.3649572521243164	0.1848049281314169	-0.4134419551934826	0.6694214876033058
477.569580078125	-0.09180617976863525	-9.636350664791857	-2.273127341045492	-0.7209857858658586	-0.7435883565202867	-0.3651895293561793	0.1848049281314169	-0.4134419551934826	0.6694214876033058
481.475830078125	-0.05081933470605447	-9.959764918221625	-1.972688843131518	-0.724636519773261	-0.7362503813664076	-0.0001161386159314638	0.1724845995893224	-0.4093686354378818	0.6797520661157025
485.382080078125	-0.1485669627401638	-9.738036651285988	-2.047767908661208	-1.079616125930937	-1.490873477940721	-0.7340395808193679	0.1724845995893224	-0.4093686354378818	0.6797520661157025
489.288330078125	0.01732278372702459	-9.801065633261596	-1.910759457567487	-0.3622067021441813	-1.483591057433259	-0.01121384355289078	0.1724845995893224	-0.4093686354378818	0.6797520661157025
493.194580078125	0.01905064583873864	-9.690506957845475	-1.968354861291288	-0.7208370422092596	-2.230876178853694	-0.3800638950160794	0.1765913757700205	-0.4297352342158859	0.6632231404958678
497.100830078125	-0.04091429220348555	-9.689895621145794	-1.969523593217149	-0.7207998562951099	-2.602698134437046	-0.3837824864310544	0.1765913757700205	-0.4297352342158859	0.6632231404958678
501.007080078125	-0.113096500822923	-9.679901201932744	-1.896783305902569	0.3626529331139783	-2.978272409566962	-0.03340925342680941	0.1765913757700205	-0.4297352342158859	0.6632231404958678
504.913330078125	-0.07682007127529791	-9.668171823045682	-2.105997624156737	0.0003718591414975016	-3.718219555833518	-0.03718591414975016	0.1765913757700205	-0.4297352342158859	0.6632231404958678
508.819580078125	0.1813442940725103	-10.02136534491656	-2.044809802417009	-0.003390432508354228	-2.595415713929583	0.3390432508354227	0.162217659137577	-0.4276985743380855	0.6652892561983471
512.725830078125	0.1297221462082062	-9.761389839392681	-1.990738206940207	-0.003501990250803478	-1.479949847179528	0.3501990250803478	0.162217659137577	-0.4276985743380855	0.6652892561983471
516.632080078125	0.2257087901731884	-9.580354157844003	-2.190293005772947	-0.3658574360515838	-1.47625308227938	0.3538595471873571	0.162217659137577	-0.4276985743380855	0.6652892561983471
520.538330078125	0.3309877204285982	-9.63298063706142	-2.032924014286604	-0.369545355873136	-1.097093151542149	0.7226515293425799	0.1704312114989733	-0.4236252545824847	0.6756198347107438
524.444580078125	0.1715315198798777	-9.721204808572171	-2.05105066266259	0.0001859295707487508	-1.859109777916759	-0.01859295707487508	0.1704312114989733	-0.4236252545824847	0.6756198347107438
528.350830078125	0.1406027092183928	-9.721205124019386	-2.020090307279759	-0.3621695162300315	-1.855413013016611	-0.0149324349678658	0.1704312114989733	-0.4236252545824847	0.6756198347107438
532.257080078125	0.3678193370719086	-9.781071747680082	-2.260644569063619	-0.3658946219657335	-1.104431126696028	0.3575781386023321	0.1704312114989733	-0.4236252545824847	0.6756198347107438
536.163330078125	0.2424061997995333	-9.911621995398152	-2.080206659984443	-0.7245993338591113	-1.108072336949759	-0.003834730030906479	0.1704312114989733	-0.4236252545824847	0.6756198347107438
540.069580078125	0.01431420592867264	-9.618705073416397	-2.143806864289088	-0.3622810739724808	-0.7399471462665556	-0.003776660722940747	0.1704312114989733	-0.4236252545824847	0.6756198347107438
543.975830078125	0.1801432288072704	-9.851753689352314	-2.004774293575681	-1.438246465996015	-2.238158599361156	-1.102889632282557	0.1704312114989733	-0.4236252545824847	0.6756198347107438
547.882080078125	-0.02220275211921382	-9.680512223185213	-1.92657492935954	-1.079616125930937	-1.490873477940721	-0.7340395808193679	0.1868583162217659	-0.405295315682281	0.6776859504132231
551.788330078125	0.06051460481167407	-9.630433611110893	-2.017153493722469	-0.724636519773261	-0.7362503813664076	-0.0001161386159314638	0.1868583162217659	-0.405295315682281	0.6776859504132231
555.694580078125	0.09057199254598235	-9.680715055743466	-2.019066418199412	-1.08322967392419	-1.855357458370194	-0.3726847814940951	0.1868583162217659	-0.405295315682281	0.6776859504132231
559.600830078125	0.03866278771743185	-9.860832365304697	-1.955426257247728	-1.086917593745742	-1.476197527632963	-0.00389279933887221	0.1704312114989733	-0.4073319755600814	0.6859504132231405
563.507080078125	0.3678398411407834	-9.65439845136448	-1.927994704692777	-0.362243888058331	-1.111769101849907	-0.007495252137915762	0.1704312114989733	-0.4073319755600814	0.6859504132231405
567.413330078125	0.2911656642017096	-9.805856435241447	-1.705522140056986	-0.3622810739724808	-0.7399471462665556	-0.003776660722940747	0.1704312114989733	-0.4073319755600814	0.6859504132231405
571.319580078125	0.6224104741092757	-9.645420613371334	-2.080349136975855	-0.7209857858658586	-0.7435883565202867	-0.3651895293561793	0.1704312114989733	-0.4073319755600814	0.6859504132231405
575.225830078125	0.2667413750817206	-9.723753622056909	-1.891379169390685	-0.7210601576941581	5.555464641699391e-05	-0.3577523465262293	0.1745379876796715	-0.4175152749490835	0.6838842975206612
579.132080078125	0.4082967348847554	-9.764650722387263	-1.94322449615851	0.3622810739724808	0.7399471462665556	0.003776660722940747	0.1745379876796715	-0.4175152749490835	0.6838842975206612
583.038330078125	0.3098417164744673	-9.913151178339923	-1.994723882482244	-0.003725105735701979	0.7509818863205826	0.3725105735701979	0.1745379876796715	-0.4175152749490835	0.6838842975206612
586.944580078125	0.1782063829166407	-9.612379936190285	-1.940212763888024	-0.36239263171493	0.3755187204834998	0.007379113521984299	0.1806981519507187	-0.4093686354378818	0.6466942148760331
590.850830078125	0.09864428673836256	-9.451438347287931	-1.954809557945419	-0.003687919821552229	0.3791599307372308	0.3687919821552229	0.1806981519507187	-0.4093686354378818	0.6466942148760331
594.757080078125	0.2024303630560842	-9.701214182611865	-2.081012101869471	0.003613547993252729	0.3644839804294728	-0.3613547993252729	0.1806981519507187	-0.4093686354378818	0.6466942148760331
598.663330078125	0.3135427009063588	-9.715287860040277	-1.784756696878623	-0.3623554458007803	0.003696764900147988	0.003660522107009284	0.1806981519507187	-0.4093686354378818	0.6466942148760331
602.569580078125	0.1064587028337412	-9.892245019417089	-1.881956761124706	-0.36239263171493	0.3755187204834998	0.007379113521984299	0.1806981519507187	-0.4093686354378818	0.6466942148760331
606.475830078125	-0.0288626314133376	-9.799332250823646	-2.037912286222081	-0.003650733907402479	0.007337975153878983	0.3650733907402479	0.1806981519507187	-0.4093686354378818	0.6466942148760331
610.382080078125	0.2450046962203904	-9.96078181488874	-2.166823207346345	-1.079616125930937	-1.490873477940721	-0.7340395808193679	0.1806981519507187	-0.4093686354378818	0.6466942148760331
614.288330078125	0.03626933198532224	-9.878272915991413	-2.208977732844075	-0.3660061797081828	0.01103474005402697	0.3687339128472572	0.1724845995893224	-0.4195519348268839	0.6818181818181819
618.194580078125	0.2679377086387586	-9.820033474206802	-2.264590287958617	-0.7210229717800084	-0.3717664009369348	-0.3614709379412043	0.1724845995893224	-0.4195519348268839	0.6818181818181819
622.100830078125	0.3591666200067664	-9.903869459531146	-1.972220666892211	-1.083378417580789	-0.3680696360367868	-0.357810415834195	0.1724845995893224	-0.4195519348268839	0.6818181818181819
626.007080078125	-0.0322576320481751	-9.850429967695575	-1.924745598394163	0	0	0	0.1765913757700205	-0.4134419551934826	0.6735537190082644
629.913330078125	-0.0004573984595135384	-9.800147892168576	-1.984753384682882	-0.003687919821552229	0.3791599307372308	0.3687919821552229	0.1765913757700205	-0.4134419551934826	0.6735537190082644
633.819580078125	0.04470202461907777	-9.678879678706499	-2.156734153969259	-0.003725105735701979	0.7509818863205826	0.3725105735701979	0.1765913757700205	-0.4134419551934826	0.6735537190082644
637.725830078125	-0.01981323947727244	-9.379739614097653	-2.006225350757586	-0.003650733907402479	0.007337975153878983	0.3650733907402479	0.1765913757700205	-0.4134419551934826	0.6735537190082644
641.632080078125	0.01443328725175289	-9.908666570455267	-2.147776241725097	-0.01102657355050694	0.7656578366283405	1.102657355050694	0.1724845995893224	-0.4215885947046843	0.6590909090909091
645.538330078125	0.03512820169063934	-9.748641881453359	-2.170940056354644	-0.01098938763635719	0.3938358810449887	1.098938763635719	0.1724845995893224	-0.4215885947046843	0.6590909090909091
649.444580078125	0.08924948010356132	-9.851142668099849	-1.974982670118711	-0.3623182598866305	-0.3681251906832038	-5.806930796573191e-05	0.1724845995893224	-0.4215885947046843	0.6590909090909091
653.350830078125	0.002367431336999351	-9.57923453053437	-2.078914377899979	-0.01460293562960992	0.02935190061551593	1.460293562960991	0.1663244353182751	-0.4093686354378818	0.6797520661157025
657.257080078125	0.06407915832374506	-9.762614405475324	-1.802638610791502	0.3550911639001251	-0.3608427701757418	0.7227676679585114	0.1663244353182751	-0.4093686354378818	0.6797520661157025
661.163330078125	0.1656287138980522	-9.573113382506294	-1.854290463268406	-0.007264281900655208	-0.3571460052755938	0.7264281900655207	0.1663244353182751	-0.4093686354378818	0.6797520661157025
665.069580078125	-0.09877677456801479	-9.828604490443658	-2.040774181066175	-0.369545355873136	-1.097093151542149	0.7226515293425799	0.1663244353182751	-0.4093686354378818	0.6797520661157025
668.975830078125	0.1871635065427695	-9.762817132884505	-1.905450218092317	-0.3658574360515838	-1.47625308227938	0.3538595471873571	0.1663244353182751	-0.4093686354378818	0.6797520661157025
672.882080078125	0.13245628493085	-9.690505801205692	-2.081876164361668	-0.007115538244056207	-1.844433827609001	0.7115538244056206	0.1663244353182751	-0.4093686354378818	0.6797520661157025
676.788330078125	0.2834498253605365	-9.781684556466759	-2.114994178684548	-0.003576362079102979	-0.7363059360128246	0.3576362079102978	0.1663244353182751	-0.4093686354378818	0.6797520661157025
680.694580078125	0.113940322118922	-9.619825962514881	-2.131344070630734	7.437182829950031e-05	-0.7436439111667036	-0.007437182829950031	0.1704312114989733	-0.4134419551934826	0.6900826446280992
684.600830078125	0.4256218844658809	-9.602382257356032	-2.187396148862694	0.003650733907402479	-0.007337975153878983	-0.3650733907402479	0.1704312114989733	-0.4134419551934826	0.6900826446280992
688.507080078125	-0.07082184251140147	-9.739565729078688	-1.972605249619952	-0.3587047118933778	-0.003641210253730994	-0.3614128686332386	0.1704312114989733	-0.4134419551934826	0.6900826446280992
692.413330078125	0.06168570259163544	-9.780054956162036	-2.056190086387848	0.3658946219657335	1.104431126696028	-0.3575781386023321	0.1827515400410678	-0.4195519348268839	0.6818181818181819
696.319580078125	0.03582297417827972	-10.07175057168236	-1.860765805942657	0.003539176164953228	1.108127891596177	-0.3539176164953228	0.1827515400410678	-0.4195519348268839	0.6818181818181819
700.225830078125	0.08974552084672341	-9.760982281592893	-1.991517361557447	-0.7175581674433545	1.480005401825945	-0.7079513716065771	0.1827515400410678	-0.4195519348268839	0.6818181818181819
704.132080078125	0.0846683979461232	-9.742623884664088	-1.82227993153744	-0.358816269635827	1.111824656496325	-0.3502570943883135	0.1827515400410678	-0.4195519348268839	0.6818181818181819
708.038330078125	-0.03140040424560405	-9.580152797372746	-1.953319858479865	0.3622067021441813	1.483591057433259	0.01121384355289078	0.1642710472279261	-0.4358452138492871	0.6880165289256198
711.944580078125	-0.2826067926825711	-9.728042862967365	-1.913106910580967	-0.3623554458007803	0.003696764900147988	0.003660522107009284	0.1642710472279261	-0.4358452138492871	0.6880165289256198
715.850830078125	-0.1203415346980106	-9.618910429552358	-1.988615510066315	-0.7319751735022159	-0.3497524754752979	0.7337492342795393	0.1642710472279261	-0.4358452138492871	0.6880165289256198
719.757080078125	-0.2558750071961396	-10.01606625232675	-2.137499760128681	-0.007301467814804958	0.01467595030775797	0.7301467814804957	0.1683778234086242	-0.4134419551934826	0.7024793388429752
723.663330078125	-0.03046904634787046	-9.569851658319145	-1.984365121737651	-0.3660805515364823	0.7546786512207306	0.3761710956772072	0.1683778234086242	-0.4134419551934826	0.7024793388429752
727.569580078125	0.07907473023348614	-9.941099170557839	-1.969157674449538	-0.7319008016739164	-1.093396386642001	0.7263120514495892	0.1683778234086242	-0.4134419551934826	0.7024793388429752
731.475830078125	-0.03640812875924361	-9.748438628298821	-2.119729041358547	-1.086806036003293	-2.591663394383019	-0.01504857358379726	0.162217659137577	-0.4114052953156823	0.6880165289256198
735.382080078125	-0.01771157241761112	-9.729060075081696	-2.076280919412963	-1.449087109975773	-3.331610540649574	-0.018825234306738	0.162217659137577	-0.4114052953156823	0.6880165289256198
739.288330078125	0.2468532168912519	-9.720184126538495	-2.228440563041731	-0.3839623619319971	-2.926851028843393	2.164352135228696	0.162217659137577	-0.4114052953156823	0.6880165289256198
743.194580078125	0.1716663735636308	-9.811161205881092	-2.055545785454361	-1.086768850089143	-2.96348534996637	-0.01876716499877227	0.162217659137577	-0.4114052953156823	0.6880165289256198
747.100830078125	0.1437232707775222	-9.416862809115269	-2.457442359250739	-1.090531141738995	-1.840681508062436	0.3574619999864007	0.1704312114989733	-0.4175152749490835	0.6694214876033058
751.007080078125	0.1892975069418102	-9.502127139422148	-1.976583564727008	-0.3695081699589862	-1.468915107125501	0.7189329379276049	0.1704312114989733	-0.4175152749490835	0.6694214876033058
754.913330078125	0.2320674173784602	-9.681631535047632	-2.068913912615339	-1.453035331196374	-0.3496969208288809	0.37599688775331	0.1704312114989733	-0.4175152749490835	0.6694214876033058
758.819580078125	0.3152713516361065	-9.39472892963766	-1.842378387870213	-0.7282500677665138	-1.10073436179588	0.3612386607093414	0.1745379876796715	-0.4134419551934826	0.6735537190082644
762.725830078125	0.2523112423021023	-9.641752698322319	-2.077041410070074	-1.804289831618348	-1.855301903723777	-0.7304371280203243	0.1745379876796715	-0.4134419551934826	0.6735537190082644
766.632080078125	0.2458524606065577	-9.543841037737213	-1.861748686885256	-1.086880407831592	-1.848019483216315	-0.007611390753847227	0.1745379876796715	-0.4134419551934826	0.6735537190082644
770.538330078125	0.1278602190307727	-9.571991862513384	-1.928673967692422	-0.7245621479449615	-1.479894292533111	-0.007553321445881495	0.1745379876796715	-0.4134419551934826	0.6735537190082644
774.444580078125	0.2696710910767081	-9.572806347218529	-1.989036369223603	-1.086843221917442	-2.219841438799667	-0.01132998216882224	0.1683778234086242	-0.4093686354378818	0.6921487603305785
778.350830078125	0.1373433508853421	-9.652258983213738	-1.911445029511401	-0.7318264298456169	-1.837040297808705	0.7188748686196392	0.1683778234086242	-0.4093686354378818	0.6921487603305785
782.257080078125	0.2769910436649919	-9.683772895881653	-1.89970145549973	-0.7245249620308118	-1.851716248116463	-0.01127191286085651	0.1683778234086242	-0.4093686354378818	0.6921487603305785
786.163330078125	0.493482466260949	-9.747107335908961	-1.782748875364966	-0.724636519773261	-0.7362503813664076	-0.0001161386159314638	0.1724845995893224	-0.405295315682281	0.6797520661157025
790.069580078125	0.0482673667491824	-9.601060218084431	-1.94224555830608	-0.7319008016739164	-1.093396386642001	0.7263120514495892	0.1724845995893224	-0.405295315682281	0.6797520661157025
793.975830078125	0.4750713896474957	-9.746393584013976	-1.835712988249854	-0.7282872536806635	-0.7289124062125286	0.3649572521243164	0.1724845995893224	-0.405295315682281	0.6797520661157025
797.882080078125	0.2444652814853779	-9.600956225653063	-2.148842716179261	-0.365968993794033	-0.3607872155293249	0.3650153214322821	0.1704312114989733	-0.4093686354378818	0.6880165289256198
801.788330078125	0.1716671621816645	-9.601160950894595	-2.055572072722149	0.3587418978075275	-0.3681807453296208	0.3576942772182636	0.1704312114989733	-0.4093686354378818	0.6880165289256198
805.694580078125	0.2605633414061533	-9.532417852945345	-2.018778046871776	-0.728361625508963	0.01473150495417496	0.3723944349542664	0.1704312114989733	-0.4093686354378818	0.6880165289256198
809.600830078125	0.4176607854162445	-9.554956346048748	-1.922026180541481	-0.3624298176290798	0.7473406760668516	0.01109770493695932	0.1704312114989733	-0.4093686354378818	0.6880165289256198
813.507080078125	0.3576067335362185	-9.284373822823289	-1.920224451207282	-0.007450211471403958	1.501963772641165	0.7450211471403958	0.1745379876796715	-0.4093686354378818	0.7004132231404959
817.413330078125	0.2938201525029554	-9.611664817357378	-2.127338416765178	-0.369842843186334	1.877482493124665	0.7524002606623801	0.1745379876796715	-0.4093686354378818	0.7004132231404959
821.319580078125	0.3401404213270707	-9.703354597104248	-2.004680710902355	-0.7248968211723092	1.866503307717055	0.02591400128889364	0.1745379876796715	-0.4093686354378818	0.7004132231404959
825.225830078125	0.1107401101383946	-9.800860697721919	-2.024670337946486	-0.00387384939230098	2.23826970865399	0.387384939230098	0.1704312114989733	-0.415478615071283	0.6797520661157025
829.132080078125	0.4336776176795546	-9.783110903616944	-2.122587255985151	-0.007487397385553709	1.873785728224517	0.7487397385553708	0.1704312114989733	-0.415478615071283	0.6797520661157025
833.038330078125	0.3996692535966898	-9.834106941337071	-1.988975119889657	0.7207626703809601	2.974520090020397	0.3875010778460294	0.1704312114989733	-0.415478615071283	0.6797520661157025
836.944580078125	0.289388119153876	-9.813097841473581	-1.979603971795865	-0.3590021992065758	2.970934434413083	-0.3316641373134385	0.1704312114989733	-0.415478615071283	0.6797520661157025
840.850830078125	0.06033401128196959	-9.72049200301883	-2.011133709398986	0.3655971346525355	4.079006771362843	-0.327829407282532	0.1704312114989733	-0.415478615071283	0.6797520661157025
844.757080078125	0.1057032067575102	-9.739155963148406	-2.190106891917007	0.3619092148309833	4.458166702100073	0.0409625748726909	0.1704312114989733	-0.415478615071283	0.6797520661157025
848.663330078125	-0.08101157612411589	-9.819527076280131	-1.966280795862805	0.006892422759157706	4.075365561109112	-0.6892422759157706	0.1704312114989733	-0.415478615071283	0.6797520661157025
852.569580078125	-0.01153748183221207	-9.637063785792416	-2.282083938926265	0.3692850544740877	3.699846840625612	-0.6966213894377549	0.188911704312115	-0.4358452138492871	0.6900826446280992
856.475830078125	-0.1171279162109112	-9.867871359574862	-2.095736126302961	0.01069190032315919	2.580739763621826	-1.069190032315918	0.188911704312115	-0.4358452138492871	0.6900826446280992
860.382080078125	-0.0932343670275646	-9.946812445338914	-2.225521099081181	0.007115538244056207	1.844433827609001	-0.7115538244056206	0.188911704312115	-0.4358452138492871	0.6900826446280992
864.288330078125	-0.2382446624359938	-9.917032440854305	-2.05851125213354	0.7281385100240645	2.216200228545936	-0.3500828864644163	0.1868583162217659	-0.4215885947046843	0.6776859504132231
868.194580078125	-0.2170087560260276	-9.696832831115083	-2.099708132465748	0.007152724158205957	1.472611872025649	-0.7152724158205956	0.1868583162217659	-0.4215885947046843	0.6776859504132231
872.100830078125	-0.1528546789890863	-10.17608967953981	-2.238177367030456	0.007189910072355707	1.100789916442297	-0.7189910072355706	0.1868583162217659	-0.4215885947046843	0.6776859504132231
876.007080078125	0.04348518699316505	-9.70927312287221	-2.116172899772168	-0.3551655357284246	1.104486681342445	-0.7153304851285613	0.1868583162217659	-0.4215885947046843	0.6776859504132231
879.913330078125	-0.2180016261303855	-10.08715385911549	-2.066612462320487	0.7246737056874109	0.3644284257830558	-0.003602452799043552	0.1683778234086242	-0.4093686354378818	0.6735537190082644
883.819580078125	0.05968734449438149	-9.920701091946816	-1.989578149812716	0.3660061797081828	-0.01103474005402697	-0.3687339128472572	0.1683778234086242	-0.4093686354378818	0.6735537190082644
887.725830078125	-0.2618527318911613	-9.817999049978141	-1.938242270294625	-0.3585559682367788	-1.490929032587138	-0.3762872342931387	0.1683778234086242	-0.4093686354378818	0.6735537190082644
891.632080078125	0.009446855425021735	-9.740278850079244	-1.981561847500725	0.3588534555499768	-1.483646612079676	0.3465385029733385	0.1581108829568789	-0.4195519348268839	0.6652892561983471
895.538330078125	-0.2208548461761095	-9.868076400263609	-1.971505127463018	-0.007115538244056207	-1.844433827609001	0.7115538244056206	0.1581108829568789	-0.4195519348268839	0.6652892561983471
899.444580078125	0.001179772578331452	-9.839618540199673	-2.039325752611048	0.3590021992065758	-2.970934434413083	0.3316641373134385	0.1581108829568789	-0.4195519348268839	0.6652892561983471
903.350830078125	0.02649046836813636	-9.88143474856097	-1.883015612271212	0.3626529331139783	-2.978272409566962	-0.03340925342680941	0.1581108829568789	-0.4195519348268839	0.6652892561983471
907.257080078125	-0.07295978600061043	-9.716923664140198	-2.234673799979654	0.7212832731790566	-2.230987288146528	0.3354407980363792	0.1581108829568789	-0.4195519348268839	0.6652892561983471
911.163330078125	0.07248109485418848	-9.753231112663812	-1.749369828472949	0.3588534555499768	-1.483646612079676	0.3465385029733385	0.1581108829568789	-0.4195519348268839	0.6652892561983471
915.069580078125	0.2999240560833601	-9.543024555199713	-1.997468536112003	0.00383666347815123	-1.866447753070638	-0.3836663478151229	0.1581108829568789	-0.4195519348268839	0.6652892561983471
918.975830078125	0.07644626632735062	-9.871949040554156	-1.881542210911687	0.00383666347815123	-1.866447753070638	-0.3836663478151229	0.1704312114989733	-0.4338085539714867	0.6797520661157025
922.882080078125	0.2181987806387964	-9.412782394260123	-1.939959354626546	0.7248224493440097	-1.122859396550351	-0.01847681845894361	0.1704312114989733	-0.4338085539714867	0.6797520661157025
926.788330078125	0.1085477520048642	-9.601569560185094	-1.951591733495473	0.3624298176290798	-0.7473406760668516	-0.01109770493695932	0.1704312114989733	-0.4338085539714867	0.6797520661157025
930.694580078125	0.01281188857458078	-9.669190822694221	-2.093729619152693	7.437182829950031e-05	-0.7436439111667036	-0.007437182829950031	0.1724845995893224	-0.415478615071283	0.6838842975206612
934.600830078125	0.1074208168347869	-9.691933935890084	-1.91402722782623	0.003687919821552229	-0.3791599307372308	-0.3687919821552229	0.1724845995893224	-0.415478615071283	0.6838842975206612
938.507080078125	0.02533514294884787	-9.531808303779874	-1.844504764961596	0.36239263171493	-0.3755187204834998	-0.007379113521984299	0.1724845995893224	-0.415478615071283	0.6838842975206612
942.413330078125	0.1465867428576836	-9.572603619809348	-1.886224761922787	0.003687919821552229	-0.3791599307372308	-0.3687919821552229	0.1724845995893224	-0.415478615071283	0.6838842975206612
946.319580078125	0.03511873827423561	-9.601978274624665	-1.837291275807854	-0.3623182598866305	-0.3681251906832038	-5.806930796573191e-05	0.1971252566735113	-0.4093686354378818	0.6735537190082644
950.225830078125	0.03296581104238742	-9.569341054429628	-2.098860368079581	0.3624298176290798	-0.7473406760668516	-0.01109770493695932	0.1971252566735113	-0.4093686354378818	0.6735537190082644
954.132080078125	-0.08291845452946714	-9.600143633631196	-1.902718182351096	-0.7136099462227541	-1.501908217994748	-1.102773493666625	0.1971252566735113	-0.4093686354378818	0.6735537190082644
958.038330078125	-0.01112661183668353	-9.560264271160529	-1.96244627211055	-0.3622067021441813	-1.483591057433259	-0.01121384355289078	0.1642710472279261	-0.4215885947046843	0.6694214876033058
961.944580078125	-0.04128967438750011	-9.650016994718625	-1.957010853749997	-0.7135727603086044	-1.8737301735781	-1.1064920850816	0.1642710472279261	-0.4215885947046843	0.6694214876033058
965.850830078125	-0.07008448464994431	-9.389327316703483	-1.997183845001857	-0.7135727603086044	-1.8737301735781	-1.1064920850816	0.1642710472279261	-0.4215885947046843	0.6694214876033058
969.757080078125	0.08018668166092421	-9.8407396395963	-2.006222722030807	-0.7172234942160068	-1.866392198424221	-0.7414186943413522	0.1642710472279261	-0.4215885947046843	0.6694214876033058
973.663330078125	-0.09035985429493212	-9.829216352888695	-1.988004856835596	-1.079616125930937	-1.490873477940721	-0.7340395808193679	0.1642710472279261	-0.4215885947046843	0.6694214876033058
977.569580078125	-0.2144410157084827	-9.936002595079076	-2.185299476383913	-0.7172234942160068	-1.866392198424221	-0.7414186943413522	0.1642710472279261	-0.4215885947046843	0.6694214876033058
981.475830078125	-0.06588193914865531	-10.29796849365807	-2.137268695044824	-1.434484174346163	-3.36096244126509	-1.47911879726773	0.1642710472279261	-0.4215885947046843	0.6694214876033058
985.382080078125	0.09900310794367059	-9.901322328431547	-1.96677026478902	-0.3584444104943295	-2.606394899337194	-0.3874430085380637	0.1704312114989733	-0.4215885947046843	0.6942148760330579
989.288330078125	-0.09066110638378413	-10.04931375773076	-1.977963120540529	-0.724339032460063	-3.710826026033222	-0.02986486993573159	0.1704312114989733	-0.4215885947046843	0.6942148760330579
993.194580078125	-0.09726972550572104	-9.851450544580183	-1.757675816475966	-0.7170747505594078	-3.353680020757628	-0.7562930600012523	0.1704312114989733	-0.4215885947046843	0.6942148760330579
997.100830078125	-0.1485977188434759	-9.92804659575939	-2.046742705217471	-1.086657292346694	-4.078951216716426	-0.02992293924369732	0.1663244353182751	-0.4297352342158859	0.6818181818181819
1001.007080078125	0.1624221929732556	-10.10081682427198	-2.080739765775187	-0.7242274747176138	-4.826291892783278	-0.04102064418065664	0.1663244353182751	-0.4297352342158859	0.6818181818181819
1004.913330078125	0.3768111598915178	-10.02483105830174	-1.893705329717257	-1.086620106432544	-4.450773172299778	-0.03364153065867233	0.1663244353182751	-0.4297352342158859	0.6818181818181819
1008.819580078125	0.2574924627831435	-9.940077437033452	-2.249748759438115	-0.3619092148309833	-4.458166702100073	-0.0409625748726909	0.1663244353182751	-0.4297352342158859	0.6818181818181819
1012.725830078125	0.2665450091913432	-10.0138171136948	-1.884833639711439	-0.7243018465459133	-4.082647981616574	-0.0335834613507066	0.1642710472279261	-0.4195519348268839	0.6714876033057852
1016.632080078125	0.2568465846135891	-9.930286270974939	-2.228219487119633	0.7139818053642516	-2.21631133783877	1.065587579516875	0.1642710472279261	-0.4195519348268839	0.6714876033057852
1020.538330078125	0.4442277497336443	-9.733033027586123	-2.140924991121475	0.3588534555499768	-1.483646612079676	0.3465385029733385	0.1642710472279261	-0.4195519348268839	0.6714876033057852
1024.444580078125	0.3142437823382683	-9.691727843710627	-2.141459411275608	-0.362243888058331	-1.111769101849907	-0.007495252137915762	0.1806981519507187	-0.415478615071283	0.6735537190082644
1028.350830078125	0.2443296391835911	-9.721000083330638	-2.144321306119702	0.0001115577424492505	-1.115465866750055	-0.01115577424492505	0.1806981519507187	-0.415478615071283	0.6735537190082644
1032.257080078125	0.437633325736313	-9.755165224678592	-1.921110857877098	0.3587790837216773	-0.7400027009129726	0.3539756858032885	0.1806981519507187	-0.415478615071283	0.6735537190082644
1036.163330078125	0.2702412619150327	-9.742621991980807	-2.008042063834424	0	0	0	0.1806981519507187	-0.415478615071283	0.6735537190082644
1040.069580078125	0.3477710894206103	-9.740887347754004	-2.25903631402034	-0.3623554458007803	0.003696764900147988	0.003660522107009284	0.1806981519507187	-0.415478615071283	0.6735537190082644
1043.975830078125	0.283014508205965	-9.701825309013406	-2.100483606865498	0.003725105735701979	-0.7509818863205826	-0.3725105735701979	0.1806981519507187	-0.415478615071283	0.6735537190082644
1047.882080078125	0.1875491407612215	-9.739359111153872	-2.251638025374048	0.3660433656223325	-0.3828566956373787	-0.3724525042622321	0.1806981519507187	-0.415478615071283	0.6735537190082644
1051.788330078125	0.09177384642925583	-9.640326456321207	-2.059128214308528	-0.7245993338591113	-1.108072336949759	-0.003834730030906479	0.1704312114989733	-0.4195519348268839	0.6921487603305785
1055.694580078125	0.1410080588876858	-9.781074060959646	-2.03360196292286	-0.3587047118933778	-0.003641210253730994	-0.3614128686332386	0.1704312114989733	-0.4195519348268839	0.6921487603305785
1059.600830078125	0.002577992351982302	-9.509166449139526	-2.08593307839941	-0.358667525979228	-0.3754631658370828	-0.3651314600482136	0.1704312114989733	-0.4195519348268839	0.6921487603305785
1063.507080078125	0.2412808418655233	-9.581985861130146	-2.042694728850776	-0.724636519773261	-0.7362503813664076	-0.0001161386159314638	0.1745379876796715	-0.415478615071283	0.7045454545454546
1067.413330078125	0.2250321559003219	-9.760572936258896	-2.167738530010728	0.003762291649851729	-1.122803841903934	-0.3762291649851729	0.1745379876796715	-0.415478615071283	0.7045454545454546
1071.319580078125	0.139747058651889	-9.571481784369221	-1.991568621729634	-0.3659318078798833	-0.7326091711126765	0.3612967300173071	0.1745379876796715	-0.415478615071283	0.7045454545454546
1075.225830078125	0.2507434696512179	-9.788926278146105	-2.358115655040597	-0.365820250137434	-1.848075037862732	0.3501409557723821	0.1745379876796715	-0.415478615071283	0.7045454545454546
1079.132080078125	0.02812842802401499	-9.710905141605569	-1.937614267467166	-0.003576362079102979	-0.7363059360128246	0.3576362079102978	0.1786447638603696	-0.415478615071283	0.6942148760330579
1083.038330078125	0.2890285093305343	-9.57321411531646	-1.967616977684475	3.718591414975016e-05	-0.3718219555833518	-0.003718591414975016	0.1786447638603696	-0.415478615071283	0.6942148760330579
1086.944580078125	0.4055641733981789	-9.415534250601256	-1.852139113272625	-0.3622067021441813	-1.483591057433259	-0.01121384355289078	0.1786447638603696	-0.415478615071283	0.6942148760330579
1090.850830078125	0.3466204957095236	-9.464592706387256	-1.88734985698412	0.0001115577424492505	-1.115465866750055	-0.01115577424492505	0.188911704312115	-0.4093686354378818	0.6756198347107438
1094.757080078125	0.3197924988229877	-9.463267092047236	-1.993083294099586	3.718591414975016e-05	-0.3718219555833518	-0.003718591414975016	0.188911704312115	-0.4093686354378818	0.6756198347107438
1098.663330078125	0.3115309363025329	-9.425938330595516	-1.717697876751093	-0.3587418978075275	0.3681807453296208	-0.3576942772182636	0.188911704312115	-0.4093686354378818	0.6756198347107438
1102.569580078125	0.4355915936472086	-9.445825384720736	-1.853053121573619	0.007227095986505457	0.7289679608589457	-0.7227095986505457	0.188911704312115	-0.4093686354378818	0.6756198347107438
1106.475830078125	0.06621394734081942	-9.291924157026468	-1.873798244693981	0.365820250137434	1.848075037862732	-0.3501409557723821	0.188911704312115	-0.4093686354378818	0.6756198347107438
1110.382080078125	0.2767221249155193	-9.293859846277314	-1.890737497183976	0.3694337981306867	2.212559018292205	-0.7114957550976549	0.188911704312115	-0.4093686354378818	0.6756198347107438
1114.288330078125	0.1635120630957516	-9.213797766265706	-1.783735436525054	0.3657458783091345	2.591718949029436	-0.342703772942432	0.188911704312115	-0.4093686354378818	0.6756198347107438
1118.194580078125	-0.08536553628786456	-9.230934856733077	-1.821148790404516	0.003427618422503978	2.223593758346232	-0.3427618422503977	0.1519507186858316	-0.4276985743380855	0.6838842975206612
1122.100830078125	0.1436428317380905	-9.503555484404684	-1.788094391269683	-0.3552399075567241	1.848130592509149	-0.7078933022986114	0.1519507186858316	-0.4276985743380855	0.6838842975206612
1126.007080078125	-0.1657406976588297	-9.580256158909688	-1.808643411372345	-0.3551655357284246	1.104486681342445	-0.7153304851285613	0.1519507186858316	-0.4276985743380855	0.6838842975206612
1129.913330078125	0.0596589542451703	-9.480710271460728	-1.988631808172344	0.3658574360515838	1.47625308227938	-0.3538595471873571	0.1786447638603696	-0.4134419551934826	0.6714876033057852
1133.819580078125	-0.1587101678888932	-9.427982954284074	-2.042994403703561	0.003576362079102979	0.7363059360128246	-0.3576362079102978	0.1786447638603696	-0.4134419551934826	0.6714876033057852
1137.725830078125	0.05627893735297202	-9.541803143589206	-1.875964578432401	-0.3551283498142748	0.7326647257590937	-0.7190490765435364	0.1786447638603696	-0.4134419551934826	0.6714876033057852
1141.632080078125	-0.1728351054894913	-9.409216684108268	-1.905496483683624	-0.3550911639001251	0.3608427701757418	-0.7227676679585114	0.1786447638603696	-0.4134419551934826	0.6714876033057852
1145.538330078125	-0.1756946344794845	-9.536807931815034	-2.143512184017183	0.3585931541509285	1.119107077003786	0.3725686428781636	0.1745379876796715	-0.4114052953156823	0.6632231404958678
1149.444580078125	-0.1801108954678911	-9.538235856201284	-1.996303484403632	-0.3624670035432295	1.119162631650203	0.01481629635193433	0.1745379876796715	-0.4114052953156823	0.6632231404958678
1153.350830078125	-0.1532884189075906	-9.676229922113453	-2.223719369746982	-1.083489975323238	0.7473962307132686	-0.34665464158927	0.1745379876796715	-0.4114052953156823	0.6632231404958678
1157.257080078125	0.00348332585460564	-9.762207057973679	-1.782777528486855	-0.3660805515364823	0.7546786512207306	0.3761710956772072	0.1806981519507187	-0.4317718940936863	0.6756198347107438
1161.163330078125	-0.09634152208012203	-9.347817092139239	-2.121949263995933	-0.003762291649851729	1.122803841903934	0.3762291649851729	0.1806981519507187	-0.4317718940936863	0.6756198347107438
1165.069580078125	0.03710132401081668	-9.661337238569837	-1.903377467027223	-0.003687919821552229	0.3791599307372308	0.3687919821552229	0.1806981519507187	-0.4317718940936863	0.6756198347107438
1168.975830078125	-0.08894743939667568	-9.718759672071592	-2.035085353444145	-0.3660061797081828	0.01103474005402697	0.3687339128472572	0.1704312114989733	-0.4175152749490835	0.6776859504132231
1172.882080078125	0.001765715777328956	-9.809429085231997	-2.058857192577632	-0.003613547993252729	-0.3644839804294728	0.3613547993252729	0.1704312114989733	-0.4175152749490835	0.6776859504132231
1176.788330078125	-0.01590958021073452	-9.878477430934806	-2.136347326308849	-0.007227095986505457	-0.7289679608589457	0.7227095986505457	0.1704312114989733	-0.4175152749490835	0.6776859504132231
1180.694580078125	0.04133620285148508	-9.95996796107802	-2.044540095049503	-0.7208742281234094	-1.859054223270342	-0.3763453036011044	0.1704312114989733	-0.4175152749490835	0.6776859504132231
1184.600830078125	0.009100652108252011	-9.930390789151666	-1.970021736941734	-0.724487776116662	-2.223538203699815	-0.01499050427583152	0.1765913757700205	-0.4175152749490835	0.6735537190082644
1188.507080078125	0.1227618034432641	-9.890307016886677	-2.092060114775469	-0.728212881852364	-1.472556317379232	0.3575200692943664	0.1765913757700205	-0.4175152749490835	0.6735537190082644
1192.413330078125	0.03861783648951413	-9.830846899535057	-1.953927882983805	0.0002603013990482511	-2.602753689083463	-0.02603013990482511	0.1765913757700205	-0.4175152749490835	0.6735537190082644
1196.319580078125	-0.000522853756306008	-9.896835722714538	-2.3159048747898	0.0001859295707487508	-1.859109777916759	-0.01859295707487508	0.1724845995893224	-0.415478615071283	0.6776859504132231
1200.225830078125	-0.004324781296503833	-10.3080650126192	-2.189173956783206	0.0001859295707487508	-1.859109777916759	-0.01859295707487508	0.1724845995893224	-0.415478615071283	0.6776859504132231
1204.132080078125	0.2041574365497646	-9.800655762182242	-2.138581218325485	0.0001859295707487508	-1.859109777916759	-0.01859295707487508	0.1724845995893224	-0.415478615071283	0.6776859504132231
1208.038330078125	0.2623188051490449	-10.07185025300181	-2.077293504968162	-0.3622067021441813	-1.483591057433259	-0.01121384355289078	0.1724845995893224	-0.415478615071283	0.6776859504132231
1211.944580078125	0.118931485653855	-9.861545486305253	-1.964382855128501	-0.3585931541509285	-1.119107077003786	-0.3725686428781636	0.1786447638603696	-0.4317718940936863	0.6880165289256198
1215.850830078125	0.126687544014744	-9.842371027435235	-1.889584800491467	-0.7209485999517089	-1.115410312103638	-0.3689081207711543	0.1786447638603696	-0.4317718940936863	0.6880165289256198
1219.757080078125	0.1450789051773563	-9.759757820659321	-2.169296839245209	7.437182829950031e-05	-0.7436439111667036	-0.007437182829950031	0.1786447638603696	-0.4317718940936863	0.6880165289256198
1223.663330078125	0.108636865842666	-9.87154074671087	-1.954562194755532	0.7284359973372625	-0.7583754161208786	-0.3798316177842165	0.1765913757700205	-0.4338085539714867	0.6900826446280992
1227.569580078125	0.195831207350551	-9.650014576289989	-2.194373578351699	-0.003613547993252729	-0.3644839804294728	0.3613547993252729	0.1765913757700205	-0.4338085539714867	0.6900826446280992
1231.475830078125	0.1215149983320729	-9.900710150539297	-2.050499944402429	-0.7172978660443063	-1.122748287257517	-0.7339815115114022	0.1765913757700205	-0.4338085539714867	0.6900826446280992
1235.382080078125	0.1270337473315137	-9.652259088362811	-1.901124911050458	0	0	0	0.1560574948665298	-0.415478615071283	0.6611570247933884
1239.288330078125	0.07507407094881001	-9.939059383726553	-2.169135698293667	-0.717335051958456	-0.7509263316741656	-0.7302629200964272	0.1560574948665298	-0.415478615071283	0.6611570247933884
1243.194580078125	0.2389362804514996	-9.912743935987349	-1.964542681716653	-0.3587047118933778	-0.003641210253730994	-0.3614128686332386	0.1560574948665298	-0.415478615071283	0.6611570247933884
1247.100830078125	0.09384633462167233	-9.75965635180566	-2.128211154055744	-0.717335051958456	-0.7509263316741656	-0.7302629200964272	0.1560574948665298	-0.415478615071283	0.6611570247933884
1251.007080078125	0.2310217098658482	-9.475302980476709	-1.70072366219494	0.003725105735701979	-0.7509818863205826	-0.3725105735701979	0.1765913757700205	-0.4297352342158859	0.6611570247933884
1254.913330078125	-0.1763965045294277	-9.770368203131182	-1.786783182352411	0.007338653728954708	-0.3864979058911098	-0.7338653728954707	0.1765913757700205	-0.4297352342158859	0.6611570247933884
1258.819580078125	0.2398834107099061	-9.702437697203797	-1.996113690330202	-0.717335051958456	-0.7509263316741656	-0.7302629200964272	0.1765913757700205	-0.4297352342158859	0.6611570247933884
1262.725830078125	0.03740178748163505	-9.651240088714271	-1.913392916054502	-0.3476781383428709	-0.7692990468820715	-1.464070223683932	0.1868583162217659	-0.4256619144602851	0.6776859504132231
1266.632080078125	0.1133898667314385	-9.533337276423502	-1.779662224381283	-0.3587418978075275	0.3681807453296208	-0.3576942772182636	0.1868583162217659	-0.4256619144602851	0.6776859504132231
1270.538330078125	0.105978434451252	-9.782400306194093	-1.865947815041732	-0.3550539779859753	-0.01097918540760998	-0.7264862593734864	0.1868583162217659	-0.4256619144602851	0.6776859504132231
1274.444580078125	0.006894098850116034	-9.511104241371797	-1.896469961670535	-0.7137215039652034	-0.3864423512446928	-1.0916177194217	0.1868583162217659	-0.4256619144602851	0.6776859504132231
1278.350830078125	-0.0822134300073894	-9.859915675702389	-1.926218999753688	-0.3550167920718256	-0.3828011409909618	-0.7302048507884614	0.1868583162217659	-0.4256619144602851	0.6776859504132231
1282.257080078125	0.4142515896568014	-9.386058652677635	-1.808386321893377	0.3660061797081828	-0.01103474005402697	-0.3687339128472572	0.1868583162217659	-0.4256619144602851	0.6776859504132231
1286.163330078125	0.1334318054384677	-9.920190382908229	-2.114393514615589	0.3660805515364823	-0.7546786512207306	-0.3761710956772072	0.1868583162217659	-0.4256619144602851	0.6776859504132231
1290.069580078125	0.1913747268424286	-9.694788838320948	-1.71249089474762	0.7247480775157102	-0.3792154853836477	-0.01103963562899358	0.1663244353182751	-0.415478615071283	0.6983471074380165
1293.975830078125	0.1885309702131083	-9.622374986297762	-1.951032340436942	0.3587418978075275	-0.3681807453296208	0.3576942772182636	0.1663244353182751	-0.415478615071283	0.6983471074380165
1297.882080078125	0.03517788462675891	-9.851959150637349	-1.839262820891964	0.3624298176290798	-0.7473406760668516	-0.01109770493695932	0.1663244353182751	-0.415478615071283	0.6983471074380165
1301.788330078125	-0.02618763904321706	-9.478467336623973	-2.127078698559431	0.3587047118933778	0.003641210253730994	0.3614128686332386	0.1991786447638604	-0.4093686354378818	0.6797520661157025
1305.694580078125	0.08150919410334524	-9.670312027239918	-2.050306470111508	0.3623554458007803	-0.003696764900147988	-0.003660522107009284	0.1991786447638604	-0.4093686354378818	0.6797520661157025
1309.600830078125	0.1312394473049373	-9.720899245371404	-2.041314910164576	-0.3586303400650783	-0.7472851214204346	-0.3688500514631886	0.1991786447638604	-0.4093686354378818	0.6797520661157025
1313.507080078125	0.1216206731485812	-9.760675982348625	-2.054022438286038	3.718591414975016e-05	-0.3718219555833518	-0.003718591414975016	0.1991786447638604	-0.4093686354378818	0.6797520661157025
1317.413330078125	0.07894066516776665	-9.641142518262422	-1.964688838925555	0	0	0	0.1683778234086242	-0.3991853360488798	0.6900826446280992
1321.319580078125	0.261013642303364	-9.622272255655247	-2.0337880767788	0.003725105735701979	-0.7509818863205826	-0.3725105735701979	0.1683778234086242	-0.3991853360488798	0.6900826446280992
1325.225830078125	0.08590021931467515	-9.722225595754921	-1.863340643822505	-0.3549424202435261	-1.126445052157665	-0.7376420336184115	0.1683778234086242	-0.3991853360488798	0.6900826446280992
1329.132080078125	0.2825642073087543	-9.611970906303503	-2.085473576958474	7.437182829950031e-05	-0.7436439111667036	-0.007437182829950031	0.1683778234086242	-0.4236252545824847	0.6694214876033058
1333.038330078125	0.131240235922971	-9.510898990384906	-2.041341197432365	0.3587418978075275	-0.3681807453296208	0.3576942772182636	0.1683778234086242	-0.4236252545824847	0.6694214876033058
1336.944580078125	0.1718469670933353	-9.721102813973154	-2.061565569777843	0.003687919821552229	-0.3791599307372308	-0.3687919821552229	0.1683778234086242	-0.4236252545824847	0.6694214876033058
1340.850830078125	0.4387460657817847	-9.444805438730556	-1.958202192726155	-0.3512916863361236	-1.133783027311544	-1.102715424358659	0.1683778234086242	-0.4236252545824847	0.6694214876033058
1344.757080078125	0.06768471997356552	-9.641448607208547	-1.922823999118851	0	0	0	0.1683778234086242	-0.4236252545824847	0.6694214876033058
1348.663330078125	0.4506620842701459	-9.674285926085986	-2.022069475671528	0.003687919821552229	-0.3791599307372308	-0.3687919821552229	0.1683778234086242	-0.4236252545824847	0.6694214876033058
1352.569580078125	0.1816755136466408	-9.821258250587585	-2.055850454888025	-0.3550167920718256	-0.3828011409909618	-0.7302048507884614	0.1683778234086242	-0.4236252545824847	0.6694214876033058
1356.475830078125	0.2705567091284903	-9.742519997381789	-2.018556970949677	0.3697684713580345	-1.133838581957961	-0.7449630778324301	0.1642710472279261	-0.4297352342158859	0.6900826446280992
1360.382080078125	0.1893117020664158	-9.722122549665192	-1.977056735547194	0.003762291649851729	-1.122803841903934	-0.3762291649851729	0.1642710472279261	-0.4297352342158859	0.6900826446280992
1364.288330078125	0.1346991146185336	-9.783113952940006	-1.823303820617788	0.007450211471403958	-1.501963772641165	-0.7450211471403958	0.1642710472279261	-0.4297352342158859	0.6900826446280992
1368.194580078125	0.1684519664584978	-9.772200530845085	-1.948398881949926	-0.3549052343293763	-1.498267007741017	-0.7413606250333865	0.1868583162217659	-0.4114052953156823	0.6756198347107438
1372.100830078125	-0.08284353581627096	-9.650119409913929	-1.905215472790969	0.01113813129295619	-1.881123703378396	-1.113813129295619	0.1868583162217659	-0.4114052953156823	0.6756198347107438
1376.007080078125	0.1752317156937355	-9.733341745259025	-1.841057189791182	0.007413025557254208	-1.130141817057813	-0.7413025557254208	0.1868583162217659	-0.4114052953156823	0.6756198347107438
1379.913330078125	-0.2012868669073004	-9.798416086966693	-1.957104436423323	-0.7245621479449615	-1.479894292533111	-0.007553321445881495	0.1868583162217659	-0.4114052953156823	0.6756198347107438
1383.819580078125	0.2191884962710196	-9.862462386205705	-1.972949875700654	0.003725105735701979	-0.7509818863205826	-0.3725105735701979	0.1806981519507187	-0.4134419551934826	0.6694214876033058
1387.725830078125	0.1464203444525847	-9.882657421960332	-1.880678148419491	0.3623554458007803	-0.003696764900147988	-0.003660522107009284	0.1806981519507187	-0.4134419551934826	0.6694214876033058
1391.632080078125	0.1891768483826627	-9.632166152356273	-1.972561612755424	0.003687919821552229	-0.3791599307372308	-0.3687919821552229	0.1806981519507187	-0.4134419551934826	0.6694214876033058
1395.538330078125	0.02175402845807035	-9.80963286413189	-2.058467615269012	0.358667525979228	0.3754631658370828	0.3651314600482136	0.1909650924024641	-0.415478615071283	0.6797520661157025
1399.444580078125	0.3201978484922807	-9.523136028987498	-2.006594949742687	0.3695825417872857	0.7252711959587976	-0.726370120757555	0.1909650924024641	-0.415478615071283	0.6797520661157025
1403.350830078125	0.1877888806434492	-9.899281595258618	-2.259629354781641	0.003613547993252729	0.3644839804294728	-0.3613547993252729	0.1909650924024641	-0.415478615071283	0.6797520661157025
1407.257080078125	0.3183934904313032	-10.00371943809388	-1.946449681043436	0.3659318078798833	0.7326091711126765	-0.3612967300173071	0.1909650924024641	-0.415478615071283	0.6797520661157025
1411.163330078125	0.1048317838303336	-9.789437723228193	-2.161059461011118	0.3695825417872857	0.7252711959587976	-0.726370120757555	0.1909650924024641	-0.415478615071283	0.6797520661157025
1415.069580078125	0.1368465215241463	-9.952419624707193	-1.894884050804877	0.7318636157597666	1.465218342225353	-0.7225934600346142	0.1909650924024641	-0.415478615071283	0.6797520661157025
1418.975830078125	0.1199685183680969	-9.711210179060981	-1.998950612269898	0.01080345806560844	1.46527389687177	-1.080345806560844	0.1909650924024641	-0.415478615071283	0.6797520661157025
1422.882080078125	-0.009339603372446176	-9.699686471757092	-2.022013220918461	0.007078352329906457	2.216255783192353	-0.7078352329906457	0.1560574948665298	-0.4175152749490835	0.6797520661157025
1426.788330078125	-0.1200718273305043	-9.798823224170198	-1.997605755649857	0.01080345806560844	1.46527389687177	-1.080345806560844	0.1560574948665298	-0.4175152749490835	0.6797520661157025
1430.694580078125	-0.1315572603724959	-9.575870180853773	-2.281424654250138	0.01456574971546017	0.3424700549678359	-1.456574971546016	0.1560574948665298	-0.4175152749490835	0.6797520661157025
1434.600830078125	-0.14686512502356	-9.890819723757616	-1.771162499214668	0.01464012154375966	-0.4011738561988677	-1.464012154375967	0.1601642710472279	-0.4317718940936863	0.7024793388429752
1438.507080078125	-0.06858295591388609	-9.548841822412156	-2.047234802870464	0.007338653728954708	-0.3864979058911098	-0.7338653728954707	0.1601642710472279	-0.4317718940936863	0.7024793388429752
1442.413330078125	-0.164765177151212	-9.809940740612227	-1.841160761626267	-0.3512916863361236	-1.133783027311544	-1.102715424358659	0.1601642710472279	-0.4317718940936863	0.7024793388429752
1446.319580078125	-0.05977488109611599	-9.389327211554413	-2.007503963462801	-0.3512173145078241	-1.877426938478248	-1.110152607188609	0.1601642710472279	-0.4317718940936863	0.7024793388429752
1450.225830078125	-0.2826974837564401	-9.878072186414583	-1.910083874785331	-0.7098104686587526	-2.996534015482034	-1.482721250066773	0.1704312114989733	-0.4195519348268839	0.6797520661157025
1454.132080078125	-0.0073712127604707	-9.539050025459218	-2.087626241317644	0.007598955128002959	-2.989251594974572	-0.7598955128002959	0.1704312114989733	-0.4195519348268839	0.6797520661157025
1458.038330078125	0.05030909883828677	-9.910400058042287	-2.010303294609559	-0.3547564906727773	-2.985554830074424	-0.7562349906932866	0.1704312114989733	-0.4195519348268839	0.6797520661157025
1461.944580078125	0.2640025046508749	-9.721305856829551	-2.133416821695828	0.007598955128002959	-2.989251594974572	-0.7598955128002959	0.1683778234086242	-0.4215885947046843	0.6818181818181819
1465.850830078125	0.06279765401907351	-9.679695425200499	-2.093255133969117	0.01124968903540544	-2.996589570128451	-1.124968903540544	0.1683778234086242	-0.4215885947046843	0.6818181818181819
1469.757080078125	0.2611035447591994	-9.682243187194526	-2.036784825306647	0.728510369165562	-1.502019327287582	-0.3872688006141665	0.1683778234086242	-0.4215885947046843	0.6818181818181819
1473.663330078125	0.1392210504234485	-9.641651860363083	-1.974035014114948	0.3734563911795867	-1.512998512695192	-1.113755059987653	0.1683778234086242	-0.4215885947046843	0.6818181818181819
1477.569580078125	0.1700993895307802	-9.748334530718381	-2.336646317692672	0.3623554458007803	-0.003696764900147988	-0.003660522107009284	0.1683778234086242	-0.4215885947046843	0.6818181818181819
1481.475830078125	0.1739202439037855	-9.630432454471109	-2.130674796792848	0.365968993794033	0.3607872155293249	-0.3650153214322821	0.1683778234086242	-0.4215885947046843	0.6818181818181819
1485.382080078125	0.2291976363540296	-9.872559430912199	-1.973254545134319	0.003576362079102979	0.7363059360128246	-0.3576362079102978	0.1683778234086242	-0.4215885947046843	0.6818181818181819
1489.288330078125	0.05760066117735941	-9.58137578621932	-1.920022039245314	0.3659318078798833	0.7326091711126765	-0.3612967300173071	0.1909650924024641	-0.4012219959266802	0.6735537190082644
1493.194580078125	0.147352490968352	-9.662356027920232	-1.911749698945066	0.365968993794033	0.3607872155293249	-0.3650153214322821	0.1909650924024641	-0.4012219959266802	0.6735537190082644
1497.100830078125	0.2602920568025798	-9.772505568300501	-2.009735226752658	0.3660061797081828	-0.01103474005402697	-0.3687339128472572	0.1909650924024641	-0.4012219959266802	0.6735537190082644
1501.007080078125	0.1194133312724115	-9.551389689555254	-1.980444375747051	0.003650733907402479	-0.007337975153878983	-0.3650733907402479	0.1806981519507187	-0.4175152749490835	0.6797520661157025
1504.913330078125	0.00819926169579689	-9.960682238718359	-1.939975389859897	0.3624670035432295	-1.119162631650203	-0.01481629635193433	0.1806981519507187	-0.4175152749490835	0.6797520661157025
1508.819580078125	0.3034988616298685	-9.611868701406342	-2.116628720995614	-0.3585931541509285	-1.119107077003786	-0.3725686428781636	0.1806981519507187	-0.4175152749490835	0.6797520661157025
1512.725830078125	0.01521953943129598	-9.871745682250548	-1.840651314376533	-0.7135727603086044	-1.8737301735781	-1.1064920850816	0.1806981519507187	-0.4175152749490835	0.6797520661157025
1516.632080078125	0.1861272624465613	-9.70315218514228	-1.870908748218709	0.3624298176290798	-0.7473406760668516	-0.01109770493695932	0.1560574948665298	-0.4297352342158859	0.6652892561983471
1520.538330078125	0.220406122514966	-9.622068687053495	-2.013537417165533	0.3624298176290798	-0.7473406760668516	-0.01109770493695932	0.1560574948665298	-0.4297352342158859	0.6652892561983471
1524.444580078125	0.07897063265304513	-9.661132828775516	-1.965687755101504	0.007413025557254208	-1.130141817057813	-0.7413025557254208	0.1560574948665298	-0.4297352342158859	0.6652892561983471
1528.350830078125	0.2199250655144432	-9.722224228816996	-1.997502183814771	0.3660805515364823	-0.7546786512207306	-0.3761710956772072	0.1704312114989733	-0.4195519348268839	0.6694214876033058
1532.257080078125	0.08077341347795537	-9.600549929642128	-2.025780449265179	1.083378417580789	0.3680696360367868	0.357810415834195	0.1704312114989733	-0.4195519348268839	0.6694214876033058
1536.163330078125	0.2216671227507628	-9.83166096364392	-2.05557075835876	0	0	0	0.1704312114989733	-0.4195519348268839	0.6694214876033058
1540.069580078125	0.2938643151128394	-9.851650538113516	-2.128810503761314	0.3622810739724808	0.7399471462665556	0.003776660722940747	0.1704312114989733	-0.4195519348268839	0.6694214876033058
1543.975830078125	0.1246000720796883	-9.713045976694234	-1.820002402656276	1.086880407831592	1.848019483216315	0.007611390753847227	0.1704312114989733	-0.4195519348268839	0.6694214876033058
1547.882080078125	0.2469186721880444	-9.623496295992533	-1.897289072934813	0.007264281900655208	0.3571460052755938	-0.7264281900655207	0.1704312114989733	-0.4195519348268839	0.6694214876033058
1551.788330078125	0.2122147469995055	-9.56138389847016	-2.073824899983518	0.3622067021441813	1.483591057433259	0.01121384355289078	0.1704312114989733	-0.4195519348268839	0.6694214876033058
1555.694580078125	0.237134288244623	-9.763326580134239	-1.904476274820767	-7.437182829950031e-05	0.7436439111667036	0.007437182829950031	0.1601642710472279	-0.4215885947046843	0.6673553719008265
1559.600830078125	0.1311653172097748	-9.460923214102174	-2.038843906992492	0.003650733907402479	-0.007337975153878983	-0.3650733907402479	0.1601642710472279	-0.4215885947046843	0.6673553719008265
1563.507080078125	0.007383042030975334	-9.977612816409986	-2.246101401032511	0.003725105735701979	-0.7509818863205826	-0.3725105735701979	0.1601642710472279	-0.4215885947046843	0.6673553719008265
1567.413330078125	0.3871672919093311	-9.634815908949315	-1.9055763969777	0.7320867312446651	-0.7657133912747575	-0.7449050085244643	0.1848049281314169	-0.4256619144602851	0.6900826446280992
1571.319580078125	0.2231252774949706	-9.541189493609959	-2.104175916499019	0.72478526342986	-0.7510374409669995	-0.0147582270439686	0.1848049281314169	-0.4256619144602851	0.6900826446280992
1575.225830078125	0.1580224929635556	-9.692239393941785	-1.934083098785186	0	0	0	0.1848049281314169	-0.4256619144602851	0.6900826446280992
1579.132080078125	0.3189510433810895	-9.533539162640116	-1.965034779369647	0.007338653728954708	-0.3864979058911098	-0.7338653728954707	0.1848049281314169	-0.4256619144602851	0.6900826446280992
1583.038330078125	0.07769307143854182	-9.861545906901537	-1.923102381284727	0.3623554458007803	-0.003696764900147988	-0.003660522107009284	0.1745379876796715	-0.4175152749490835	0.6714876033057852
1586.944580078125	0.04129204024160102	-9.719982240321883	-2.043068008053367	0.007301467814804958	-0.01467595030775797	-0.7301467814804957	0.1745379876796715	-0.4175152749490835	0.6714876033057852
1590.850830078125	0.1436073439265765	-9.62023362546374	-2.12024479755255	-0.3550539779859753	-0.01097918540760998	-0.7264862593734864	0.1745379876796715	-0.4175152749490835	0.6714876033057852
1594.757080078125	0.1411736686747511	-9.681020513795163	-2.039122289158368	-0.3551655357284246	1.104486681342445	-0.7153304851285613	0.1724845995893224	-0.4276985743380855	0.6818181818181819
1598.663330078125	0.02957081040754991	-9.62043877130156	-1.985693680251664	0.362243888058331	1.111769101849907	0.007495252137915762	0.1724845995893224	-0.4276985743380855	0.6818181818181819
1602.569580078125	0.1240243809151281	-9.679898783504107	-2.134146030504271	0.003576362079102979	0.7363059360128246	-0.3576362079102978	0.1724845995893224	-0.4276985743380855	0.6818181818181819
1606.475830078125	0.1490953368227053	-9.561792507760659	-1.969844560756842	-0.3513660581644231	-0.3901391161448408	-1.095278241528709	0.1950718685831622	-0.4236252545824847	0.6859504132231405
1610.382080078125	0.08733708137197457	-9.768427677023062	-2.244569379065819	1.083304045752489	1.11171354720349	0.3652475986641451	0.1950718685831622	-0.4236252545824847	0.6859504132231405
1614.288330078125	-0.006485594708688457	-9.708763675622475	-2.117146843043718	0.3622067021441813	1.483591057433259	0.01121384355289078	0.1950718685831622	-0.4236252545824847	0.6859504132231405
1618.194580078125	-0.09228250506095625	-9.80983800996971	-1.923916497968126	0.007227095986505457	0.7289679608589457	-0.7227095986505457	0.1950718685831622	-0.4236252545824847	0.6859504132231405
1622.100830078125	0.1725985200793981	-9.590859811840994	-2.086617335979935	-0.003725105735701979	0.7509818863205826	0.3725105735701979	0.1868583162217659	-0.4073319755600814	0.6735537190082644
1626.007080078125	0.04750083002048041	-9.721308064960043	-1.916694334016014	-0.3550167920718256	-0.3828011409909618	-0.7302048507884614	0.1868583162217659	-0.4073319755600814	0.6735537190082644
1629.913330078125	-0.1839270181326945	-9.729469735862905	-1.869099395576852	-0.3586303400650783	-0.7472851214204346	-0.3688500514631886	0.1868583162217659	-0.4073319755600814	0.6735537190082644
1633.819580078125	-0.03360853473980732	-9.580866759565872	-1.87971550867309	0.00383666347815123	-1.866447753070638	-0.3836663478151229	0.1581108829568789	-0.405295315682281	0.6714876033057852
1637.725830078125	0.08786860992665063	-9.561589149457051	-1.928953664221688	-0.717186308301857	-2.238214154007573	-0.7451372857563272	0.1581108829568789	-0.405295315682281	0.6714876033057852
1641.632080078125	0.08101394197821679	-9.550472158760376	-2.03379806594056	-0.3586303400650783	-0.7472851214204346	-0.3688500514631886	0.1581108829568789	-0.405295315682281	0.6714876033057852
1645.538330078125	-0.07706059977555935	-9.718249593927432	-2.097980007481356	0.0001487436565990006	-1.487287822333407	-0.01487436565990006	0.1581108829568789	-0.405295315682281	0.6714876033057852
1649.444580078125	0.1143157043029366	-9.65970458894205	-2.143856810097886	-0.3549796061576758	-0.7546230965743135	-0.7339234422034364	0.162217659137577	-0.4032586558044806	0.6694214876033058
1653.350830078125	0.02001197122175071	-9.700196129304967	-2.000399040725024	0.003762291649851729	-1.122803841903934	-0.3762291649851729	0.162217659137577	-0.4032586558044806	0.6694214876033058
1657.257080078125	0.1610720788996571	-9.621253361155778	-2.035735963321901	-0.3622810739724808	-0.7399471462665556	-0.003776660722940747	0.162217659137577	-0.4032586558044806	0.6694214876033058
1661.163330078125	0.1194582825003292	-9.581375155324894	-1.981942750010975	-0.007227095986505457	-0.7289679608589457	0.7227095986505457	0.1806981519507187	-0.4114052953156823	0.6880165289256198
1665.069580078125	-0.02651806999931391	-9.468574175966445	-2.116064333356203	3.718591414975016e-05	-0.3718219555833518	-0.003718591414975016	0.1806981519507187	-0.4114052953156823	0.6880165289256198
1668.975830078125	0.3176277423206348	-9.913967029982995	-1.920924744021158	0.3624298176290798	-0.7473406760668516	-0.01109770493695932	0.1806981519507187	-0.4114052953156823	0.6880165289256198
1672.882080078125	0.07833894960809627	-9.871337072960049	-1.944631653603209	-0.7172606801301565	-1.494570242840869	-0.7377001029263772	0.162217659137577	-0.4276985743380855	0.6859504132231405
1676.788330078125	0.1677019907085023	-9.482443023004251	-1.923399690283411	0.358667525979228	0.3754631658370828	0.3651314600482136	0.162217659137577	-0.4276985743380855	0.6859504132231405
1680.694580078125	0.370603158730672	-9.813504978677084	-2.020105291022399	-0.3514032440785728	-0.01831716056148896	-1.091559650113734	0.162217659137577	-0.4276985743380855	0.6859504132231405
1684.600830078125	-0.1635625346499049	-9.559551886203471	-1.881248845003171	-0.717335051958456	-0.7509263316741656	-0.7302629200964272	0.162217659137577	-0.4276985743380855	0.6859504132231405
1688.507080078125	0.1516875242992932	-9.957621033809893	-2.389584143309772	-0.3623554458007803	0.003696764900147988	0.003660522107009284	0.1786447638603696	-0.4215885947046843	0.6797520661157025
1692.413330078125	-0.2040194283938769	-9.449299615180687	-1.866019053537438	-0.3731589038663887	-1.461577131971622	1.084006328667853	0.1786447638603696	-0.4215885947046843	0.6797520661157025
1696.319580078125	-0.02074617461107332	-9.81004126312425	-1.975127512964223	-0.3658946219657335	-1.104431126696028	0.3575781386023321	0.1786447638603696	-0.4215885947046843	0.6797520661157025
1700.225830078125	0.0978477825243821	-9.551695883650451	-1.928259417479403	-0.007152724158205957	-1.472611872025649	0.7152724158205956	0.1745379876796715	-0.4175152749490835	0.6590909090909091
1704.132080078125	0.04076603201316045	-9.790152316315746	-2.025534400438682	0.3552399075567241	-1.848130592509149	0.7078933022986114	0.1745379876796715	-0.4175152749490835	0.6590909090909091
1708.038330078125	0.2502979004622091	-9.772403678850553	-2.009930015406967	0.3552027216425743	-1.476308636925797	0.7116118937135864	0.1745379876796715	-0.4175152749490835	0.6590909090909091
1711.944580078125	0.1752916506642924	-9.773322366285212	-1.84305502214308	0.0001859295707487508	-1.859109777916759	-0.01859295707487508	0.1745379876796715	-0.4175152749490835	0.6590909090909091
1715.850830078125	0.2778466942314957	-9.833496235531817	-1.928223141049856	-0.3658946219657335	-1.104431126696028	0.3575781386023321	0.1745379876796715	-0.4175152749490835	0.6590909090909091
1719.757080078125	0.4123376136891474	-9.723344171573842	-2.077920456304909	0.3587418978075275	-0.3681807453296208	0.3576942772182636	0.1745379876796715	-0.4175152749490835	0.6590909090909091
1723.663330078125	0.4048370675711591	-9.702436014818659	-2.161235585705299	0.3623554458007803	-0.003696764900147988	-0.003660522107009284	0.1745379876796715	-0.4175152749490835	0.6590909090909091
1727.569580078125	0.6921140562489699	-9.686216455146166	-2.070468541632329	0.007338653728954708	-0.3864979058911098	-0.7338653728954707	0.1745379876796715	-0.4256619144602851	0.6694214876033058
1731.475830078125	0.1484936212630349	-9.791987062458285	-1.949787375434496	0.01084064397975819	1.093451941288418	-1.084064397975818	0.1745379876796715	-0.4256619144602851	0.6694214876033058
1735.382080078125	0.4735343730999235	-9.70355721936436	-2.117812436664114	-0.3479012538277694	1.461632686618039	-1.441758675194082	0.1745379876796715	-0.4256619144602851	0.6694214876033058
1739.288330078125	0.1229881368189199	-9.620233835761884	-2.099604560630663	0.728064138195765	2.959844139712639	-0.3426457036344663	0.1909650924024641	-0.4297352342158859	0.6756198347107438
1743.194580078125	-0.1070880200245891	-9.68795845980795	-2.097065999180363	-0.3553514652991733	2.963596459259204	-0.6967375280536863	0.1909650924024641	-0.4297352342158859	0.6756198347107438
1747.100830078125	-0.006930375279663676	-9.482240821340426	-1.768987490677878	-0.3553142793850236	2.591774503675853	-0.7004561194686614	0.1909650924024641	-0.4297352342158859	0.6756198347107438
1751.007080078125	0.04344023576524733	-9.67928765710257	-2.114674525508244	-1.079950799158285	1.855524122309445	-0.7005722580845928	0.1909650924024641	-0.4297352342158859	0.6756198347107438
1754.913330078125	-0.1029075558282422	-9.809940109717799	-1.903081472391928	0.007152724158205957	1.472611872025649	-0.7152724158205956	0.1930184804928131	-0.4256619144602851	0.6818181818181819
1758.819580078125	-0.1072071013476694	-9.39799696276908	-2.093096621744355	-0.7209857858658586	-0.7435883565202867	-0.3651895293561793	0.1930184804928131	-0.4256619144602851	0.6818181818181819
1762.725830078125	-0.1705686172607984	-9.868483852914325	-1.981046091306722	-1.079616125930937	-1.490873477940721	-0.7340395808193679	0.1930184804928131	-0.4256619144602851	0.6818181818181819
1766.632080078125	0.005175700154805717	-9.768326523616613	-2.172523338493524	-1.083378417580789	-0.3680696360367868	-0.357810415834195	0.1848049281314169	-0.4195519348268839	0.6735537190082644
1770.538330078125	-0.1147841434149211	-9.747113539704158	-2.173861886169296	-0.003576362079102979	-0.7363059360128246	0.3576362079102978	0.1848049281314169	-0.4195519348268839	0.6735537190082644
1774.444580078125	0.1367416353256717	-9.882453537911367	-1.891387844189055	-0.7209485999517089	-1.115410312103638	-0.3689081207711543	0.1848049281314169	-0.4195519348268839	0.6735537190082644
1778.350830078125	-0.1481474179462652	-10.01790099846929	-2.061752735124495	-0.7245621479449615	-1.479894292533111	-0.007553321445881495	0.1848049281314169	-0.4195519348268839	0.6735537190082644
1782.257080078125	0.03213855072509485	-9.859608535265552	-2.071285024169828	-0.7282500677665138	-1.10073436179588	0.3612386607093414	0.1848049281314169	-0.4195519348268839	0.6735537190082644
1786.163330078125	-0.2526132830089879	-9.455011628172906	-2.246223899700404	-0.7281756959382143	-1.844378272962584	0.3538014778793914	0.1848049281314169	-0.4195519348268839	0.6735537190082644
1790.069580078125	0.06687244339891218	-9.94171124330102	-1.895748113297073	-0.369545355873136	-1.097093151542149	0.7226515293425799	0.1848049281314169	-0.4195519348268839	0.6735537190082644
1793.975830078125	0.1116123216836049	-9.540578682655633	-2.053744056120162	-0.3695081699589862	-1.468915107125501	0.7189329379276049	0.1642710472279261	-0.4093686354378818	0.6694214876033058
1797.882080078125	0.3497229190538792	-9.990256256172581	-2.324097301795972	-0.3731960897805385	-1.08975517638827	1.087724920082828	0.1642710472279261	-0.4093686354378818	0.6694214876033058
1801.788330078125	0.1560036307974269	-9.959558826042164	-2.200121026580896	-0.3659318078798833	-0.7326091711126765	0.3612967300173071	0.1642710472279261	-0.4093686354378818	0.6694214876033058
1805.694580078125	0.05992866161267656	-9.660623066078568	-1.997622053755885	-1.083266859838339	-1.483535502786842	-0.3689661900791201	0.1519507186858316	-0.4297352342158859	0.6838842975206612
1809.600830078125	0.1398353838716572	-10.0514532258815	-1.994512795721905	-1.090568327653144	-1.468859552479084	0.3611805914013757	0.1519507186858316	-0.4297352342158859	0.6838842975206612
1813.507080078125	0.3978372939045347	-9.664699274970868	-1.927909796817821	0.358816269635827	-1.111824656496325	0.3502570943883135	0.1519507186858316	-0.4297352342158859	0.6838842975206612
1817.413330078125	0.06847964695147869	-9.961191580819023	-1.94932156504929	-0.7282500677665138	-1.10073436179588	0.3612386607093414	0.1519507186858316	-0.4297352342158859	0.6838842975206612
1821.319580078125	0.6375022574191214	-9.537207603434485	-1.91674191397071	-0.3622067021441813	-1.483591057433259	-0.01121384355289078	0.1765913757700205	-0.4215885947046843	0.6818181818181819
1825.225830078125	0.04724610639561339	-9.551390425598751	-1.908203546520446	-0.003613547993252729	-0.3644839804294728	0.3613547993252729	0.1765913757700205	-0.4215885947046843	0.6818181818181819
1829.132080078125	0.3753853384866894	-9.705292073889305	-1.84617794955631	-0.7246737056874109	-0.3644284257830558	0.003602452799043552	0.1765913757700205	-0.4215885947046843	0.6818181818181819
1833.038330078125	0.1964826058463409	-9.523137290776349	-1.882753528211364	0.3587418978075275	-0.3681807453296208	0.3576942772182636	0.1683778234086242	-0.4195519348268839	0.6756198347107438
1836.944580078125	0.3525233016913492	-9.612684132453131	-2.084110056378303	0.003650733907402479	-0.007337975153878983	-0.3650733907402479	0.1683778234086242	-0.4195519348268839	0.6756198347107438
1840.850830078125	0.1982601508941746	-9.515895884544216	-1.608671696472485	-0.3587790837216773	0.7400027009129726	-0.3539756858032885	0.1683778234086242	-0.4195519348268839	0.6756198347107438
1844.757080078125	0.1291212192665695	-9.78158413910381	-1.970707308885648	-0.3661549233647818	1.498322562387434	0.3836082785071572	0.1683778234086242	-0.4195519348268839	0.6756198347107438
1848.663330078125	0.1896626370913874	-9.605342414007119	-1.655421236379581	-0.01110094537880644	1.509301747795044	1.110094537880644	0.1683778234086242	-0.4195519348268839	0.6756198347107438
1852.569580078125	-0.02495108596646325	-9.531400851129158	-1.834963801117892	0.7209114140375591	1.48723226768699	0.3726267121861294	0.1683778234086242	-0.4195519348268839	0.6756198347107438
1856.475830078125	0.1870444252196893	-9.472855635845633	-1.901480840656309	0.3586303400650783	0.7472851214204346	0.3688500514631886	0.1683778234086242	-0.4195519348268839	0.6756198347107438
1860.382080078125	-0.2307425390819382	-9.517940087636493	-1.975248697268726	0.7209114140375591	1.48723226768699	0.3726267121861294	0.1786447638603696	-0.4175152749490835	0.6756198347107438
1864.288330078125	-0.01579838506799072	-9.601774811171984	-1.806720497733643	-0.7283988114231127	0.3865534605375267	0.3761130263692414	0.1786447638603696	-0.4175152749490835	0.6756198347107438
1868.194580078125	-0.06996540332686406	-9.679288813742351	-2.001153222437865	-3.718591414975016e-05	0.3718219555833518	0.003718591414975016	0.1786447638603696	-0.4175152749490835	0.6756198347107438
1872.100830078125	0.03221425805632467	-9.69958405656179	-2.073808601877489	0	0	0	0.1519507186858316	-0.4195519348268839	0.6921487603305785
1876.007080078125	0.09229906603966276	-9.780156635313842	-2.076635534655425	0.7210601576941581	-5.555464641699391e-05	0.3577523465262293	0.1519507186858316	-0.4195519348268839	0.6921487603305785
1879.913330078125	-0.2432011267774465	-9.768635030991376	-1.893295774085118	-0.3660061797081828	0.01103474005402697	0.3687339128472572	0.1519507186858316	-0.4195519348268839	0.6921487603305785
1883.819580078125	0.07771909583365207	-9.598204159013788	-2.257303194455069	-0.3622067021441813	-1.483591057433259	-0.01121384355289078	0.1519507186858316	-0.4195519348268839	0.6921487603305785
1887.725830078125	-0.07582956702504101	-9.907851560004765	-2.139014432498634	-0.7209485999517089	-1.115410312103638	-0.3689081207711543	0.1786447638603696	-0.4114052953156823	0.6797520661157025
1891.632080078125	0.04567833374472907	-9.698564005422538	-2.189277791490969	-0.3585931541509285	-1.119107077003786	-0.3725686428781636	0.1786447638603696	-0.4114052953156823	0.6797520661157025
1895.538330078125	0.1239045109740143	-9.599937541451736	-2.130150365800475	-0.003613547993252729	-0.3644839804294728	0.3613547993252729	0.1786447638603696	-0.4114052953156823	0.6797520661157025
1899.444580078125	0.05313314001676601	-9.899486951394579	-2.104438000558867	0.3624670035432295	-1.119162631650203	-0.01481629635193433	0.1827515400410678	-0.4175152749490835	0.6838842975206612
1903.350830078125	0.1329980655199635	-9.420330625481879	-2.099935517332116	-0.3622067021441813	-1.483591057433259	-0.01121384355289078	0.1827515400410678	-0.4175152749490835	0.6838842975206612
1907.257080078125	0.1155475256714885	-9.639306300032883	-2.184917522382951	-0.007264281900655208	-0.3571460052755938	0.7264281900655207	0.1827515400410678	-0.4175152749490835	0.6838842975206612
1911.163330078125	0.1435616040806252	-9.800248414680597	-2.118720136020838	-0.365968993794033	-0.3607872155293249	0.3650153214322821	0.1827515400410678	-0.4175152749490835	0.6838842975206612
1915.069580078125	0.1089933211938731	-9.618092159480648	-2.299777373129102	-0.3660433656223325	0.3828566956373787	0.3724525042622321	0.1827515400410678	-0.4175152749490835	0.6838842975206612
1918.975830078125	0.11317378539022	-9.740073809390497	-2.105792846340667	-0.3660061797081828	0.01103474005402697	0.3687339128472572	0.1827515400410678	-0.4175152749490835	0.6838842975206612
1922.882080078125	0.2118685436827358	-9.751495837542581	-2.062284789424527	-0.3660061797081828	0.01103474005402697	0.3687339128472572	0.1827515400410678	-0.4175152749490835	0.6838842975206612
1926.788330078125	0.2037371031378323	-9.730791669985434	-2.12457010459441	-0.007301467814804958	0.01467595030775797	0.7301467814804957	0.1868583162217659	-0.415478615071283	0.6570247933884298
1930.694580078125	0.2423021022190923	-9.631655653615827	-2.076736740636409	-0.7282872536806635	-0.7289124062125286	0.3649572521243164	0.1868583162217659	-0.415478615071283	0.6570247933884298
1934.600830078125	0.1262624788946099	-9.699175131824077	-2.208749296486996	-0.7209857858658586	-0.7435883565202867	-0.3651895293561793	0.1868583162217659	-0.415478615071283	0.6570247933884298
1938.507080078125	0.1507624753458287	-9.621253466304848	-2.025415844860957	-0.3587047118933778	-0.003641210253730994	-0.3614128686332386	0.1724845995893224	-0.4236252545824847	0.6900826446280992
1942.413330078125	0.2945709168709845	-9.691422070211717	-2.152363895699482	-0.7210973436083078	0.3718775102297688	-0.3540337551112543	0.1724845995893224	-0.4236252545824847	0.6900826446280992
1946.319580078125	-0.1698423000518123	-9.79158234368342	-1.67192333160626	-0.7210973436083078	0.3718775102297688	-0.3540337551112543	0.1724845995893224	-0.4236252545824847	0.6900826446280992
1950.225830078125	0.271428132055667	-9.692238237302	-2.047604401855565	-1.072463401772731	-0.01826160591507197	-1.449311996639964	0.1724845995893224	-0.4236252545824847	0.6900826446280992
1954.132080078125	0.162062583149914	-9.860933098114861	-2.068752771663797	-0.358816269635827	1.111824656496325	-0.3502570943883135	0.1581108829568789	-0.4256619144602851	0.6652892561983471
1958.038330078125	-0.014732173486504	-9.681430069427302	-1.8422608837832	0.003501990250803478	1.479949847179528	-0.3501990250803478	0.1581108829568789	-0.4256619144602851	0.6652892561983471
1961.944580078125	-0.08228834872058557	-9.809939899419657	-1.923721709313815	-0.3550539779859753	-0.01097918540760998	-0.7264862593734864	0.1581108829568789	-0.4256619144602851	0.6652892561983471
1965.850830078125	-0.1056558896754916	-9.660828737661742	-1.811470344150281	-0.3550167920718256	-0.3828011409909618	-0.7302048507884614	0.1765913757700205	-0.4175152749490835	0.6714876033057852
1969.757080078125	-0.1233177791569831	-10.15987274859409	-1.889407361433897	0.3696197277014355	0.3534492403754458	-0.73008871217253	0.1765913757700205	-0.4175152749490835	0.6714876033057852
1973.663330078125	0.328163679250119	-9.643893743709127	-1.938789308337296	0.007338653728954708	-0.3864979058911098	-0.7338653728954707	0.1765913757700205	-0.4175152749490835	0.6714876033057852
1977.569580078125	0.2917011358465539	-9.882349966076282	-2.056704528218462	0.3623554458007803	-0.003696764900147988	-0.003660522107009284	0.1765913757700205	-0.4175152749490835	0.6714876033057852
1981.475830078125	0.2280107662133953	-9.922943185591002	-1.933692207113177	0.7282872536806635	0.7289124062125286	-0.3649572521243164	0.1765913757700205	-0.4175152749490835	0.6714876033057852
1985.382080078125	0.1212452909645666	-9.720797355921457	-2.041509698818887	0.3622810739724808	0.7399471462665556	0.003776660722940747	0.1765913757700205	-0.4175152749490835	0.6714876033057852
1989.288330078125	0.1763886183490912	-9.662967680067128	-1.879620611636375	0.3659318078798833	0.7326091711126765	-0.3612967300173071	0.1765913757700205	-0.4175152749490835	0.6714876033057852
1993.194580078125	0.06894572020936232	-9.851040883798973	-1.964857340312077	0.7283244395948133	0.3570904506291769	-0.3686758435392914	0.2032854209445585	-0.4134419551934826	0.6714876033057852
1997.100830078125	0.0679244598557933	-9.801371091313294	-1.930815328526444	0.365968993794033	0.3607872155293249	-0.3650153214322821	0.2032854209445585	-0.4134419551934826	0.6714876033057852
2001.007080078125	0.03878344627657938	-9.730793352370574	-1.959448209219313	1.449347411374822	0.7288568515661117	-0.007204905598087103	0.2032854209445585	-0.4134419551934826	0.6714876033057852
2004.913330078125	0.003072455859077106	-9.839006572605566	-2.10241519530257	1.087029151488191	0.3607316608829078	-0.007262974906052836	0.1642710472279261	-0.405295315682281	0.6859504132231405
2008.819580078125	0.1205095103391767	-9.651035258323667	-2.016983677972558	0.3659318078798833	0.7326091711126765	-0.3612967300173071	0.1642710472279261	-0.405295315682281	0.6859504132231405
2012.725830078125	0.2550296086640732	-9.770873759865284	-2.167653622135772	0.007264281900655208	0.3571460052755938	-0.7264281900655207	0.1642710472279261	-0.405295315682281	0.6859504132231405
2016.632080078125	-0.0004416260988406608	-9.600142792438627	-1.985279130038645	0.724636519773261	0.7362503813664076	0.0001161386159314638	0.1642710472279261	-0.405295315682281	0.6859504132231405
2020.538330078125	0.03275525002740447	-9.639409135824472	-2.091841667580149	0.7173722378726058	0.3791043760908138	0.7265443286814521	0.1642710472279261	-0.4358452138492871	0.6838842975206612
2024.444580078125	-0.02950850958289205	-9.789541084765135	-2.016383013903599	0.3587790837216773	-0.7400027009129726	0.3539756858032885	0.1642710472279261	-0.4358452138492871	0.6838842975206612
2028.350830078125	0.1026536208214088	-9.810141995934412	-2.088454027380292	0.362541375371529	-1.862806542816907	-0.02225347918188436	0.1642710472279261	-0.4358452138492871	0.6838842975206612
2032.257080078125	0.4619479969496255	-9.693970147652955	-2.064933231654182	1.090828629052193	-1.133894136604378	-0.3872107313062008	0.1868583162217659	-0.4236252545824847	0.6859504132231405
2036.163330078125	0.3533647571332473	-9.542412061860251	-2.112158571108242	0.3587790837216773	-0.7400027009129726	0.3539756858032885	0.1868583162217659	-0.4236252545824847	0.6859504132231405
2040.069580078125	0.5367192385735162	-9.606460779527898	-1.890641285783872	0	0	0	0.1868583162217659	-0.4236252545824847	0.6859504132231405
2043.975830078125	0.2553355924611271	-9.62410815843757	-1.844519748704235	-0.7210601576941581	5.555464641699391e-05	-0.3577523465262293	0.1868583162217659	-0.4215885947046843	0.6776859504132231
2047.882080078125	0.07180051749115368	-9.650117832677861	-2.060017249705123	-0.717483795615055	0.7363614906592416	-0.7153885544365272	0.1868583162217659	-0.4215885947046843	0.6776859504132231
2051.788330078125	0.1015582303726772	-9.500496172179501	-2.051941012422574	-0.0001859295707487508	1.859109777916759	0.01859295707487508	0.1868583162217659	-0.4215885947046843	0.6776859504132231
2055.694580078125	-0.03588212053080304	-9.678268552304958	-2.137262648973232	-0.7212089013507571	1.487343376979824	-0.3428779808663293	0.1868583162217659	-0.4215885947046843	0.6776859504132231
2059.600830078125	-0.01504840931799525	-9.891532319012818	-1.831719689400159	-0.3587418978075275	0.3681807453296208	-0.3576942772182636	0.1704312114989733	-0.4175152749490835	0.6797520661157025
2063.507080078125	0.04982567598366298	-9.307223031431951	-2.327522532788766	0.3696197277014355	0.3534492403754458	-0.73008871217253	0.1704312114989733	-0.4175152749490835	0.6797520661157025
2067.413330078125	0.107405044474114	-9.891939035620036	-1.913501482470467	-0.3587047118933778	-0.003641210253730994	-0.3614128686332386	0.1704312114989733	-0.4175152749490835	0.6797520661157025
2071.319580078125	-0.03589710427344228	-9.668273397048413	-2.136763190885258	0.003613547993252729	0.3644839804294728	-0.3613547993252729	0.1642710472279261	-0.4073319755600814	0.6756198347107438
2075.225830078125	0.001225512424282805	-9.659603750982816	-2.04085041414276	-0.7211345295224576	0.7436994658131205	-0.3503151636962792	0.1642710472279261	-0.4073319755600814	0.6756198347107438
2079.132080078125	-0.01777229600620171	-9.899079709042006	-2.074256799793277	-3.718591414975016e-05	0.3718219555833518	0.003718591414975016	0.1642710472279261	-0.4073319755600814	0.6756198347107438
2083.038330078125	0.1203289168094722	-9.741093650231605	-2.010963893649075	0.007338653728954708	-0.3864979058911098	-0.7338653728954707	0.1642710472279261	-0.4073319755600814	0.6756198347107438
2086.944580078125	0.2376003615025066	-9.653175883114189	-1.920012050083554	0.003687919821552229	-0.3791599307372308	-0.3687919821552229	0.1848049281314169	-0.4338085539714867	0.6735537190082644
2090.850830078125	0.0415317801238288	-9.87990472442663	-2.05105933746096	-0.3550539779859753	-0.01097918540760998	-0.7264862593734864	0.1848049281314169	-0.4338085539714867	0.6735537190082644
2094.757080078125	0.2494722173809838	-9.642670649713482	-1.982407246032791	-0.3550539779859753	-0.01097918540760998	-0.7264862593734864	0.1848049281314169	-0.4338085539714867	0.6735537190082644
2098.663330078125	-0.1217689333389063	-9.719371955112914	-1.941035555369792	0.003576362079102979	0.7363059360128246	-0.3576362079102978	0.1663244353182751	-0.4358452138492871	0.7024793388429752
2102.569580078125	0.1219211366193995	-9.75057883249306	-2.064037887313318	-0.3551283498142748	0.7326647257590937	-0.7190490765435364	0.1663244353182751	-0.4358452138492871	0.7024793388429752
2106.475830078125	-0.1495732393510936	-9.698362014056855	-2.014225354963548	0.01095220172220744	-0.02201392546163695	-1.095220172220744	0.1663244353182751	-0.4358452138492871	0.7024793388429752
2110.382080078125	-0.08526695903365902	-9.647569650087551	-2.157768032211366	-0.0001115577424492505	1.115465866750055	0.01115577424492505	0.1868583162217659	-0.4358452138492871	0.6838842975206612
2114.288330078125	-0.0941144647531113	-9.640430343603505	-1.86285117489629	0.362243888058331	1.111769101849907	0.007495252137915762	0.1868583162217659	-0.4358452138492871	0.6838842975206612
2118.194580078125	0.1590129972138125	-9.931919130900868	-1.967099907127083	-7.437182829950031e-05	0.7436439111667036	0.007437182829950031	0.1868583162217659	-0.4358452138492871	0.6838842975206612
2122.100830078125	-0.1220094618391677	-9.769449725994665	-1.933017938694411	-0.358667525979228	-0.3754631658370828	-0.3651314600482136	0.1868583162217659	-0.4358452138492871	0.6838842975206612
2126.007080078125	0.03896325118825022	-9.850735215449133	-1.965441706275007	0.0002603013990482511	-2.602753689083463	-0.02603013990482511	0.1683778234086242	-0.4134419551934826	0.6797520661157025
2129.913330078125	0.08608948764274972	-9.988831065662177	-2.202982921424991	0.0001115577424492505	-1.115465866750055	-0.01115577424492505	0.1683778234086242	-0.4134419551934826	0.6797520661157025
2133.819580078125	0.04963325318345384	-9.880618581470683	-1.987775106115128	-0.003613547993252729	-0.3644839804294728	0.3613547993252729	0.1683778234086242	-0.4134419551934826	0.6797520661157025
2137.725830078125	0.3462088370959615	-9.751392476005639	-2.206961236532047	7.437182829950031e-05	-0.7436439111667036	-0.007437182829950031	0.1560574948665298	-0.415478615071283	0.6590909090909091
2141.632080078125	0.04019586117483583	-9.620336671553471	-2.006528705827861	0.3623182598866305	0.3681251906832038	5.806930796573191e-05	0.1560574948665298	-0.415478615071283	0.6590909090909091
2145.538330078125	0.3617209538177394	-9.713043558265596	-2.057365127257978	-7.437182829950031e-05	0.7436439111667036	0.007437182829950031	0.1560574948665298	-0.415478615071283	0.6590909090909091
2149.444580078125	0.1611312252521803	-9.871234237168462	-2.037707508406011	0.003576362079102979	0.7363059360128246	-0.3576362079102978	0.1560574948665298	-0.415478615071283	0.6590909090909091
2153.350830078125	0.1661184456969451	-9.829621702557988	-2.203948189898171	0.003576362079102979	0.7363059360128246	-0.3576362079102978	0.1560574948665298	-0.415478615071283	0.6590909090909091
2157.257080078125	0.2526558683828047	-9.871641269222893	-2.088528946093489	0.003687919821552229	-0.3791599307372308	-0.3687919821552229	0.1560574948665298	-0.415478615071283	0.6590909090909091
2161.163330078125	0.3298907527437994	-9.743335323279505	-1.99635842479331	0.003576362079102979	0.7363059360128246	-0.3576362079102978	0.1560574948665298	-0.415478615071283	0.6590909090909091
2165.069580078125	-0.02830744431765219	-9.959152740329374	-2.056418522744927	-0.003762291649851729	1.122803841903934	0.3762291649851729	0.1827515400410678	-0.4195519348268839	0.6776859504132231
2168.975830078125	0.1524304024869858	-9.470714169862541	-2.081013416232861	0.3622067021441813	1.483591057433259	0.01121384355289078	0.1827515400410678	-0.4195519348268839	0.6776859504132231
2172.882080078125	-0.03263222561415601	-9.600551086281911	-1.9122591461948	-0.0001115577424492505	1.115465866750055	0.01115577424492505	0.1827515400410678	-0.4195519348268839	0.6776859504132231
2176.788330078125	0.09046710634750769	-9.61074896894764	-2.01557021158359	0.3586303400650783	0.7472851214204346	0.3688500514631886	0.1868583162217659	-0.415478615071283	0.6714876033057852
2180.694580078125	0.02270037009844318	-9.809326880334837	-2.090012336614773	0.003650733907402479	-0.007337975153878983	-0.3650733907402479	0.1868583162217659	-0.415478615071283	0.6714876033057852
2184.600830078125	0.2659906107136915	-9.643996369202572	-1.866353690456381	3.718591414975016e-05	-0.3718219555833518	-0.003718591414975016	0.1868583162217659	-0.415478615071283	0.6714876033057852
2188.507080078125	0.08950578096449563	-9.601059797488148	-1.983526032149854	0.7320123594163656	-0.02206948010805394	-0.7374678256945143	0.1868583162217659	-0.415478615071283	0.6714876033057852
2192.413330078125	-0.0684630859727722	-9.628803064464529	-2.051230467574261	0.3660433656223325	-0.3828566956373787	-0.3724525042622321	0.1683778234086242	-0.4215885947046843	0.6632231404958678
2196.319580078125	0.1467018810905957	-9.579233058447373	-2.223396036353188	-1.083452789409088	0.3755742751299168	-0.350373233004245	0.1683778234086242	-0.4215885947046843	0.6632231404958678
2200.225830078125	0.09267523684171096	-9.610035006754513	-2.089174561390365	-0.7174094237867555	-0.007282420507461989	-0.7228257372664771	0.1683778234086242	-0.4215885947046843	0.6632231404958678
2204.132080078125	0.1829538634791777	-9.410844917475066	-2.098462115972591	0.3658574360515838	1.47625308227938	-0.3538595471873571	0.1663244353182751	-0.4236252545824847	0.6818181818181819
2208.038330078125	0.03024665606238284	-9.650220247873163	-2.008221868746094	-7.437182829950031e-05	0.7436439111667036	0.007437182829950031	0.1663244353182751	-0.4236252545824847	0.6818181818181819
2211.944580078125	0.1100800368442345	-9.571074121420363	-2.002667894807818	-0.3549796061576758	-0.7546230965743135	-0.7339234422034364	0.1663244353182751	-0.4236252545824847	0.6818181818181819
2215.850830078125	0.09087245601680072	-9.670617905887902	-2.029081867226691	-0.7136843180510536	-0.7582643068280446	-1.095336310836675	0.1663244353182751	-0.4236252545824847	0.6818181818181819
2219.757080078125	0.2787938244899022	-9.623189996748266	-1.959794149663405	0	0	0	0.1663244353182751	-0.4236252545824847	0.6818181818181819
2223.663330078125	0.2231994075901332	-9.801165524879192	-2.106646919671104	-0.7210973436083078	0.3718775102297688	-0.3540337551112543	0.1663244353182751	-0.4236252545824847	0.6818181818181819
2227.569580078125	0.3089560984226851	-9.743437528176667	-1.965203280756169	-0.3551283498142748	0.7326647257590937	-0.7190490765435364	0.1663244353182751	-0.4236252545824847	0.6818181818181819
2231.475830078125	0.4298922511180633	-9.784334838805158	-1.996408370602107	0.003576362079102979	0.7363059360128246	-0.3576362079102978	0.162217659137577	-0.4134419551934826	0.6818181818181819
2235.382080078125	0.1672059499653402	-9.572603409511204	-1.906864998844674	0.003539176164953228	1.108127891596177	-0.3539176164953228	0.162217659137577	-0.4134419551934826	0.6818181818181819
2239.288330078125	0.1174599244030753	-9.722021291109671	-1.915330813435843	-1.434818847573511	-0.01456484101492398	-1.445651474532954	0.162217659137577	-0.4134419551934826	0.6818181818181819
2243.194580078125	0.2733113519200089	-9.544962662879197	-1.777045064000296	-0.7210973436083078	0.3718775102297688	-0.3540337551112543	0.1581108829568789	-0.4358452138492871	0.6818181818181819
2247.100830078125	0.01592614118944103	-9.711517214348746	-1.864204706314701	-1.079727683673386	-0.3754076111906658	-0.7228838065744428	0.1581108829568789	-0.4358452138492871	0.6818181818181819
2251.007080078125	-0.06199957256902578	-9.800046528463985	-1.933347581032475	-0.7211345295224576	0.7436994658131205	-0.3503151636962792	0.1581108829568789	-0.4358452138492871	0.6818181818181819
2254.913330078125	0.01962633700329879	-9.7236541510356	-1.654211233443293	-1.442120315388316	0.0001111092928339878	-0.7155046930524586	0.1581108829568789	-0.4358452138492871	0.6818181818181819
2258.819580078125	0.05919366960532033	-9.380860713494281	-1.973122320177344	-1.442120315388316	0.0001111092928339878	-0.7155046930524586	0.1663244353182751	-0.4175152749490835	0.6818181818181819
2262.725830078125	-0.03571256765356957	-9.861547063541321	-1.809581078214348	-0.7136471321369039	-1.130086262411396	-1.09905490225165	0.1663244353182751	-0.4175152749490835	0.6818181818181819
2266.632080078125	0.03738680373899582	-9.641244933457724	-1.912893457966527	0.007301467814804958	-0.01467595030775797	-0.7301467814804957	0.1663244353182751	-0.4175152749490835	0.6818181818181819
2270.538330078125	0.2351808813752868	-9.933958181688658	-1.839362712509559	-0.3659318078798833	-0.7326091711126765	0.3612967300173071	0.1848049281314169	-0.4195519348268839	0.6673553719008265
2274.444580078125	0.1737144145970043	-9.773832339280302	-1.790480486566812	0.3623554458007803	-0.003696764900147988	-0.003660522107009284	0.1848049281314169	-0.4195519348268839	0.6673553719008265
2278.350830078125	0.1164978104020296	-9.922332374636676	-1.88326034673432	0.3623554458007803	-0.003696764900147988	-0.003660522107009284	0.1848049281314169	-0.4195519348268839	0.6673553719008265
2282.257080078125	0.1000551244005517	-9.760982176443822	-2.00183748001839	0.7209114140375591	1.48723226768699	0.3726267121861294	0.1848049281314169	-0.4195519348268839	0.6673553719008265
2286.163330078125	-0.1010298562901357	-9.799332986867144	-1.965671456995476	0.3550167920718256	0.3828011409909618	0.7302048507884614	0.1848049281314169	-0.4195519348268839	0.6673553719008265
2290.069580078125	0.2025502329971981	-9.781175424664237	-2.085007766573268	-0.003687919821552229	0.3791599307372308	0.3687919821552229	0.1848049281314169	-0.4195519348268839	0.6673553719008265
2293.975830078125	-0.1974518174096895	-9.900509420962466	-1.751606086343686	3.718591414975016e-05	-0.3718219555833518	-0.003718591414975016	0.1848049281314169	-0.4195519348268839	0.6673553719008265
2297.882080078125	0.148628474946788	-9.881943459767205	-1.954282498226267	1.076002577937684	1.126389497511249	1.095394380144641	0.1642710472279261	-0.4093686354378818	0.6880165289256198
2301.788330078125	0.1147959726854258	-9.769549302165046	-2.15986575618086	1.079690497759237	0.7472295667740175	0.7266023979894179	0.1642710472279261	-0.4093686354378818	0.6880165289256198
2305.694580078125	0.4313937798541215	-9.943849344513835	-2.046459328470715	0.3586303400650783	0.7472851214204346	0.3688500514631886	0.1642710472279261	-0.4093686354378818	0.6880165289256198
2309.600830078125	0.302762292386445	-9.752106858795049	-2.092076412881497	0.3623554458007803	-0.003696764900147988	-0.003660522107009284	0.1786447638603696	-0.4114052953156823	0.6673553719008265
2313.507080078125	0.2003121350177163	-9.761899076344271	-2.010404500590544	1.083378417580789	0.3680696360367868	0.357810415834195	0.1786447638603696	-0.4114052953156823	0.6673553719008265
2317.413330078125	-0.1165112169086016	-9.647671960133781	-2.116292769713282	0.365968993794033	0.3607872155293249	-0.3650153214322821	0.1786447638603696	-0.4114052953156823	0.6673553719008265
2321.319580078125	-0.1516670202304184	-9.915705669874502	-2.277765992319386	0.007227095986505457	0.7289679608589457	-0.7227095986505457	0.1786447638603696	-0.4114052953156823	0.6673553719008265
2325.225830078125	0.1112968744701473	-9.540680677254651	-2.043229149004909	-0.3478640679136196	1.089810731034688	-1.445477266609057	0.1642710472279261	-0.4114052953156823	0.6735537190082644
2329.132080078125	-0.1341415616687473	-9.746705771606226	-2.195281277708423	0.3730101602097897	2.94886495430503	-1.069131963007953	0.1642710472279261	-0.4114052953156823	0.6735537190082644
2333.038330078125	0.2230046189358231	-9.671228506544086	-2.100153964527435	0.01076627215145869	1.837095852455122	-1.076627215145868	0.1642710472279261	-0.4114052953156823	0.6735537190082644
2336.944580078125	0.01019761979305084	-9.82003610293358	-2.006587326435028	0.01449137788716067	1.08611396613454	-1.449137788716066	0.1642710472279261	-0.4236252545824847	0.6962809917355373
2340.850830078125	0.25170479503423	-9.798615449605599	-2.390159834474332	0.01091501580805769	0.3498080301217149	-1.091501580805769	0.1642710472279261	-0.4236252545824847	0.6962809917355373
2344.757080078125	-0.04017851157809568	-9.759657718743584	-1.994049614063478	0.3732332756946882	0.7179332208049186	-1.091443511497803	0.1642710472279261	-0.4236252545824847	0.6962809917355373
2348.663330078125	0.07602041258918284	-9.938753399929498	-2.200680419639428	-0.3514032440785728	-0.01831716056148896	-1.091559650113734	0.1642710472279261	-0.4236252545824847	0.6962809917355373
2352.569580078125	-0.008453196702630294	-9.65939986693385	-2.051560109912324	-0.3550167920718256	-0.3828011409909618	-0.7302048507884614	0.1642710472279261	-0.4236252545824847	0.6962809917355373
2356.475830078125	0.1948399144822605	-9.620335094317403	-2.161330482742014	-0.7172978660443063	-1.122748287257517	-0.7339815115114022	0.1642710472279261	-0.4236252545824847	0.6962809917355373
2360.382080078125	0.06977219190862124	-9.770773657949547	-1.992406396954042	-1.079504568188488	-2.606339344690777	-0.745195355064293	0.1642710472279261	-0.4236252545824847	0.6962809917355373
2364.288330078125	0.1603362982742672	-9.551491263557988	-2.011209942475572	-0.007152724158205957	-1.472611872025649	0.7152724158205956	0.1971252566735113	-0.4215885947046843	0.6859504132231405
2368.194580078125	0.02685165542754532	-9.701317964745094	-1.895055180918177	-0.7317148721031675	-2.95250616455876	0.7077190943747141	0.1971252566735113	-0.4215885947046843	0.6859504132231405
2372.100830078125	0.1589088996333715	-9.651952789118544	-1.963629987779049	-0.7243018465459133	-4.082647981616574	-0.0335834613507066	0.1971252566735113	-0.4215885947046843	0.6859504132231405
2376.007080078125	0.1787016350417692	-9.732219804669828	-1.956721168058972	-0.3766237082030424	-3.313348934734502	1.430486762333226	0.1704312114989733	-0.4358452138492871	0.6818181818181819
2379.913330078125	0.3871215520633797	-9.814830698166174	-1.904051735445988	-0.3729357883814902	-3.692508865471733	1.061694780178003	0.1704312114989733	-0.4358452138492871	0.6818181818181819
2383.819580078125	0.5042076715185078	-9.74363951954235	-2.140255717283589	-0.3730473461239395	-2.577042998721678	1.072850554422928	0.1704312114989733	-0.4358452138492871	0.6818181818181819
2387.725830078125	0.5035815087997944	-9.817175312154735	-1.786050293326477	-0.369396612216537	-2.584380973875557	0.7077771636826798	0.1704312114989733	-0.4358452138492871	0.6818181818181819
2391.632080078125	0.4996423617217425	-9.435115636376636	-1.988078724058081	-0.7356259074096183	-0.3424145003214189	1.098822625019787	0.1704312114989733	-0.4215885947046843	0.6694214876033058
2395.538330078125	0.4549931745109189	-9.686218873574802	-1.833105817030627	-0.3623554458007803	0.003696764900147988	0.003660522107009284	0.1704312114989733	-0.4215885947046843	0.6694214876033058
2399.444580078125	0.2542394133943619	-9.524462589669158	-1.807980446478728	-1.083452789409088	0.3755742751299168	-0.350373233004245	0.1704312114989733	-0.4215885947046843	0.6694214876033058
2403.350830078125	0.2622651791227571	-9.685200925416975	-1.742172637425236	-0.3551283498142748	0.7326647257590937	-0.7190490765435364	0.1786447638603696	-0.4378818737270875	0.6776859504132231
2407.257080078125	0.01848520670861589	-9.594023116497548	-1.616173556953863	-0.7176697251858037	2.595471268576001	-0.6967955973616521	0.1786447638603696	-0.4378818737270875	0.6776859504132231
2411.163330078125	0.1381248713566833	-9.542006291594671	-1.937495711889442	-0.7138702476218023	1.100845471088715	-1.0767433537618	0.1786447638603696	-0.4378818737270875	0.6776859504132231
2415.069580078125	0.001049650602780181	-9.822993946305102	-1.701655020092673	-1.07257495951518	1.097204260834983	-1.438156222395039	0.1786447638603696	-0.4378818737270875	0.6776859504132231
2418.975830078125	0.1513389551284225	-9.444400404508476	-1.71129850428075	-0.3478640679136196	1.089810731034688	-1.445477266609057	0.1786447638603696	-0.4378818737270875	0.6776859504132231
2422.882080078125	0.1183313473302519	-9.671739531029885	-1.944378244341731	-0.3478268819994699	0.7179887754513357	-1.449195858024032	0.1786447638603696	-0.4378818737270875	0.6776859504132231
2426.788330078125	-0.1938304833991961	-9.57933852296574	-1.872317220026797	0.01449137788716067	1.08611396613454	-1.449137788716066	0.1786447638603696	-0.4378818737270875	0.6776859504132231
2430.694580078125	-0.124937600598088	-9.500396490860048	-1.835413313397069	-0.3515148018210221	1.097148706188567	-1.080403875868809	0.1540041067761807	-0.415478615071283	0.6838842975206612
2434.600830078125	0.03203366452662019	-9.789642448469726	-2.067788817554006	0.007264281900655208	0.3571460052755938	-0.7264281900655207	0.1540041067761807	-0.415478615071283	0.6838842975206612
2438.507080078125	-0.025702638952526	-9.661643853261317	-1.8099120349158	0.003613547993252729	0.3644839804294728	-0.3613547993252729	0.1540041067761807	-0.415478615071283	0.6838842975206612
2442.413330078125	-0.1352172366666378	-9.520386906522214	-1.826092111112075	0.003725105735701979	-0.7509818863205826	-0.3725105735701979	0.162217659137577	-0.405295315682281	0.6652892561983471
2446.319580078125	-0.1813277330938038	-9.568629300366997	-1.955742230206541	-0.003501990250803478	-1.479949847179528	0.3501990250803478	0.162217659137577	-0.405295315682281	0.6652892561983471
2450.225830078125	0.05633414061532711	-9.508451961201043	-2.211138020510903	-0.3584444104943295	-2.606394899337194	-0.3874430085380637	0.162217659137577	-0.405295315682281	0.6652892561983471
2454.132080078125	-0.05507392899756397	-9.577807237042546	-2.164202366747868	-0.007189910072355707	-1.100789916442297	0.7189910072355706	0.162217659137577	-0.405295315682281	0.6652892561983471
2458.038330078125	0.1813750501758224	-9.831355400443151	-2.045835005860746	-0.007189910072355707	-1.100789916442297	0.7189910072355706	0.1704312114989733	-0.4317718940936863	0.6818181818181819
2461.944580078125	0.07635242078134698	-9.528646050614032	-2.211747359378232	-0.3695081699589862	-1.468915107125501	0.7189329379276049	0.1704312114989733	-0.4317718940936863	0.6818181818181819
2465.850830078125	-0.02633905370567672	-9.798516294031502	-2.122031543144109	-0.728212881852364	-1.472556317379232	0.3575200692943664	0.1704312114989733	-0.4317718940936863	0.6818181818181819
2469.757080078125	0.1357463993672129	-9.569441997537934	-2.191546645573763	-0.3622067021441813	-1.483591057433259	-0.01121384355289078	0.1868583162217659	-0.415478615071283	0.6818181818181819
2473.663330078125	0.1542473784365017	-9.630126680972198	-2.141579281216722	0.0001487436565990006	-1.487287822333407	-0.01487436565990006	0.1868583162217659	-0.415478615071283	0.6818181818181819
2477.569580078125	0.1083513861144868	-9.891633051822982	-1.945046203816228	-0.3585931541509285	-1.119107077003786	-0.3725686428781636	0.1868583162217659	-0.415478615071283	0.6818181818181819
2481.475830078125	0.3047456667410597	-9.601465567753724	-2.158188891368654	-0.7135355743944546	-2.245552129161452	-1.110210676496575	0.1745379876796715	-0.4215885947046843	0.6735537190082644
2485.382080078125	0.2338094746147798	-9.791068269874556	-2.126982487159327	0.003613547993252729	0.3644839804294728	-0.3613547993252729	0.1745379876796715	-0.4215885947046843	0.6735537190082644
2489.288330078125	0.09786197764898769	-9.771691293893495	-1.92873258829959	3.718591414975016e-05	-0.3718219555833518	-0.003718591414975016	0.1745379876796715	-0.4215885947046843	0.6735537190082644
2493.194580078125	0.3071336021469338	-9.720693468639158	-2.237786738231125	-0.3513288722502733	-0.7619610717281925	-1.098996832943684	0.1745379876796715	-0.4215885947046843	0.6735537190082644
2497.100830078125	0.169082860885413	-9.77199654164705	-1.969428696180434	-0.3513288722502733	-0.7619610717281925	-1.098996832943684	0.1745379876796715	-0.415478615071283	0.6694214876033058
2501.007080078125	0.1621382904811438	-9.700908619411098	-2.071276349371458	-1.075965392023534	-1.4982114530946	-1.099112971559616	0.1745379876796715	-0.415478615071283	0.6694214876033058
2504.913330078125	0.07134942797590929	-9.770263684954458	-2.04498093253031	-0.717335051958456	-0.7509263316741656	-0.7302629200964272	0.1745379876796715	-0.415478615071283	0.6694214876033058
2508.819580078125	0.2633416427386812	-9.701519535514494	-2.111388091289372	-0.3587047118933778	-0.003641210253730994	-0.3614128686332386	0.1642710472279261	-0.415478615071283	0.6570247933884298
2512.725830078125	-0.06440801204377464	-9.807491923894155	-2.186399598540846	-0.36239263171493	0.3755187204834998	0.007379113521984299	0.1642710472279261	-0.415478615071283	0.6570247933884298
2516.632080078125	0.1081416137175375	-9.751700878231329	-1.938053790584584	-0.7174094237867555	-0.007282420507461989	-0.7228257372664771	0.1642710472279261	-0.415478615071283	0.6570247933884298
2520.538330078125	0.07975215312438635	-9.550880137156447	-1.991738437479545	-0.7247108916015605	0.007393529800295976	0.007321044214018567	0.1642710472279261	-0.415478615071283	0.6570247933884298
2524.444580078125	0.1259375682647486	-9.552613519594399	-1.864585608824951	-1.083266859838339	-1.483535502786842	-0.3689661900791201	0.1642710472279261	-0.415478615071283	0.6570247933884298
2528.350830078125	0.005475375007590442	-9.968229628747546	-2.182512500253015	-1.086843221917442	-2.219841438799667	-0.01132998216882224	0.1642710472279261	-0.415478615071283	0.6570247933884298
2532.257080078125	0.2246173428146251	-9.55404039248994	-1.820578093820836	-1.08315530209589	-2.599001369536898	-0.3801219643240451	0.1642710472279261	-0.415478615071283	0.6570247933884298
2536.163330078125	0.05698317325701614	-10.0115754406469	-1.899439108567204	-0.365820250137434	-1.848075037862732	0.3501409557723821	0.1848049281314169	-0.4215885947046843	0.6694214876033058
2540.069580078125	0.3760911516268008	-9.755063860974001	-1.86970505422669	-0.3695081699589862	-1.468915107125501	0.7189329379276049	0.1848049281314169	-0.4215885947046843	0.6694214876033058
2543.975830078125	0.2734604007283676	-9.854914470431162	-1.782013357612254	-1.079541754102638	-2.234517389107425	-0.7414767636493179	0.1848049281314169	-0.4215885947046843	0.6694214876033058
2547.882080078125	0.3669084832430498	-9.664699590418081	-1.89694944143499	-0.003539176164953228	-1.108127891596177	0.3539176164953228	0.1601642710472279	-0.4114052953156823	0.6735537190082644
2551.788330078125	0.2237609036300877	-9.614317307826273	-1.792030121002922	-0.003501990250803478	-1.479949847179528	0.3501990250803478	0.1601642710472279	-0.4114052953156823	0.6735537190082644
2555.694580078125	0.3538197897386599	-9.705598267984501	-1.793992991288662	0.003762291649851729	-1.122803841903934	-0.3762291649851729	0.1601642710472279	-0.4114052953156823	0.6735537190082644
2559.600830078125	0.3364449572214148	-9.764549463831743	-1.881498574047159	-0.7136843180510536	-0.7582643068280446	-1.095336310836675	0.1601642710472279	-0.4114052953156823	0.6735537190082644
2563.507080078125	0.2264942537346979	-9.753433524625782	-1.883141791156595	0.003576362079102979	0.7363059360128246	-0.3576362079102978	0.1786447638603696	-0.4256619144602851	0.6694214876033058
2567.413330078125	0.1521788333342534	-9.794128843888592	-1.739294444475113	0.3695081699589862	1.468915107125501	-0.7189329379276049	0.1786447638603696	-0.4256619144602851	0.6694214876033058
2571.319580078125	0.2789886131442122	-9.753127015083372	-1.966287104807074	-0.3442505199203669	1.45429471146416	-1.80683206593433	0.1786447638603696	-0.4256619144602851	0.6694214876033058
2575.225830078125	0.1094680692501268	-9.864605324275793	-1.648935641670892	-0.3478268819994699	0.7179887754513357	-1.449195858024032	0.1806981519507187	-0.4338085539714867	0.6714876033057852
2579.132080078125	-0.1027119785558984	-9.729876873066408	-1.909600714803386	0.369545355873136	1.097093151542149	-0.7226515293425799	0.1806981519507187	-0.4338085539714867	0.6714876033057852
2583.038330078125	0.03469840486230334	-9.532114182427858	-1.823280162076778	0.3695081699589862	1.468915107125501	-0.7189329379276049	0.1806981519507187	-0.4338085539714867	0.6714876033057852
2586.944580078125	-0.2414582809230932	-9.668071510831801	-1.951390635896894	-0.3514404299927226	0.3535047950218628	-1.087841058698759	0.1806981519507187	-0.4338085539714867	0.6714876033057852
2590.850830078125	-0.01814136924594711	-9.512532376056189	-1.728621025135097	-0.7174466097009052	0.3645395350758898	-0.7191071458515021	0.1806981519507187	-0.4338085539714867	0.6714876033057852
2594.757080078125	-0.1329199923346328	-9.789644130854864	-1.902666922178909	-0.3587047118933778	-0.003641210253730994	-0.3614128686332386	0.1806981519507187	-0.4338085539714867	0.6714876033057852
2598.663330078125	-0.07606457519906692	-9.821260879314364	-1.797847493364436	-0.3549424202435261	-1.126445052157665	-0.7376420336184115	0.1806981519507187	-0.4338085539714867	0.6714876033057852
2602.569580078125	-0.04976731824917335	-9.819424766233899	-2.007756058360889	0.3624298176290798	-0.7473406760668516	-0.01109770493695932	0.1930184804928131	-0.4236252545824847	0.6818181818181819
2606.475830078125	0.1987199152077891	-9.752413894082814	-1.957330506926301	0.007487397385553709	-1.873785728224517	-0.7487397385553708	0.1930184804928131	-0.4236252545824847	0.6818181818181819
2610.382080078125	-0.05248568461114429	-9.690303704690937	-1.917143846295191	-0.717186308301857	-2.238214154007573	-0.7451372857563272	0.1930184804928131	-0.4236252545824847	0.6818181818181819
2614.288330078125	0.005961952334348797	-9.731405635411894	-1.86539841114496	-0.3548680484152266	-1.870088963324369	-0.7450792164483615	0.1663244353182751	-0.4175152749490835	0.6611570247933884
2618.194580078125	0.2528064944272307	-9.761592566801863	-2.093549814241022	-0.362243888058331	-1.111769101849907	-0.007495252137915762	0.1663244353182751	-0.4175152749490835	0.6611570247933884
2622.100830078125	-0.01689535275278956	-9.712129497390068	-1.770154908240349	7.437182829950031e-05	-0.7436439111667036	-0.007437182829950031	0.1663244353182751	-0.4175152749490835	0.6611570247933884
2626.007080078125	0.3022914874203594	-9.78892575240075	-2.409716247345314	0.358816269635827	-1.111824656496325	0.3502570943883135	0.1663244353182751	-0.4175152749490835	0.6611570247933884
2629.913330078125	0.0185088652496252	-9.960682133569287	-1.95029550832084	0.3624298176290798	-0.7473406760668516	-0.01109770493695932	0.1745379876796715	-0.4236252545824847	0.6735537190082644
2633.819580078125	0.201032931900467	-9.821666018685514	-2.034431063348898	0.7320867312446651	-0.7657133912747575	-0.7449050085244643	0.1745379876796715	-0.4236252545824847	0.6735537190082644
2637.725830078125	0.133537480254976	-9.780156214717557	-2.117916008499199	3.718591414975016e-05	-0.3718219555833518	-0.003718591414975016	0.1745379876796715	-0.4236252545824847	0.6735537190082644
2641.632080078125	0.0221901342306755	-9.679491856598748	-2.07300447435585	-0.003613547993252729	-0.3644839804294728	0.3613547993252729	0.1704312114989733	-0.4012219959266802	0.6590909090909091
2645.538330078125	0.1148409239133435	-9.799534767934686	-2.161364130444783	7.437182829950031e-05	-0.7436439111667036	-0.007437182829950031	0.1704312114989733	-0.4012219959266802	0.6590909090909091
2649.444580078125	0.2606524552439551	-9.802389039471123	-2.021748508131835	-0.3585559682367788	-1.490929032587138	-0.3762872342931387	0.1704312114989733	-0.4012219959266802	0.6590909090909091
2653.350830078125	0.1560493706433783	-9.779544036825307	-2.201645688112608	-0.3512173145078241	-1.877426938478248	-1.110152607188609	0.1704312114989733	-0.4012219959266802	0.6590909090909091
2657.257080078125	0.04839748872473366	-9.617684811979004	-2.279916290824455	0.3661549233647818	-1.498322562387434	-0.3836082785071572	0.1704312114989733	-0.4012219959266802	0.6590909090909091
2661.163330078125	0.2231694401048547	-9.781175214366097	-2.105648003495155	0.007450211471403958	-1.501963772641165	-0.7450211471403958	0.1704312114989733	-0.4012219959266802	0.6590909090909091
2665.069580078125	0.2554049908480878	-9.810752386292453	-2.180166361602924	-0.3585931541509285	-1.119107077003786	-0.3725686428781636	0.1704312114989733	-0.4012219959266802	0.6590909090909091
2668.975830078125	0.09339524510642795	-9.879802204082257	-2.113174836880932	-1.079690497759237	-0.7472295667740175	-0.7266023979894179	0.162217659137577	-0.415478615071283	0.6652892561983471
2672.882080078125	0.1988650209259795	-9.779033643233934	-2.295500697532651	-0.717335051958456	-0.7509263316741656	-0.7302629200964272	0.162217659137577	-0.415478615071283	0.6652892561983471
2676.788330078125	0.3983727655493789	-9.741192805805701	-2.279092184979298	0.0001115577424492505	-1.115465866750055	-0.01115577424492505	0.162217659137577	-0.415478615071283	0.6652892561983471
2680.694580078125	0.1376737818414389	-9.662152143871268	-1.922459394714629	-0.358667525979228	-0.3754631658370828	-0.3651314600482136	0.1806981519507187	-0.4236252545824847	0.6859504132231405
2684.600830078125	0.2821233698279472	-9.668780110422297	-2.40411232759824	-0.7246737056874109	-0.3644284257830558	0.003602452799043552	0.1806981519507187	-0.4236252545824847	0.6859504132231405
2688.507080078125	0.2111777142852637	-9.711719205714431	-2.039257142842121	-0.003650733907402479	0.007337975153878983	0.3650733907402479	0.1806981519507187	-0.4236252545824847	0.6859504132231405
2692.413330078125	0.1266977960491814	-9.77903437927743	-2.223259868306046	-0.7210229717800084	-0.3717664009369348	-0.3614709379412043	0.1806981519507187	-0.4236252545824847	0.6859504132231405
2696.319580078125	0.1989257445145701	-9.609014009273622	-2.297524817152337	-0.3660061797081828	0.01103474005402697	0.3687339128472572	0.1806981519507187	-0.395112016293279	0.6756198347107438
2700.225830078125	0.26995499356882	-9.972714552079415	-1.998499785627331	-0.003650733907402479	0.007337975153878983	0.3650733907402479	0.1806981519507187	-0.395112016293279	0.6756198347107438
2704.132080078125	0.3104134645488593	-9.662966313129203	-2.013782151628641	-0.7247108916015605	0.007393529800295976	0.007321044214018567	0.1806981519507187	-0.395112016293279	0.6756198347107438
2708.038330078125	0.2621705449587198	-9.551898190463348	-2.072351498623993	-0.3624298176290798	0.7473406760668516	0.01109770493695932	0.1560574948665298	-0.4114052953156823	0.6694214876033058
2711.944580078125	0.1880798806978639	-9.742520838574359	-1.935996023262129	-0.3587790837216773	0.7400027009129726	-0.3539756858032885	0.1560574948665298	-0.4114052953156823	0.6694214876033058
2715.850830078125	0.2671467247510136	-9.783622558997171	-1.904890825033786	-0.362541375371529	1.862806542816907	0.02225347918188436	0.1560574948665298	-0.4114052953156823	0.6694214876033058
2719.757080078125	0.02647627324353077	-9.661439338317926	-1.882542441451025	0.3623182598866305	0.3681251906832038	5.806930796573191e-05	0.1560574948665298	-0.4114052953156823	0.6694214876033058
2723.663330078125	-0.02227767083241001	-9.630536446902481	-1.924077638919667	-0.3587790837216773	0.7400027009129726	-0.3539756858032885	0.1560574948665298	-0.4114052953156823	0.6694214876033058
2727.569580078125	0.079555787234009	-9.840943628794337	-1.9851929078003	-0.3514032440785728	-0.01831716056148896	-1.091559650113734	0.1560574948665298	-0.4114052953156823	0.6694214876033058
2731.475830078125	-0.06944018371645715	-9.819118992734987	-2.018660542784763	-1.076002577937684	-1.126389497511249	-1.095394380144641	0.1560574948665298	-0.4114052953156823	0.6694214876033058
2735.382080078125	0.1649520796251856	-9.75333216092119	-1.831735987506187	0.007413025557254208	-1.130141817057813	-0.7413025557254208	0.1724845995893224	-0.415478615071283	0.6714876033057852
2739.288330078125	0.08956492731701893	-9.85104067350083	-1.985497577233964	-0.7209114140375591	-1.48723226768699	-0.3726267121861294	0.1724845995893224	-0.415478615071283	0.6714876033057852
2743.194580078125	0.1887107751247791	-9.742316849376323	-1.957025837492636	-0.7136099462227541	-1.501908217994748	-1.102773493666625	0.1724845995893224	-0.415478615071283	0.6714876033057852
2747.100830078125	0.08858940680940128	-9.621356091798294	-1.952980226980042	-0.3512916863361236	-1.133783027311544	-1.102715424358659	0.1930184804928131	-0.415478615071283	0.6652892561983471
2751.007080078125	0.2714580995409455	-9.712228547815092	-2.048603318031515	-0.3549424202435261	-1.126445052157665	-0.7376420336184115	0.1930184804928131	-0.415478615071283	0.6652892561983471
2754.913330078125	0.03378124208917534	-9.762410731724501	-1.792708069639178	-0.358667525979228	-0.3754631658370828	-0.3651314600482136	0.1930184804928131	-0.415478615071283	0.6652892561983471
2758.819580078125	0.3104379117079022	-9.819625075214445	-2.347930390263406	-0.3477525101711704	-0.02565513571536794	-1.456633040853982	0.1930184804928131	-0.415478615071283	0.6652892561983471
2762.725830078125	0.06649784983293126	-9.691832361887354	-1.883261661097709	-7.437182829950031e-05	0.7436439111667036	0.007437182829950031	0.1786447638603696	-0.3930753564154786	0.6818181818181819
2766.632080078125	-0.002245195541784541	-9.87072594655851	-1.925160148607182	0.3622810739724808	0.7399471462665556	0.003776660722940747	0.1786447638603696	-0.3930753564154786	0.6818181818181819
2770.538330078125	0.009987847396101538	-9.680103929341927	-1.999594913203385	-3.718591414975016e-05	0.3718219555833518	0.003718591414975016	0.1786447638603696	-0.3930753564154786	0.6818181818181819
2774.444580078125	0.03687577925319449	-9.721410164708134	-1.895859308439816	-0.3587047118933778	-0.003641210253730994	-0.3614128686332386	0.1765913757700205	-0.415478615071283	0.6673553719008265
2778.350830078125	0.05512203469761624	-9.612177208781103	-1.837401156587208	-0.3587047118933778	-0.003641210253730994	-0.3614128686332386	0.1765913757700205	-0.415478615071283	0.6673553719008265
2782.257080078125	-0.01097756302832481	-9.870216078712492	-1.967414565722507	-0.36239263171493	0.3755187204834998	0.007379113521984299	0.1765913757700205	-0.415478615071283	0.6673553719008265
2786.163330078125	-0.01049571740976831	-9.560060281962492	-1.983476086341057	-0.3587047118933778	-0.003641210253730994	-0.3614128686332386	0.1765913757700205	-0.415478615071283	0.6673553719008265
2790.069580078125	-0.0003217561577267641	-9.680104034490999	-1.989274794742441	0.01095220172220744	-0.02201392546163695	-1.095220172220744	0.1765913757700205	-0.415478615071283	0.6673553719008265
2793.975830078125	-0.006405155669256756	-9.62207100033306	-1.786494811024775	0.3587047118933778	0.003641210253730994	0.3614128686332386	0.1765913757700205	-0.415478615071283	0.6673553719008265
2797.882080078125	0.06438908521096715	-9.899180862448453	-2.146302840365572	-1.079616125930937	-1.490873477940721	-0.7340395808193679	0.1765913757700205	-0.415478615071283	0.6673553719008265
2801.788330078125	0.003688366543353086	-9.828807428150983	-2.122945551445103	0.3624298176290798	-0.7473406760668516	-0.01109770493695932	0.1848049281314169	-0.4175152749490835	0.6590909090909091
