Time Stamp	Accelerometer X	Accelerometer Y	Accelerometer Z	Gyroscope X	Gyroscope Y	Gyroscope Z	Magnetometer X	Magnetometer Y	Magnetometer Z
1229.522705078125	-0.920169773690283	-9.694188226826526	1.338992456342763	-33.94838789780047	1.60730649317707	-10.95831166922891	0.1540041067761807	-0.395112016293279	0.7024793388429752
1233.428955078125	-0.2308040512885624	-9.897959976583302	-1.973198290381252	-14.82721866291617	-1.394424262658372	-2.785380085194502	0.1581108829568789	-0.395112016293279	0.7024793388429752
1237.335205078125	0.0276718181825351	-9.967719445454314	-2.25572727275117	-11.16231618267415	-13.41041221701978	-6.956787529686522	0.1581108829568789	-0.395112016293279	0.7024793388429752
1241.241455078125	-0.2442728586851687	-9.825648224308205	-2.190904710494377	-26.04518831614095	-5.771039918369521	-4.176820559817906	0.1581108829568789	-0.395112016293279	0.7024793388429752
1245.147705078125	-0.01293570160586291	-9.967515876852563	-2.235476613137903	-47.4506815895067	4.16580588198351	-1.308652643533273	0.1581108829568789	-0.395112016293279	0.7024793388429752
1249.053955078125	0.07391795691148788	-9.799433193931954	-2.130598563716263	-63.76848412828947	12.9060792063689	0.03681862604731367	0.1724845995893224	-0.3930753564154786	0.6942148760330579
1252.960205078125	0.04121633291037119	-9.880006719025648	-2.040544430345706	1.094814036186943	-4.487629712008424	-0.7857514447812237	0.1724845995893224	-0.3930753564154786	0.6942148760330579
1256.866455078125	0.1189472580145279	-9.661540386575304	-1.964908600484264	7.976102702065115	-6.409640047874115	-0.5088209311490274	0.1724845995893224	-0.3930753564154786	0.6942148760330579
1260.772705078125	0.0803081288381054	-9.500700371675679	-2.01027096127018	7.244090342648748	-6.387570567766061	0.2286468945454869	0.1581108829568789	-0.3991853360488798	0.6859504132231405
1264.678955078125	-0.04888091157935746	-9.779138161410659	-2.037302947354751	5.07357121583732	-6.000905997935701	-0.1107447721377302	0.1581108829568789	-0.3991853360488798	0.6859504132231405
1268.585205078125	-0.1845476605251723	-9.66633707690314	-2.181744649160923	2.899252611461889	-4.119615630618054	-0.07018868242079944	0.1581108829568789	-0.3991853360488798	0.6859504132231405
1272.491455078125	0.2108922345570845	-9.731811510826542	-2.029741151902817	0.7249711930006087	-2.610147218883759	-0.03335118411884368	0.1581108829568789	-0.3991853360488798	0.6859504132231405
1276.397705078125	0.1099743620277262	-9.711108289611033	-1.999145400924208	-0.7354771637530193	-1.829702322654826	1.083948259359887	0.1581108829568789	-0.3991853360488798	0.6859504132231405
1280.303955078125	-0.114649289731168	-9.837069937013078	-2.178357008961067	-1.811740043089752	-0.3533381310826119	0.0145840191200714	0.1581108829568789	-0.3991853360488798	0.6859504132231405
1284.210205078125	0.0644348250569185	-9.719166073231596	-2.147827501897283	-2.53280020078391	-0.3532825764361948	-0.3431683274061579	0.1581108829568789	-0.3991853360488798	0.6859504132231405
1288.116455078125	0.1632951931364995	-9.630534554219199	-2.109839771216651	-2.174132674804682	0.02218058940088793	0.0219631326420557	0.1868583162217659	-0.3890020366598778	0.6921487603305785
1292.022705078125	0.1187217132569057	-9.7216133127136	-1.957390441896858	-2.536339376948863	-1.461410468032371	0.01074928908916492	0.1868583162217659	-0.3890020366598778	0.6921487603305785
1295.928955078125	0.1646066649264495	-9.733443845007114	-1.820222164214985	-2.162994543511725	-1.858943113977508	-1.091849996653563	0.1868583162217659	-0.3890020366598778	0.6921487603305785
1299.835205078125	0.3803418028281421	-9.853689483752234	-2.011393427604733	-1.441897199903418	-2.230820624207277	-0.7378162415423086	0.1683778234086242	-0.395112016293279	0.7024793388429752
1303.741455078125	0.3414022101809012	-9.702946618708175	-2.04674033936337	-0.3584815964084793	-2.234572943753842	-0.3837244171230887	0.1683778234086242	-0.395112016293279	0.7024793388429752
1307.647705078125	0.2616145692450008	-9.602077955944118	-2.053818974833358	0.0001487436565990006	-1.487287822333407	-0.01487436565990006	0.1683778234086242	-0.395112016293279	0.7024793388429752
1311.553955078125	-0.03174581894434014	-9.56026448145867	-1.941806035188662	-0.7207998562951099	-2.602698134437046	-0.3837824864310544	0.1683778234086242	-0.395112016293279	0.7024793388429752
1315.460205078125	0.2910110950671154	-9.632573079261634	-2.033703168903845	-0.3549052343293763	-1.498267007741017	-0.7413606250333865	0.1663244353182751	-0.395112016293279	0.6900826446280992
1319.366455078125	0.1211104372808135	-9.630840958612538	-2.037014576027116	3.718591414975016e-05	-0.3718219555833518	-0.003718591414975016	0.1663244353182751	-0.395112016293279	0.6900826446280992
1323.272705078125	0.257092633440086	-9.743540048521041	-1.903087781336197	-0.3623182598866305	-0.3681251906832038	-5.806930796573191e-05	0.1663244353182751	-0.395112016293279	0.6900826446280992
1327.178955078125	0.2483602659535457	-9.743030180675021	-1.945342198451522	-0.3623554458007803	0.003696764900147988	0.003660522107009284	0.1704312114989733	-0.4114052953156823	0.6921487603305785
1331.085205078125	0.1546882159173087	-9.573317476853404	-1.822940530576955	-0.7210973436083078	0.3718775102297688	-0.3540337551112543	0.1704312114989733	-0.4114052953156823	0.6921487603305785
1334.991455078125	0.2501322906751438	-9.872457226015037	-2.004409689171459	-0.0001487436565990006	1.487287822333407	0.01487436565990006	0.1704312114989733	-0.4114052953156823	0.6921487603305785
1338.897705078125	0.2856626875629416	-9.854302397687983	-1.855422918764719	-1.083489975323238	0.7473962307132686	-0.34665464158927	0.1704312114989733	-0.4114052953156823	0.6921487603305785
1342.803955078125	0.2293033111705379	-9.732525262721527	-1.976777039017929	-0.00383666347815123	1.866447753070638	0.3836663478151229	0.1704312114989733	-0.4114052953156823	0.6921487603305785
1346.710205078125	0.08875895968663475	-9.804634603034655	-1.625298656221158	-0.3588906414641265	1.855468567663028	-0.3428199115583635	0.1704312114989733	-0.4114052953156823	0.6921487603305785
1350.616455078125	-0.05418279061954622	-9.610852435633653	-1.860573646015126	-1.079876427329985	1.111880211142741	-0.7080094409145429	0.1704312114989733	-0.4114052953156823	0.6921487603305785
1354.522705078125	-0.01297513250754512	-9.800861959510772	-1.900828916415163	-0.7175209815292047	1.108183446242593	-0.7116699630215522	0.1724845995893224	-0.3930753564154786	0.7004132231404959
1358.428955078125	0.05893736874438602	-9.630943584105983	-1.964578958146201	0.3621695162300315	1.855413013016611	0.0149324349678658	0.1724845995893224	-0.3930753564154786	0.7004132231404959
1362.335205078125	-0.0714511597022494	-9.319769208303727	-1.951628009925021	-0.3588534555499768	1.483646612079676	-0.3465385029733385	0.1724845995893224	-0.3930753564154786	0.7004132231404959
1366.241455078125	-0.0853521297812926	-9.660930521962619	-1.821595673956915	0.003390432508354228	2.595415713929583	-0.3390432508354227	0.1786447638603696	-0.4012219959266802	0.6942148760330579
1370.147705078125	0.1858260103577093	-9.923249589984341	-1.860867011923642	-0.0003346732273477514	3.346397600250166	0.03346732273477514	0.1786447638603696	-0.4012219959266802	0.6942148760330579
1374.053955078125	0.3750549075305925	-9.695398913231775	-1.835163584353082	0.003390432508354228	2.595415713929583	-0.3390432508354227	0.1786447638603696	-0.4012219959266802	0.6942148760330579
1377.960205078125	-0.08972422815981505	-9.902344167105008	-1.675859061339499	-0.3515891736493216	1.84079261735527	-1.072966693038859	0.1786447638603696	-0.4012219959266802	0.6942148760330579
1381.866455078125	0.157151070036379	-9.742521154021572	-1.905035667879298	-0.0002974873131980013	2.974575644666814	0.02974873131980012	0.1581108829568789	-0.4073319755600814	0.6818181818181819
1385.772705078125	0.1271536172726276	-9.732220330415185	-1.905120575754254	0.3620579584875823	2.970878879766667	0.02608820921279084	0.1581108829568789	-0.4073319755600814	0.6818181818181819
1389.678955078125	0.1212303072219274	-9.71080220066491	-2.041010240730912	-0.358965013292426	2.599112478829731	-0.3353827287284135	0.1581108829568789	-0.4073319755600814	0.6818181818181819
1393.585205078125	0.04000028390249211	-9.700399908204862	-2.000009463416404	-0.3590021992065758	2.970934434413083	-0.3316641373134385	0.1642710472279261	-0.4012219959266802	0.6942148760330579
1397.491455078125	-0.06894335435526142	-9.518958351241535	-2.035221521491287	-0.0003718591414975016	3.718219555833518	0.03718591414975016	0.1642710472279261	-0.4012219959266802	0.6942148760330579
1401.397705078125	-0.1531180774123234	-9.649508178363318	-1.896064086255886	-0.7177440970141032	3.339115179742704	-0.689358414531702	0.1642710472279261	-0.4012219959266802	0.6942148760330579
1405.303955078125	-0.2268081237120882	-9.826667960000242	-2.106395876263727	-0.3553886512133231	3.335418414842556	-0.6930189366387113	0.1642710472279261	-0.4012219959266802	0.6942148760330579
1409.210205078125	0.01164000217658576	-9.729569732629571	-2.054666739219526	-1.072686517257629	2.212670127585039	-1.427000448150114	0.1642710472279261	-0.4012219959266802	0.6942148760330579
1413.116455078125	-0.09132039105991055	-9.609526926442705	-1.955986964669649	-0.358965013292426	2.599112478829731	-0.3353827287284135	0.1642710472279261	-0.4012219959266802	0.6942148760330579
1417.022705078125	0.01224092911822251	-9.709375432918442	-2.074697637274084	-1.07253777360103	0.7253823052516316	-1.441874813810013	0.1642710472279261	-0.4012219959266802	0.6942148760330579
1420.928955078125	0.01251615681196428	-9.752619775964131	-1.750538560398809	-0.3514776159068723	0.7253267506052147	-1.084122467283784	0.1745379876796715	-0.4114052953156823	0.6921487603305785
1424.835205078125	-0.1118694111625728	-9.586171109609232	-2.271019627914239	-0.7137215039652034	-0.3864423512446928	-1.0916177194217	0.1745379876796715	-0.4114052953156823	0.6921487603305785
1428.741455078125	0.03280493296352405	-9.742726405008462	-1.760164432117468	-0.3477153242570206	-0.3974770912987198	-1.460351632268957	0.1745379876796715	-0.4114052953156823	0.6921487603305785
1432.647705078125	-0.009699213195787853	-9.459802745599973	-2.010026226807072	-0.3550167920718256	-0.3828011409909618	-0.7302048507884614	0.1724845995893224	-0.4012219959266802	0.7045454545454546
1436.553955078125	-0.007101505392964444	-9.718962820077058	-2.096616486901186	-1.08717789514479	1.126556161450499	0.0221373405659529	0.1724845995893224	-0.4012219959266802	0.7045454545454546
1440.460205078125	0.1244249988762193	-9.666435917030023	-2.480833295873976	-0.7209857858658586	-0.7435883565202867	-0.3651895293561793	0.1724845995893224	-0.4012219959266802	0.7045454545454546
1444.366455078125	-0.2274989531095603	-9.786891328172091	-2.083368229681322	0.003762291649851729	-1.122803841903934	-0.3762291649851729	0.1724845995893224	-0.4012219959266802	0.7045454545454546
1448.272705078125	0.1253602998641211	-9.939466836377267	-2.17867666213737	-0.3622067021441813	-1.483591057433259	-0.01121384355289078	0.1745379876796715	-0.3890020366598778	0.6756198347107438
1452.178955078125	0.3406064945849543	-9.593203900084198	-2.020216486165142	-0.3621323303158818	-2.227234968599963	-0.01865102638284081	0.1745379876796715	-0.3890020366598778	0.6756198347107438
1456.085205078125	0.2369994345608699	-9.67337018282532	-1.899981152028996	-1.80786619369745	-2.591607839736602	-0.3728009201100265	0.1745379876796715	-0.3890020366598778	0.6756198347107438
1459.991455078125	0.1452594987070608	-9.669699428751384	-2.175316623568691	0.00379947756400148	-1.494625797487286	-0.3799477564001479	0.1745379876796715	-0.405295315682281	0.6818181818181819
1463.897705078125	0.2554105111743233	-9.674083934720304	-1.847017039144107	-0.7208370422092596	-2.230876178853694	-0.3800638950160794	0.1745379876796715	-0.405295315682281	0.6818181818181819
1467.803955078125	0.401427871811716	-9.533538321447546	-2.047595727057196	-1.44554793381082	-2.223482649053398	-0.3727428508020608	0.1745379876796715	-0.405295315682281	0.6818181818181819
1471.710205078125	0.1286101947807682	-9.861749370354218	-1.953673159358938	-1.434558546174463	-2.617318530098387	-1.471681614437779	0.1745379876796715	-0.405295315682281	0.6818181818181819
1475.616455078125	0.1771385940990867	-9.952725187907962	-1.90461980330289	-0.7209114140375591	-1.48723226768699	-0.3726267121861294	0.1745379876796715	-0.405295315682281	0.6818181818181819
1479.522705078125	0.2598117884200906	-9.662660855077505	-1.993726280669684	-0.3586303400650783	-0.7472851214204346	-0.3688500514631886	0.1745379876796715	-0.405295315682281	0.6818181818181819
1483.428955078125	0.3139583026100892	-9.711820148822737	-2.131943420336303	-0.717335051958456	-0.7509263316741656	-0.7302629200964272	0.1745379876796715	-0.405295315682281	0.6818181818181819
1487.335205078125	0.3485123903722356	-9.673980993779645	-1.950413012407853	-0.3514032440785728	-0.01831716056148896	-1.091559650113734	0.1724845995893224	-0.3910386965376782	0.6900826446280992
1491.241455078125	0.1960315163310966	-9.643283143052944	-1.867717211036552	0.01113813129295619	-1.881123703378396	-1.113813129295619	0.1724845995893224	-0.3910386965376782	0.6900826446280992
1495.147705078125	0.1259068121614364	-9.742623464067803	-1.863560405381214	-1.076188507508433	0.7327202804055106	-1.076801423069766	0.1724845995893224	-0.3910386965376782	0.6900826446280992
1499.053955078125	0.2236102775856617	-9.724366010247303	-1.787009252855389	-0.0001115577424492505	1.115465866750055	0.01115577424492505	0.1560574948665298	-0.3910386965376782	0.6900826446280992
1502.960205078125	0.09548902598575283	-9.662458548264608	-1.849634199525094	-0.0001115577424492505	1.115465866750055	0.01115577424492505	0.1560574948665298	-0.3910386965376782	0.6900826446280992
1506.866455078125	-0.106873515919438	-9.901222436813951	-1.770882802685402	-0.003762291649851729	1.122803841903934	0.3762291649851729	0.1560574948665298	-0.3910386965376782	0.6900826446280992
1510.772705078125	0.1782663178871977	-9.652360557216472	-1.942210596239922	-0.3624298176290798	0.7473406760668516	0.01109770493695932	0.1560574948665298	-0.3910386965376782	0.6900826446280992
1514.678955078125	-0.01877857261713147	-9.859405071812873	-2.040714246095618	0.003501990250803478	1.479949847179528	-0.3501990250803478	0.1745379876796715	-0.4012219959266802	0.7004132231404959
1518.585205078125	0.0772128030560526	-9.751701193678542	-1.907093435201753	-0.3660061797081828	0.01103474005402697	0.3687339128472572	0.1745379876796715	-0.4012219959266802	0.7004132231404959
1522.491455078125	0.1349853829647464	-9.553021392841398	-1.83284609882488	0.3623554458007803	-0.003696764900147988	-0.003660522107009284	0.1745379876796715	-0.4012219959266802	0.7004132231404959
1526.397705078125	-0.1429890673881996	-9.739566465122184	-1.900364420393347	-0.007338653728954708	0.3864979058911098	0.7338653728954707	0.1745379876796715	-0.3930753564154786	0.6942148760330579
1530.303955078125	0.2288230427880487	-9.622680549498533	-1.960768092934955	-1.087066337402341	0.01109029470044396	0.01098156632102785	0.1745379876796715	-0.3930753564154786	0.6942148760330579
1534.210205078125	0.01552000290211436	-9.861648532394982	-1.850666763403812	-1.083341231666639	-0.7398915916201386	-0.36152900724917	0.1745379876796715	-0.3930753564154786	0.6942148760330579
1538.116455078125	0.03977473914486992	-9.76047283434316	-1.992491304828997	-0.3622810739724808	-0.7399471462665556	-0.003776660722940747	0.1642710472279261	-0.4134419551934826	0.6838842975206612
1542.022705078125	0.1174898918883538	-9.742011601622766	-1.916329729611792	-0.003613547993252729	-0.3644839804294728	0.3613547993252729	0.1642710472279261	-0.4134419551934826	0.6838842975206612
1545.928955078125	0.2956568439033123	-9.854404287137928	-1.855228130110409	-0.3585931541509285	-1.119107077003786	-0.3725686428781636	0.1642710472279261	-0.4134419551934826	0.6838842975206612
1549.835205078125	0.04218317861961876	-9.753027438912989	-1.739439287320625	-0.7136843180510536	-0.7582643068280446	-1.095336310836675	0.1642710472279261	-0.4134419551934826	0.6838842975206612
1553.741455078125	0.1976836711115808	-9.692748946340588	-1.922789037052693	-0.3587418978075275	0.3681807453296208	-0.3576942772182636	0.1786447638603696	-0.405295315682281	0.6900826446280992
1557.647705078125	0.1304437317089905	-9.611156526747427	-2.014791056966349	-0.3550911639001251	0.3608427701757418	-0.7227676679585114	0.1786447638603696	-0.405295315682281	0.6900826446280992
1561.553955078125	0.1139994684714453	-9.869806838527566	-2.133315615714844	0.003576362079102979	0.7363059360128246	-0.3576362079102978	0.1786447638603696	-0.405295315682281	0.6900826446280992
1565.460205078125	0.03619993359836157	-9.691628688136531	-1.873331119945385	0.3658574360515838	1.47625308227938	-0.3538595471873571	0.1642710472279261	-0.4134419551934826	0.6983471074380165
1569.366455078125	0.1837692945259657	-9.60391459476994	-1.792309817532188	0.3657830642232843	2.219896993446084	-0.346422364357407	0.1642710472279261	-0.4134419551934826	0.6983471074380165
1573.272705078125	0.07090464740493407	-9.543740830672403	-1.696821580164469	0.3620579584875823	2.970878879766667	0.02608820921279084	0.1642710472279261	-0.4134419551934826	0.6983471074380165
1577.178955078125	-0.04833518790007581	-9.792295044087691	-1.722160403330807	0.365820250137434	1.848075037862732	-0.3501409557723821	0.1642710472279261	-0.4134419551934826	0.6983471074380165
1581.085205078125	0.07698725829843041	-9.811774119816841	-1.899575276614347	0.003464804336653728	1.85177180276288	-0.3464804336653728	0.1601642710472279	-0.405295315682281	0.6962809917355373
1584.991455078125	0.007509220916358373	-9.71090535190371	-1.916974030545279	1.086768850089143	2.96348534996637	0.01876716499877227	0.1601642710472279	-0.405295315682281	0.6962809917355373
1588.897705078125	0.2671175458837688	-9.55363199349758	-1.903918196125625	0.3621323303158818	2.227234968599963	0.01865102638284081	0.1601642710472279	-0.405295315682281	0.6962809917355373
1592.803955078125	-0.256334771509754	-9.779548242788154	-1.788840949674866	-0.0002231154848985009	2.230931733500111	0.02231154848985009	0.1848049281314169	-0.4032586558044806	0.6797520661157025
1596.710205078125	0.1443178887748898	-9.743337215962786	-1.810596292496325	0.3622067021441813	1.483591057433259	0.01121384355289078	0.1848049281314169	-0.4032586558044806	0.6797520661157025
1600.616455078125	0.1166784039317341	-9.83227398272874	-1.889280131057802	0.7209485999517089	1.115410312103638	0.3689081207711543	0.1848049281314169	-0.4032586558044806	0.6797520661157025
1604.522705078125	0.1880806693158975	-9.532520583587861	-1.936022310529917	0.7172606801301565	1.494570242840869	0.7377001029263772	0.1498973305954825	-0.3971486761710794	0.6880165289256198
1608.428955078125	-0.1446617262375586	-9.816773958150144	-2.177942458748048	-0.01098938763635719	0.3938358810449887	1.098938763635719	0.1498973305954825	-0.3971486761710794	0.6880165289256198
1612.335205078125	0.1318253905039348	-9.690709790403728	-2.06084635013116	-0.003650733907402479	0.007337975153878983	0.3650733907402479	0.1498973305954825	-0.3971486761710794	0.6880165289256198
1616.241455078125	0.0435900731916397	-9.779239209668036	-2.11966910638799	3.718591414975016e-05	-0.3718219555833518	-0.003718591414975016	0.1498973305954825	-0.3971486761710794	0.6880165289256198
1620.147705078125	-0.01717058044653131	-9.66888515434438	-2.094313985115623	0.0001115577424492505	-1.115465866750055	-0.01115577424492505	0.1642710472279261	-0.3869653767820774	0.6797520661157025
1624.053955078125	0.115832216781634	-9.82921424990727	-2.194407226054468	-0.003576362079102979	-0.7363059360128246	0.3576362079102978	0.1642710472279261	-0.3869653767820774	0.6797520661157025
1627.960205078125	0.1751615286887412	-9.756697772390641	-2.505384289624704	-0.3622810739724808	-0.7399471462665556	-0.003776660722940747	0.1642710472279261	-0.3869653767820774	0.6797520661157025
1631.866455078125	0.2837502888313548	-9.771587406611197	-2.125009627711827	-0.3587418978075275	0.3681807453296208	-0.3576942772182636	0.1663244353182751	-0.3869653767820774	0.7024793388429752
1635.772705078125	0.2473082494966646	-9.883370332662746	-1.910274983222151	-1.072426215858581	-0.3900835614984237	-1.453030588054939	0.1663244353182751	-0.3869653767820774	0.7024793388429752
1639.678955078125	0.00292261843268474	-9.7390550200401	-2.097420614422825	-0.7137586898793531	-0.01462039566134097	-1.087899128006725	0.1663244353182751	-0.3869653767820774	0.7024793388429752
1643.585205078125	0.1341526023212183	-9.979957325249474	-2.138420077373944	-1.072426215858581	-0.3900835614984237	-1.453030588054939	0.1663244353182751	-0.3869653767820774	0.7024793388429752
1647.491455078125	0.08914459390508667	-9.781176581304022	-1.971486463502889	0.007227095986505457	0.7289679608589457	-0.7227095986505457	0.1663244353182751	-0.3869653767820774	0.7024793388429752
1651.397705078125	-0.1469290030842852	-9.567507044330586	-2.102366563857162	-0.7173722378726058	-0.3791043760908138	-0.7265443286814521	0.1663244353182751	-0.3869653767820774	0.7024793388429752
1655.303955078125	-0.3252418494354678	-9.6384948646508	-1.825271685484407	-1.083378417580789	-0.3680696360367868	-0.357810415834195	0.1663244353182751	-0.3869653767820774	0.7024793388429752
1659.210205078125	-0.01368567735585838	-9.677758369011729	-2.210477421471388	-1.08319248801004	-2.227179413953546	-0.3764033729090701	0.162217659137577	-0.3890020366598778	0.7004132231404959
1663.116455078125	-0.1644197624524759	-9.8298290565263	-1.85267458491747	-0.3622067021441813	-1.483591057433259	-0.01121384355289078	0.162217659137577	-0.3890020366598778	0.7004132231404959
1667.022705078125	0.06858611038602064	-9.611157157641854	-1.952870346200688	-0.7317520580173174	-2.580684208975409	0.7114376857896891	0.162217659137577	-0.3890020366598778	0.7004132231404959
1670.928955078125	-0.05101333474233091	-9.619827644900022	-1.966222175255637	-0.7317520580173174	-2.580684208975409	0.7114376857896891	0.1745379876796715	-0.3849287169042769	0.6818181818181819
1674.835205078125	0.312476489324872	-9.635632601784959	-1.749216310829066	-1.090456769910695	-2.58432541922914	0.3500248171564506	0.1745379876796715	-0.3849287169042769	0.6818181818181819
1678.741455078125	0.3170575714823102	-9.744151385220722	-1.901919049410337	-0.01076627215145869	-1.837095852455122	1.076627215145868	0.1745379876796715	-0.3849287169042769	0.6818181818181819
1682.647705078125	0.1506773045981952	-9.634614338179919	-1.689243486606506	-1.094144689732247	-2.205165488491909	0.7188167993116735	0.1745379876796715	-0.3849287169042769	0.6818181818181819
1686.553955078125	0.2385766706281579	-9.67286020983023	-1.952555687605264	-0.01084064397975819	-1.093451941288418	1.084064397975818	0.162217659137577	-0.3890020366598778	0.6797520661157025
1690.460205078125	0.3878880887920817	-9.69458285129056	-1.929602959736055	-0.007227095986505457	-0.7289679608589457	0.7227095986505457	0.162217659137577	-0.3890020366598778	0.6797520661157025
1694.366455078125	0.2025257858381551	-9.624516662578996	-1.750859527938502	-0.7209485999517089	-1.115410312103638	-0.3689081207711543	0.162217659137577	-0.3890020366598778	0.6797520661157025
1698.272705078125	0.3667278897133453	-9.754757982326018	-1.890929657111508	0.7210229717800084	0.3717664009369348	0.3614709379412043	0.1540041067761807	-0.4012219959266802	0.7045454545454546
1702.178955078125	0.1979100044872366	-9.422675765215793	-1.930333482907887	0.003539176164953228	1.108127891596177	-0.3539176164953228	0.1540041067761807	-0.4012219959266802	0.7045454545454546
1706.085205078125	-0.02468216721699063	-9.921313900733495	-1.843927759433646	-0.3551655357284246	1.104486681342445	-0.7153304851285613	0.1540041067761807	-0.4012219959266802	0.7045454545454546
1709.991455078125	0.4038505064110704	-9.746088336260422	-1.79501688036901	-0.3552399075567241	1.848130592509149	-0.7078933022986114	0.1540041067761807	-0.4012219959266802	0.7045454545454546
1713.897705078125	0.01760905207323737	-9.570973073162985	-1.920301735774579	-0.7175209815292047	1.108183446242593	-0.7116699630215522	0.1540041067761807	-0.4012219959266802	0.7045454545454546
1717.803955078125	0.09523272512481852	-9.912541418876311	-1.841090837493951	-0.7175209815292047	1.108183446242593	-0.7116699630215522	0.1540041067761807	-0.4012219959266802	0.7045454545454546
1721.710205078125	0.04599378095818668	-9.698462010823521	-2.199792698606223	-1.434744475745212	-0.7582087521816276	-1.453088657362904	0.1540041067761807	-0.4012219959266802	0.7045454545454546
1725.616455078125	0.03137201399639285	-9.979856382141167	-2.045733799879762	0.007152724158205957	1.472611872025649	-0.7152724158205956	0.1806981519507187	-0.3930753564154786	0.6921487603305785
1729.522705078125	-0.06226849131849838	-9.410133478859649	-1.924383622716721	0.003613547993252729	0.3644839804294728	-0.3613547993252729	0.1806981519507187	-0.3930753564154786	0.6921487603305785
1733.428955078125	-0.3447648774763593	-9.738140643717358	-1.841170750788026	-0.3585931541509285	-1.119107077003786	-0.3725686428781636	0.1806981519507187	-0.3930753564154786	0.6921487603305785
1737.335205078125	0.03740178748163505	-9.651240088714271	-1.913392916054502	-0.362243888058331	-1.111769101849907	-0.007495252137915762	0.1806981519507187	-0.3849287169042769	0.6838842975206612
1741.241455078125	0.04264373155126687	-9.77954519346509	-2.088124385042229	0.3551655357284246	-1.104486681342445	0.7153304851285613	0.1806981519507187	-0.3849287169042769	0.6838842975206612
1745.147705078125	-0.06453734540129225	-9.580867075013085	-1.848755153290259	-0.369545355873136	-1.097093151542149	0.7226515293425799	0.1806981519507187	-0.3849287169042769	0.6838842975206612
1749.053955078125	-0.005148887141661838	-9.758331473509138	-2.161703761944606	-0.369545355873136	-1.097093151542149	0.7226515293425799	0.1806981519507187	-0.3849287169042769	0.6838842975206612
1752.960205078125	0.1867076853193233	-9.809631181746752	-2.223589510644109	-0.3731960897805385	-1.08975517638827	1.087724920082828	0.162217659137577	-0.3849287169042769	0.6838842975206612
1756.866455078125	0.1401224408359036	-9.61136041079639	-2.004081361196786	-0.724487776116662	-2.223538203699815	-0.01499050427583152	0.162217659137577	-0.3849287169042769	0.6838842975206612
1760.772705078125	0.116423680306867	-9.662356343367447	-1.880789343562235	-0.7354399778388695	-2.201524278238178	1.080229667944912	0.162217659137577	-0.3849287169042769	0.6838842975206612
1764.678955078125	0.3762875175171781	-9.465000369336114	-1.876250583905936	-0.007189910072355707	-1.100789916442297	0.7189910072355706	0.1745379876796715	-0.4093686354378818	0.6838842975206612
1768.585205078125	0.07698804691646406	-9.601773864830344	-1.899601563882135	-0.7245621479449615	-1.479894292533111	-0.007553321445881495	0.1745379876796715	-0.4093686354378818	0.6838842975206612
1772.491455078125	0.02814341176665423	-9.720900296862116	-1.938113725555141	-0.365968993794033	-0.3607872155293249	0.3650153214322821	0.1745379876796715	-0.4093686354378818	0.6838842975206612
1776.397705078125	0.2470984770997152	-9.743438159071093	-1.903282569990508	-0.7245993338591113	-1.108072336949759	-0.003834730030906479	0.1745379876796715	-0.4093686354378818	0.6838842975206612
1780.303955078125	0.002877667204767033	-9.709069554270458	-2.095922240158901	-0.3622810739724808	-0.7399471462665556	-0.003776660722940747	0.1745379876796715	-0.4093686354378818	0.6838842975206612
1784.210205078125	0.08573539814564356	-9.612278887932908	-1.857846604854785	-0.7246737056874109	-0.3644284257830558	0.003602452799043552	0.1745379876796715	-0.4093686354378818	0.6838842975206612
1788.116455078125	0.2673572857659965	-9.713554477602326	-1.911909525533217	-0.717335051958456	-0.7509263316741656	-0.7302629200964272	0.1745379876796715	-0.4093686354378818	0.6838842975206612
1792.022705078125	0.231376587980988	-9.64185490321948	-2.045886266032933	-3.718591414975016e-05	0.3718219555833518	0.003718591414975016	0.162217659137577	-0.4073319755600814	0.6942148760330579
1795.928955078125	0.257032698469529	-9.703559427494854	-1.901089948984299	-0.7174466097009052	0.3645395350758898	-0.7191071458515021	0.162217659137577	-0.4073319755600814	0.6942148760330579
1799.835205078125	0.1165743063512931	-9.552307640946415	-1.885810211709769	-1.076151321594283	0.3608983248221588	-1.080520014484741	0.162217659137577	-0.4073319755600814	0.6942148760330579
1803.741455078125	0.1854813842770068	-9.693361019083769	-1.849379475900227	-0.3588906414641265	1.855468567663028	-0.3428199115583635	0.1663244353182751	-0.4175152749490835	0.7086776859504132
1807.647705078125	0.1047016618547823	-9.77281312933362	-1.823388728492743	-0.3588534555499768	1.483646612079676	-0.3465385029733385	0.1663244353182751	-0.4175152749490835	0.7086776859504132
1811.553955078125	0.2618101465173445	-9.522014719292727	-2.060338217244816	-0.3589278273782763	2.22729052324638	-0.3391013201433885	0.1663244353182751	-0.4175152749490835	0.7086776859504132
1815.460205078125	-0.103599173843748	-9.980163732876145	-1.880027538541735	0.007152724158205957	1.472611872025649	-0.7152724158205956	0.1663244353182751	-0.4175152749490835	0.7086776859504132
1819.366455078125	0.1200734045665716	-9.781176265856807	-2.00244681888572	0.3619092148309833	4.458166702100073	0.0409625748726909	0.1663244353182751	-0.3767820773930753	0.6838842975206612
1823.272705078125	-0.1218895918980538	-9.849410968047037	-1.937013603398208	1.083080930267591	3.342645280703601	0.3875591471539951	0.1663244353182751	-0.3767820773930753	0.6838842975206612
1827.178955078125	-0.01674472670836355	-9.602080794969039	-1.775175776387882	0.003353246594204478	2.967237669512935	-0.3353246594204478	0.1663244353182751	-0.3767820773930753	0.6838842975206612
1831.085205078125	-0.3040075202615689	-9.838295764884576	-1.866415991281039	0.003390432508354228	2.595415713929583	-0.3390432508354227	0.1786447638603696	-0.4195519348268839	0.6942148760330579
1834.991455078125	0.1385601885112548	-9.621865539048027	-1.952006283708492	0.7207998562951099	2.602698134437046	0.3837824864310544	0.1786447638603696	-0.4195519348268839	0.6942148760330579
1838.897705078125	0.003298000616699294	-9.778933646467268	-2.109933353889977	0.003539176164953228	1.108127891596177	-0.3539176164953228	0.1786447638603696	-0.4195519348268839	0.6942148760330579
1842.803955078125	-0.1777828950325739	-9.617483136060534	-2.073903498914204	0.362243888058331	1.111769101849907	0.007495252137915762	0.1786447638603696	-0.4195519348268839	0.6942148760330579
1846.710205078125	-0.1379576843335508	-9.937939651267847	-2.068077188881642	0.3586303400650783	0.7472851214204346	0.3688500514631886	0.1786447638603696	-0.4195519348268839	0.6942148760330579
1850.616455078125	-0.2284153272646547	-9.807187622482239	-2.05282242451151	7.437182829950031e-05	-0.7436439111667036	-0.007437182829950031	0.1786447638603696	-0.4195519348268839	0.6942148760330579
1854.522705078125	-0.09523114788875126	-9.667458071150698	-2.158961737041626	0.3625041894573793	-1.490984587233555	-0.01853488776690934	0.1786447638603696	-0.4195519348268839	0.6942148760330579
1858.428955078125	-0.06748756546515454	-9.858487646167067	-2.083747817828183	-0.3584444104943295	-2.606394899337194	-0.3874430085380637	0.162217659137577	-0.4012219959266802	0.6880165289256198
1862.335205078125	0.02239990662762481	-9.819424030190401	-2.079996887587494	0.00394822122060048	-2.981913619820693	-0.394822122060048	0.162217659137577	-0.4012219959266802	0.6880165289256198
1866.241455078125	0.1421200103151239	-9.680714529998109	-2.070667010504129	-0.3621323303158818	-2.227234968599963	-0.01865102638284081	0.162217659137577	-0.4012219959266802	0.6880165289256198
1870.147705078125	0.2511085998007951	-9.892141552731076	-2.036953326693169	-0.3621323303158818	-2.227234968599963	-0.01865102638284081	0.1724845995893224	-0.4256619144602851	0.6859504132231405
1874.053955078125	0.1451396287659469	-9.589738186699011	-2.171320958864895	0.00379947756400148	-1.494625797487286	-0.3799477564001479	0.1724845995893224	-0.4256619144602851	0.6859504132231405
1877.960205078125	0.01849467012501961	-9.740686723326244	-1.949822337500654	-0.358518782322629	-1.86275098817049	-0.3800058257081136	0.1724845995893224	-0.4256619144602851	0.6859504132231405
1881.866455078125	0.3386988275615694	-9.58382071242176	-1.956627585385646	-0.36239263171493	0.3755187204834998	0.007379113521984299	0.1724845995893224	-0.4256619144602851	0.6859504132231405
1885.772705078125	0.2899590786102342	-9.772913231249358	-1.998635953674474	0.3550911639001251	-0.3608427701757418	0.7227676679585114	0.1806981519507187	-0.3991853360488798	0.6921487603305785
1889.678955078125	0.5075040948991397	-9.275907009315945	-1.916803163304656	-0.003650733907402479	0.007337975153878983	0.3650733907402479	0.1806981519507187	-0.3991853360488798	0.6921487603305785
1893.585205078125	0.106649548397883	-9.738849979351352	-2.221651613262768	-0.7246737056874109	-0.3644284257830558	0.003602452799043552	0.1806981519507187	-0.3991853360488798	0.6921487603305785
1897.491455078125	0.2505534127051097	-9.732321063225349	-2.018447090170323	-0.369694099529735	0.3901946707912577	0.73752589500248	0.1724845995893224	-0.4093686354378818	0.6859504132231405
1901.397705078125	0.4446638555062495	-9.60289202005298	-2.155461850208313	-0.3622810739724808	-0.7399471462665556	-0.003776660722940747	0.1724845995893224	-0.4093686354378818	0.6859504132231405
1905.303955078125	0.2535288685460486	-9.40135899917011	-2.117628951534953	-0.3696197277014355	-0.3534492403754458	0.73008871217253	0.1724845995893224	-0.4093686354378818	0.6859504132231405
1909.210205078125	0.4562494430385138	-9.82247934675088	-2.208314767950458	-1.083341231666639	-0.7398915916201386	-0.36152900724917	0.1581108829568789	-0.4032586558044806	0.6880165289256198
1913.116455078125	0.4790058050173457	-10.05512145637772	-1.966860167244855	-0.369842843186334	1.877482493124665	0.7524002606623801	0.1581108829568789	-0.4032586558044806	0.6880165289256198
1917.022705078125	0.3272473050950246	-9.664190038019274	-1.908243503167484	-0.7174466097009052	0.3645395350758898	-0.7191071458515021	0.1581108829568789	-0.4032586558044806	0.6880165289256198
1920.928955078125	0.2233650173771984	-9.701111977714707	-2.112167245906612	-0.3624670035432295	1.119162631650203	0.01481629635193433	0.1581108829568789	-0.4032586558044806	0.6880165289256198
1924.835205078125	0.2790785156000476	-9.813097946622653	-1.969283853334921	-0.3624298176290798	0.7473406760668516	0.01109770493695932	0.1437371663244353	-0.405295315682281	0.6880165289256198
1928.741455078125	0.1985700777813967	-9.652462341517348	-1.952335926046555	-0.0001115577424492505	1.115465866750055	0.01115577424492505	0.1437371663244353	-0.405295315682281	0.6880165289256198
1932.647705078125	-0.08421021086857605	-9.580561301514173	-1.859659637714133	-0.3551655357284246	1.104486681342445	-0.7153304851285613	0.1437371663244353	-0.405295315682281	0.6880165289256198
1936.553955078125	0.3324939808728583	-9.865826946184443	-1.749799362428607	1.094181875646397	1.833343532908557	-0.7225353907266485	0.1786447638603696	-0.4032586558044806	0.6859504132231405
1940.460205078125	0.0186145400661335	-9.820647965378615	-1.95381800220445	0.003464804336653728	1.85177180276288	-0.3464804336653728	0.1786447638603696	-0.4032586558044806	0.6859504132231405
1944.366455078125	0.3888336418144209	-9.904277122480003	-1.961121393814028	-0.0002603013990482511	2.602753689083463	0.02603013990482511	0.1786447638603696	-0.4032586558044806	0.6859504132231405
1948.272705078125	0.2795887514678154	-9.94293297035874	-1.986291715593844	0.362095144401732	2.599056924183315	0.02236961779781583	0.1786447638603696	-0.4032586558044806	0.6859504132231405
1952.178955078125	-0.0677075898965412	-9.781892120733215	-1.74308033678196	-0.3626157471998285	2.60645045398361	0.02969066201183439	0.1786447638603696	-0.4032586558044806	0.6859504132231405
1956.085205078125	-0.1493776620787498	-9.618298777405464	-2.020744597375006	0.3622067021441813	1.483591057433259	0.01121384355289078	0.1786447638603696	-0.4032586558044806	0.6859504132231405
1959.991455078125	-0.2643006022675923	-9.658790528066522	-1.856646591080257	-0.003725105735701979	0.7509818863205826	0.3725105735701979	0.1786447638603696	-0.4032586558044806	0.6859504132231405
1963.897705078125	-0.1136572082448438	-9.656749163999168	-2.211426391838539	-0.003650733907402479	0.007337975153878983	0.3650733907402479	0.1724845995893224	-0.395112016293279	0.6818181818181819
1967.803955078125	-0.03173162381973454	-9.780259891701714	-1.942279206008849	7.437182829950031e-05	-0.7436439111667036	-0.007437182829950031	0.1724845995893224	-0.395112016293279	0.6818181818181819
1971.710205078125	-0.2947041933186704	-9.798621022506371	-1.843193556044323	-1.079541754102638	-2.234517389107425	-0.7414767636493179	0.1724845995893224	-0.395112016293279	0.6818181818181819
1975.616455078125	-0.1200710387124707	-9.588822969183699	-1.997632042917645	-0.7319008016739164	-1.093396386642001	0.7263120514495892	0.1663244353182751	-0.3971486761710794	0.6962809917355373
1979.522705078125	-0.01052647351308043	-9.750070226435895	-1.98245088289732	-0.7317520580173174	-2.580684208975409	0.7114376857896891	0.1663244353182751	-0.3971486761710794	0.6962809917355373
1983.428955078125	0.115311728879429	-9.762715874328984	-1.843724295980966	-1.086731664174993	-3.335307305549722	-0.02248575641374729	0.1663244353182751	-0.3971486761710794	0.6962809917355373
1987.335205078125	-0.3015438775244649	-9.797499187066245	-1.94853741585117	-1.449049924061624	-3.703432496232926	-0.02254382572171302	0.1663244353182751	-0.3971486761710794	0.6962809917355373
1991.241455078125	0.1397123594584087	-9.478159670441782	-2.323745315280289	-1.815130475598106	-2.948753845012195	0.3536272699554942	0.1642710472279261	-0.3971486761710794	0.6859504132231405
1995.147705078125	0.1506418167866812	-9.751292479238973	-2.021393892889373	-0.7280269522816153	-3.331666095295991	0.3389271122194913	0.1642710472279261	-0.3971486761710794	0.6859504132231405
1999.053955078125	0.3824497788320725	-9.856341238177629	-1.748325961069082	-0.3583328527518803	-3.721860766087249	-0.3985987827829887	0.1642710472279261	-0.3971486761710794	0.6859504132231405
2002.960205078125	-0.09328799305385238	-9.56016311775408	-1.890400231538255	-0.007041166415756707	-2.588077738775705	0.7041166415756707	0.1601642710472279	-0.395112016293279	0.6983471074380165
2006.866455078125	0.235242393581911	-9.553938292741849	-1.841413119397033	-0.7317148721031675	-2.95250616455876	0.7077190943747141	0.1601642710472279	-0.395112016293279	0.6983471074380165
2010.772705078125	0.178626716328573	-9.682244028387094	-1.954223877619099	-0.01065471440900943	-2.952561719205177	1.065471440900943	0.1601642710472279	-0.395112016293279	0.6983471074380165
2014.678955078125	0.1714566011666815	-9.671229032289439	-2.048553372222717	-1.086731664174993	-3.335307305549722	-0.02248575641374729	0.1601642710472279	-0.395112016293279	0.6983471074380165
2018.585205078125	0.2847723378029575	-9.611256944110377	-2.159077926765249	-1.445473561982521	-2.967126560220101	-0.3801800336320109	0.1601642710472279	-0.395112016293279	0.6983471074380165
2022.491455078125	0.3982875948017455	-9.754553677680768	-1.942919826724846	0.0001859295707487508	-1.859109777916759	-0.01859295707487508	0.1601642710472279	-0.395112016293279	0.6983471074380165
2026.397705078125	0.437077350022594	-9.805344990159362	-1.902578334086463	-1.08322967392419	-1.855357458370194	-0.3726847814940951	0.1601642710472279	-0.395112016293279	0.6983471074380165
2030.303955078125	0.3107139280196776	-9.652869163273637	-2.02379760065592	-0.3512916863361236	-1.133783027311544	-1.102715424358659	0.1704312114989733	-0.3808553971486761	0.6921487603305785
2034.210205078125	0.2611232602100406	-9.76557014586542	-1.704108673668018	-1.079690497759237	-0.7472295667740175	-0.7266023979894179	0.1704312114989733	-0.3808553971486761	0.6921487603305785
2038.116455078125	0.1656728765079363	-9.813099103262434	-1.855762550264542	-0.7247480775157102	0.3792154853836477	0.01103963562899358	0.1704312114989733	-0.3808553971486761	0.6921487603305785
2042.022705078125	0.1578868506617688	-9.812283251619363	-1.929561688725627	-0.36239263171493	0.3755187204834998	0.007379113521984299	0.1848049281314169	-0.3869653767820774	0.7066115702479339
2045.928955078125	0.2583843897791949	-9.763122380638061	-1.946146325973161	-0.3587418978075275	0.3681807453296208	-0.3576942772182636	0.1848049281314169	-0.3869653767820774	0.7066115702479339
2049.835205078125	-0.1083900283981354	-9.731712775848731	-1.72033238672882	-0.7174094237867555	-0.007282420507461989	-0.7228257372664771	0.1848049281314169	-0.3869653767820774	0.7066115702479339
2053.741455078125	0.1786117325859337	-9.672248873130549	-1.953724419531124	-0.7209485999517089	-1.115410312103638	-0.3689081207711543	0.1848049281314169	-0.3869653767820774	0.7066115702479339
2057.647705078125	0.1160774769900973	-9.852468282439867	-1.869249233003244	-0.3622810739724808	-0.7399471462665556	-0.003776660722940747	0.1745379876796715	-0.3890020366598778	0.6859504132231405
2061.553955078125	0.01334183989318957	-9.882352805101203	-1.778061329772986	-0.3585931541509285	-1.119107077003786	-0.3725686428781636	0.1745379876796715	-0.3890020366598778	0.6859504132231405
2065.460205078125	0.1053633123850096	-9.58259919566218	-1.845443746166988	-0.7209114140375591	-1.48723226768699	-0.3726267121861294	0.1745379876796715	-0.3890020366598778	0.6859504132231405
2069.366455078125	-0.02251898795070508	-9.890614472770729	-1.916033734976498	-0.007338653728954708	0.3864979058911098	0.7338653728954707	0.1745379876796715	-0.3991853360488798	0.6797520661157025
2073.272705078125	0.2798142962254375	-9.882860044220443	-1.99380987418125	0.3551655357284246	-1.104486681342445	0.7153304851285613	0.1745379876796715	-0.3991853360488798	0.6797520661157025
2077.178955078125	0.1013973522938139	-9.673881522758334	-1.713245076460461	-0.3695081699589862	-1.468915107125501	0.7189329379276049	0.1745379876796715	-0.3991853360488798	0.6797520661157025
2081.085205078125	0.2864442080342828	-9.744049706068918	-1.88147360114276	-0.365820250137434	-1.848075037862732	0.3501409557723821	0.1745379876796715	-0.3991853360488798	0.6797520661157025
2084.991455078125	0.2512899819485332	-9.592082905836641	-2.04299939828444	-0.01084064397975819	-1.093451941288418	1.084064397975818	0.1745379876796715	-0.3991853360488798	0.6797520661157025
2088.897705078125	0.3636341411673598	-9.585758294355887	-1.787804705578658	-0.3695081699589862	-1.468915107125501	0.7189329379276049	0.1745379876796715	-0.3991853360488798	0.6797520661157025
2092.803955078125	0.162709249937502	-9.660724009186875	-2.090308331250067	-0.007152724158205957	-1.472611872025649	0.7152724158205956	0.1745379876796715	-0.3991853360488798	0.6797520661157025
2096.710205078125	0.2095105757621402	-9.652258247170241	-1.983685858738006	-0.007189910072355707	-1.100789916442297	0.7189910072355706	0.1560574948665298	-0.3971486761710794	0.6921487603305785
2100.616455078125	0.2993515193909346	-10.00320967539693	-1.978383979697817	-0.003650733907402479	0.007337975153878983	0.3650733907402479	0.1560574948665298	-0.3971486761710794	0.6921487603305785
2104.522705078125	0.285347240349484	-9.854404392287	-1.844908011649466	-7.437182829950031e-05	0.7436439111667036	0.007437182829950031	0.1560574948665298	-0.3971486761710794	0.6921487603305785
2108.428955078125	0.2832542480881928	-9.861747793118152	-2.108474936273091	-0.00379947756400148	1.494625797487286	0.3799477564001479	0.1704312114989733	-0.3971486761710794	0.7066115702479339
2112.335205078125	0.2760904418705705	-9.504064090461849	-1.869681395685681	0.007152724158205957	1.472611872025649	-0.7152724158205956	0.1704312114989733	-0.3971486761710794	0.7066115702479339
2116.241455078125	0.1451743279594272	-9.683060300626451	-1.839144265314239	0.724487776116662	2.223538203699815	0.01499050427583152	0.1704312114989733	-0.3971486761710794	0.7066115702479339
2120.147705078125	0.2231599766884509	-9.634511607537403	-1.771999222948364	-0.7175953533575042	1.851827357409297	-0.7042327801916021	0.1704312114989733	-0.3971486761710794	0.7066115702479339
2124.053955078125	-0.05019711507750934	-9.602897067208396	-1.660096164083023	0.01076627215145869	1.837095852455122	-1.076627215145868	0.1642710472279261	-0.3869653767820774	0.6921487603305785
2127.960205078125	0.07898640501371801	-9.461127729045565	-1.966213500457267	-0.7138702476218023	1.100845471088715	-1.0767433537618	0.1642710472279261	-0.3869653767820774	0.6921487603305785
2131.866455078125	-0.2177303415268119	-9.847066143760335	-2.075655282439606	0.003539176164953228	1.108127891596177	-0.3539176164953228	0.1642710472279261	-0.3869653767820774	0.6921487603305785
2135.772705078125	0.2673273182807181	-9.693564167089233	-1.910910609357268	-0.0001859295707487508	1.859109777916759	0.01859295707487508	0.1581108829568789	-0.3910386965376782	0.7024793388429752
2139.678955078125	0.01260605926779969	-9.812590707503412	-1.753535308926657	-0.3624670035432295	1.119162631650203	0.01481629635193433	0.1581108829568789	-0.3910386965376782	0.7024793388429752
2143.585205078125	-0.100834279017792	-9.719269750215753	-1.972190699406933	0.007189910072355707	1.100789916442297	-0.7189910072355706	0.1581108829568789	-0.3910386965376782	0.7024793388429752
2147.491455078125	0.08262035691274967	-9.779952751264876	-2.087345230424989	-0.0001487436565990006	1.487287822333407	0.01487436565990006	0.1581108829568789	-0.3910386965376782	0.7024793388429752
2151.397705078125	0.2421112566549505	-9.785050693681566	-1.737041888498348	-0.0001115577424492505	1.115465866750055	0.01115577424492505	0.1581108829568789	-0.3910386965376782	0.7024793388429752
2155.303955078125	-0.1412911727617641	-9.609017479192969	-1.9569609079412	0.358518782322629	1.86275098817049	0.3800058257081136	0.1581108829568789	-0.3910386965376782	0.7024793388429752
2159.210205078125	-0.002439984196094613	-9.740788928223404	-1.918667193463513	0.007227095986505457	0.7289679608589457	-0.7227095986505457	0.1581108829568789	-0.3910386965376782	0.7024793388429752
2163.116455078125	-0.0174568487927441	-9.898977714442989	-2.08477170690853	0.3548308625010768	2.241910918907721	0.7487978078633365	0.1601642710472279	-0.4012219959266802	0.6900826446280992
2167.022705078125	0.05731439283114662	-9.81146834631793	-1.910479761038221	1.083266859838339	1.483535502786842	0.3689661900791201	0.1601642710472279	-0.4012219959266802	0.6900826446280992
2170.928955078125	0.1943131176357862	-9.900505425297762	-2.143770587859541	0.3659318078798833	0.7326091711126765	-0.3612967300173071	0.1601642710472279	-0.4012219959266802	0.6900826446280992
2174.835205078125	-0.1010298562901357	-9.799332986867144	-1.965671456995476	0.3622810739724808	0.7399471462665556	0.003776660722940747	0.1560574948665298	-0.4032586558044806	0.6818181818181819
2178.741455078125	-0.127431999438504	-9.731203013151784	-1.752266685383201	0.3623182598866305	0.3681251906832038	5.806930796573191e-05	0.1560574948665298	-0.4032586558044806	0.6818181818181819
2182.647705078125	0.1423313599481405	-9.400646193616767	-2.077711998271349	0	0	0	0.1560574948665298	-0.4032586558044806	0.6818181818181819
2186.553955078125	-0.1385278551718754	-9.768124006505573	-2.049071494270821	0.01095220172220744	-0.02201392546163695	-1.095220172220744	0.1560574948665298	-0.4032586558044806	0.6818181818181819
2190.460205078125	-0.04348282113906413	-9.660726112168298	-1.883905962031196	-0.3550167920718256	-0.3828011409909618	-0.7302048507884614	0.1765913757700205	-0.3910386965376782	0.6694214876033058
2194.366455078125	0.07211596470461129	-9.650015838078843	-2.070532156820376	0.7210601576941581	-5.555464641699391e-05	0.3577523465262293	0.1765913757700205	-0.3910386965376782	0.6694214876033058
2198.272705078125	0.07244560704267448	-9.86990925372287	-2.081520234755816	0.003687919821552229	-0.3791599307372308	-0.3687919821552229	0.1765913757700205	-0.3910386965376782	0.6694214876033058
2202.178955078125	0.1080067600337844	-9.66174448092241	-1.933558667792813	0.3660433656223325	-0.3828566956373787	-0.3724525042622321	0.162217659137577	-0.4073319755600814	0.6921487603305785
2206.085205078125	-0.01350035211795204	-9.661031780518138	-1.883321596068266	-0.3587047118933778	-0.003641210253730994	-0.3614128686332386	0.162217659137577	-0.4073319755600814	0.6921487603305785
2209.991455078125	0.2032868022406216	-9.640937267275531	-2.109560074687385	1.090717071309743	-0.01842826985432295	-0.3760549570612757	0.162217659137577	-0.4073319755600814	0.6921487603305785
2213.897705078125	0.1181105342808316	-9.805144260582532	-1.60368447602772	0	0	0	0.162217659137577	-0.4073319755600814	0.6921487603305785
2217.803955078125	0.05004018008881416	-9.52048700843795	-2.001339336293805	0.358667525979228	0.3754631658370828	0.3651314600482136	0.162217659137577	-0.4073319755600814	0.6921487603305785
2221.710205078125	0.177605455975004	-9.632574235901416	-1.920181865833465	-0.003687919821552229	0.3791599307372308	0.3687919821552229	0.162217659137577	-0.4073319755600814	0.6921487603305785
2225.616455078125	0.5044024601728178	-9.873576537877456	-2.146748672427258	-3.718591414975016e-05	0.3718219555833518	0.003718591414975016	0.162217659137577	-0.4073319755600814	0.6921487603305785
2229.522705078125	0.366772840941263	-9.784743448095657	-1.892428031375431	-0.003687919821552229	0.3791599307372308	0.3687919821552229	0.1786447638603696	-0.3869653767820774	0.6942148760330579
2233.428955078125	0.2161247152103126	-9.713453008748665	-1.870823840343753	-0.003650733907402479	0.007337975153878983	0.3650733907402479	0.1786447638603696	-0.3869653767820774	0.6942148760330579
2237.335205078125	0.164787258456154	-9.643385453099176	-1.826241948538467	-0.7210601576941581	5.555464641699391e-05	-0.3577523465262293	0.1786447638603696	-0.3869653767820774	0.6942148760330579
2241.241455078125	-0.07564897349533653	-9.817793168096825	-2.145034216822116	0.7282872536806635	0.7289124062125286	-0.3649572521243164	0.1601642710472279	-0.3971486761710794	0.7024793388429752
2245.147705078125	0.2090594862468958	-9.772404099446838	-1.968649541563193	-0.3587418978075275	0.3681807453296208	-0.3576942772182636	0.1601642710472279	-0.3971486761710794	0.7024793388429752
2249.053955078125	0.05640827071048964	-9.768427992470276	-2.213609023682988	0.007227095986505457	0.7289679608589457	-0.7227095986505457	0.1601642710472279	-0.3971486761710794	0.7024793388429752
2252.960205078125	-0.05021840776441772	-9.939570618510496	-1.992719741186076	-0.7137215039652034	-0.3864423512446928	-1.0916177194217	0.1601642710472279	-0.3971486761710794	0.7024793388429752
2256.866455078125	0.1218462179062033	-9.700603056210328	-2.061540596873445	0.7246737056874109	0.3644284257830558	-0.003602452799043552	0.1765913757700205	-0.3890020366598778	0.6962809917355373
2260.772705078125	-0.06409256483031703	-9.807389929295136	-2.1969145056561	0.3587047118933778	0.003641210253730994	0.3614128686332386	0.1765913757700205	-0.3890020366598778	0.6962809917355373
2264.678955078125	0.02982632265045057	-9.580356155676354	-1.994210755015019	-0.358667525979228	-0.3754631658370828	-0.3651314600482136	0.1765913757700205	-0.3890020366598778	0.6962809917355373
2268.585205078125	0.05704389684560673	-9.841555806686587	-1.901463228186891	-0.3623182598866305	-0.3681251906832038	-5.806930796573191e-05	0.1704312114989733	-0.3869653767820774	0.6838842975206612
2272.491455078125	-0.06568320740417702	-9.377904237060685	-2.143893086527433	0.3624298176290798	-0.7473406760668516	-0.01109770493695932	0.1704312114989733	-0.3869653767820774	0.6838842975206612
2276.397705078125	-0.1125909966633571	-9.736404422254488	-2.246966777888097	-0.7245993338591113	-1.108072336949759	-0.003834730030906479	0.1704312114989733	-0.3869653767820774	0.6838842975206612
2280.303955078125	-0.1314034798559353	-9.959153791820086	-1.953217338135491	-0.7172978660443063	-1.122748287257517	-0.7339815115114022	0.1642710472279261	-0.4093686354378818	0.6859504132231405
2284.210205078125	0.1364719279581654	-9.702540743293527	-1.882397598605513	-0.3622810739724808	-0.7399471462665556	-0.003776660722940747	0.1642710472279261	-0.4093686354378818	0.6859504132231405
2288.116455078125	0.02194960573041407	-9.729569627480499	-2.064986857680469	-0.3622810739724808	-0.7399471462665556	-0.003776660722940747	0.1642710472279261	-0.4093686354378818	0.6859504132231405
2292.022705078125	0.0736782170292601	-9.639510709827206	-2.12260723430867	-0.7209485999517089	-1.115410312103638	-0.3689081207711543	0.1642710472279261	-0.4093686354378818	0.6859504132231405
2295.928955078125	-0.01210370958036847	-9.750580199430985	-1.929876347321051	-0.3659318078798833	-0.7326091711126765	0.3612967300173071	0.1745379876796715	-0.3910386965376782	0.6921487603305785
2299.835205078125	-0.08101078750608226	-9.609526821293635	-1.966307083130593	-0.724636519773261	-0.7362503813664076	-0.0001161386159314638	0.1745379876796715	-0.3910386965376782	0.6921487603305785
2303.741455078125	-0.003791675505760463	-9.681225975080196	-1.873610816474651	-0.7283244395948133	-0.3570904506291769	0.3686758435392914	0.1745379876796715	-0.3910386965376782	0.6921487603305785
2307.647705078125	0.03921955204918452	-9.600652344837432	-1.973985068306151	-0.3658574360515838	-1.47625308227938	0.3538595471873571	0.1663244353182751	-0.3930753564154786	0.6838842975206612
2311.553955078125	-0.05980642581746175	-9.789337411014312	-2.006452472751275	-0.7245249620308118	-1.851716248116463	-0.01127191286085651	0.1663244353182751	-0.3930753564154786	0.6838842975206612
2315.460205078125	0.06513038616259254	-9.832274508474097	-1.837679538753084	-1.086806036003293	-2.591663394383019	-0.01504857358379726	0.1663244353182751	-0.3930753564154786	0.6838842975206612
2319.366455078125	0.3521621146319402	-9.792800916269007	-2.072070487731338	-0.003427618422503978	-2.223593758346232	0.3427618422503977	0.1663244353182751	-0.3930753564154786	0.6838842975206612
2323.272705078125	-0.1078939876549733	-9.641552389341774	-1.736867078167557	-0.007152724158205957	-1.472611872025649	0.7152724158205956	0.1663244353182751	-0.3930753564154786	0.6838842975206612
2327.178955078125	0.2338252469754527	-9.591063170144604	-2.12750823251509	-0.7245249620308118	-1.851716248116463	-0.01127191286085651	0.1663244353182751	-0.3930753564154786	0.6838842975206612
2331.085205078125	0.1476821333064152	-9.882249443564259	-1.922737776880506	-1.44558511972497	-1.851660693470046	-0.3690242593870858	0.1663244353182751	-0.3930753564154786	0.6838842975206612
2334.991455078125	0.1011371083427113	-9.64063233496919	-2.03790361142371	-0.365968993794033	-0.3607872155293249	0.3650153214322821	0.1642710472279261	-0.4012219959266802	0.6880165289256198
2338.897705078125	0.002517268763391717	-9.679186083099836	-2.083908958779724	-0.3622067021441813	-1.483591057433259	-0.01121384355289078	0.1642710472279261	-0.4012219959266802	0.6880165289256198
2342.803955078125	0.1955149715190597	-9.860116825875505	-2.183832383968657	-0.003464804336653728	-1.85177180276288	0.3464804336653728	0.1642710472279261	-0.4012219959266802	0.6880165289256198
2346.710205078125	0.2252174811382282	-9.743846347765308	-1.840582704607606	-0.003464804336653728	-1.85177180276288	0.3464804336653728	0.1642710472279261	-0.3869653767820774	0.6818181818181819
2350.616455078125	0.3024223980139444	-9.595550091308825	-1.747413267131478	-0.003539176164953228	-1.108127891596177	0.3539176164953228	0.1642710472279261	-0.3869653767820774	0.6818181818181819
2354.522705078125	-0.04391813829363563	-9.580866864714942	-1.869395390212146	0.003576362079102979	0.7363059360128246	-0.3576362079102978	0.1642710472279261	-0.3869653767820774	0.6818181818181819
2358.428955078125	0.145956637048802	-9.362807354020887	-1.865221234960068	-0.3622810739724808	-0.7399471462665556	-0.003776660722940747	0.1642710472279261	-0.3869653767820774	0.6818181818181819
2362.335205078125	0.04747086253520193	-9.701317754446951	-1.915695417840064	-1.086991965574041	-0.7325536164662596	0.003544383491077821	0.1806981519507187	-0.4012219959266802	0.7107438016528926
2366.241455078125	0.02766235476613137	-9.821055838625616	-1.922078492204379	-0.3622810739724808	-0.7399471462665556	-0.003776660722940747	0.1806981519507187	-0.4012219959266802	0.7107438016528926
2370.147705078125	0.18627631125492	-10.01310399269424	-1.875877041830666	-0.7209485999517089	-1.115410312103638	-0.3689081207711543	0.1806981519507187	-0.4012219959266802	0.7107438016528926
2374.053955078125	0.5167459096354141	-9.616252155884549	-1.891530321180466	-0.3586303400650783	-0.7472851214204346	-0.3688500514631886	0.1704312114989733	-0.4073319755600814	0.6962809917355373
2377.960205078125	0.2006275822311739	-9.761797081745254	-2.020919407705797	-0.7246737056874109	-0.3644284257830558	0.003602452799043552	0.1704312114989733	-0.4073319755600814	0.6962809917355373
2381.866455078125	0.3224051903684503	-9.732422321780868	-2.080173012281674	-0.3623554458007803	0.003696764900147988	0.003660522107009284	0.1704312114989733	-0.4073319755600814	0.6962809917355373
2385.772705078125	0.08146897458362939	-9.713658364884626	-1.71563248612098	-0.3587418978075275	0.3681807453296208	-0.3576942772182636	0.1704312114989733	-0.4073319755600814	0.6962809917355373
2389.678955078125	0.1220417951785471	-9.620539819558937	-2.068059839284902	-0.3587418978075275	0.3681807453296208	-0.3576942772182636	0.1704312114989733	-0.4073319755600814	0.6962809917355373
2393.585205078125	0.07158995647617072	-9.720185914072704	-2.052998549205691	-0.3587418978075275	0.3681807453296208	-0.3576942772182636	0.1704312114989733	-0.4073319755600814	0.6962809917355373
2397.491455078125	-0.001193179084903415	-9.730385794570786	-1.960227363836553	-0.36239263171493	0.3755187204834998	0.007379113521984299	0.1704312114989733	-0.4073319755600814	0.6962809917355373
2401.397705078125	0.2192791873448887	-9.712433062758485	-1.97597291149629	-0.358667525979228	-0.3754631658370828	-0.3651314600482136	0.1663244353182751	-0.3930753564154786	0.6880165289256198
2405.303955078125	0.05699973423572266	-9.601570085930451	-1.899991141190755	-0.003576362079102979	-0.7363059360128246	0.3576362079102978	0.1663244353182751	-0.3930753564154786	0.6880165289256198
2409.210205078125	0.1503910362519824	-9.864706898278525	-1.679701208399413	7.437182829950031e-05	-0.7436439111667036	-0.007437182829950031	0.1663244353182751	-0.3930753564154786	0.6880165289256198
2413.116455078125	0.157917606765081	-9.622273307145958	-1.930586892169365	-0.007227095986505457	-0.7289679608589457	0.7227095986505457	0.1663244353182751	-0.3930753564154786	0.6776859504132231
2417.022705078125	0.07499994085364747	-9.679083352457321	-2.166664695121582	-0.3695825417872857	-0.7252711959587976	0.726370120757555	0.1663244353182751	-0.3930753564154786	0.6776859504132231
2420.928955078125	0.04500721979809801	-9.742114332265283	-1.833573993269934	-0.3659318078798833	-0.7326091711126765	0.3612967300173071	0.1663244353182751	-0.3930753564154786	0.6776859504132231
2424.835205078125	0.01158006720602881	-9.689589111603384	-2.052668906867627	-0.003576362079102979	-0.7363059360128246	0.3576362079102978	0.1663244353182751	-0.3930753564154786	0.6776859504132231
2428.741455078125	0.1382289689371243	-9.821972633376996	-1.940965631237476	-0.3660805515364823	0.7546786512207306	0.3761710956772072	0.1704312114989733	-0.415478615071283	0.6900826446280992
2432.647705078125	0.2800855808290111	-9.642772328865286	-2.002852694300368	0.3549796061576758	0.7546230965743135	0.7339234422034364	0.1704312114989733	-0.415478615071283	0.6900826446280992
2436.553955078125	0.3655812390924268	-9.761795399360114	-2.186041303080894	-3.718591414975016e-05	0.3718219555833518	0.003718591414975016	0.1704312114989733	-0.415478615071283	0.6900826446280992
2440.460205078125	0.1616272659953424	-9.781073850661505	-2.054242199844747	0.3549424202435261	1.126445052157665	0.7376420336184115	0.1642710472279261	-0.3991853360488798	0.7086776859504132
2444.366455078125	0.3960195293369853	-9.715287018847707	-1.867317644566172	1.083341231666639	0.7398915916201386	0.36152900724917	0.1642710472279261	-0.3991853360488798	0.7086776859504132
2448.272705078125	-0.1220394293244461	-9.749459415481571	-1.932019022518462	0.3585559682367788	1.490929032587138	0.3762872342931387	0.1642710472279261	-0.3991853360488798	0.7086776859504132
2452.178955078125	-0.08300914560333619	-9.750172957078412	-1.899695146555461	-0.3623554458007803	0.003696764900147988	0.003660522107009284	0.1642710472279261	-0.3991853360488798	0.7086776859504132
2456.085205078125	-0.05147940800021452	-9.72997834192007	-1.95068639999285	-0.3587047118933778	-0.003641210253730994	-0.3614128686332386	0.1642710472279261	-0.3991853360488798	0.7086776859504132
2459.991455078125	0.09381794437246115	-9.31966553131957	-2.127264812415371	-3.718591414975016e-05	0.3718219555833518	0.003718591414975016	0.1642710472279261	-0.3991853360488798	0.7086776859504132
2463.897705078125	-0.198117411030085	-9.80739129623306	-2.062752965663833	-0.3622810739724808	-0.7399471462665556	-0.003776660722940747	0.1642710472279261	-0.3991853360488798	0.7086776859504132
2467.803955078125	-0.06407284937947592	-9.890716887966031	-1.86423835401747	-0.362243888058331	-1.111769101849907	-0.007495252137915762	0.1642710472279261	-0.3991853360488798	0.6838842975206612
2471.710205078125	0.2722293679778494	-9.66531250435383	-1.740978932594976	-0.003501990250803478	-1.479949847179528	0.3501990250803478	0.1642710472279261	-0.3991853360488798	0.6838842975206612
2475.616455078125	0.170254747283408	-9.711617631711697	-2.008491576113601	-0.362243888058331	-1.111769101849907	-0.007495252137915762	0.1642710472279261	-0.3991853360488798	0.6838842975206612
2479.522705078125	0.1224321611052009	-9.670413601242652	-2.081072036840029	-0.007227095986505457	-0.7289679608589457	0.7227095986505457	0.1642710472279261	-0.3890020366598778	0.6797520661157025
2483.428955078125	0.252054941441168	-9.891835568934022	-2.06849804803893	-0.358667525979228	-0.3754631658370828	-0.3651314600482136	0.1642710472279261	-0.3890020366598778	0.6797520661157025
2487.335205078125	0.09671532702806929	-9.77872871092759	-2.223844234268976	-0.7247480775157102	0.3792154853836477	0.01103963562899358	0.1642710472279261	-0.3890020366598778	0.6797520661157025
2491.241455078125	0.1942587029914648	-9.723856352699425	-1.808623433048826	-0.7284359973372625	0.7583754161208786	0.3798316177842165	0.1642710472279261	-0.3890020366598778	0.6797520661157025
2495.147705078125	0.1388748471066787	-9.831763799435507	-1.962494903555958	-0.00379947756400148	1.494625797487286	0.3799477564001479	0.1724845995893224	-0.3910386965376782	0.6900826446280992
2499.053955078125	0.1201932745076855	-9.861137507909181	-2.006442483589516	-0.366117737450632	1.126500606804082	0.3798896870921822	0.1724845995893224	-0.3910386965376782	0.6900826446280992
2502.960205078125	0.28184262180797	-9.762204218948757	-2.061420726932331	-0.003762291649851729	1.122803841903934	0.3762291649851729	0.1724845995893224	-0.3910386965376782	0.6900826446280992
2506.866455078125	0.3199864988592641	-9.803204365368838	-1.999549961975467	-0.3587418978075275	0.3681807453296208	-0.3576942772182636	0.1601642710472279	-0.3767820773930753	0.6714876033057852
2510.772705078125	0.0598237754142019	-9.590656979282741	-1.994125847140063	-0.00391103530645073	2.610091664237342	0.391103530645073	0.1601642710472279	-0.3767820773930753	0.6714876033057852
2514.678955078125	0.1968422156696826	-9.763021016933468	-1.894740522322753	-0.3587418978075275	0.3681807453296208	-0.3576942772182636	0.1601642710472279	-0.3767820773930753	0.6714876033057852
2518.585205078125	0.1955946219404578	-9.983424405572585	-1.853154064681925	-0.3550911639001251	0.3608427701757418	-0.7227676679585114	0.1601642710472279	-0.3767820773930753	0.6714876033057852
2522.491455078125	-0.0984597501184899	-9.408501985871645	-2.051341662717005	-0.0001115577424492505	1.115465866750055	0.01115577424492505	0.1601642710472279	-0.3767820773930753	0.6714876033057852
2526.397705078125	-0.130170081251316	-9.518754992937925	-1.994330624956133	0	0	0	0.1601642710472279	-0.3767820773930753	0.6714876033057852
2530.303955078125	0.07360250969803027	-9.799535188530971	-2.120083656601009	0.003650733907402479	-0.007337975153878983	-0.3650733907402479	0.1601642710472279	-0.3767820773930753	0.6714876033057852
2534.210205078125	0.1542970613726213	-9.733443950156186	-1.809902045754041	3.718591414975016e-05	-0.3718219555833518	-0.003718591414975016	0.1601642710472279	-0.3849287169042769	0.6694214876033058
2538.116455078125	0.04644960218163292	-9.651647961961272	-1.881653406054431	7.437182829950031e-05	-0.7436439111667036	-0.007437182829950031	0.1601642710472279	-0.3849287169042769	0.6694214876033058
2542.022705078125	0.1183613148155304	-9.691729841542978	-1.94537716051768	-0.3585931541509285	-1.119107077003786	-0.3725686428781636	0.1601642710472279	-0.3849287169042769	0.6694214876033058
2545.928955078125	0.2328331654891285	-9.771383943158517	-2.094438849637617	-0.7208742281234094	-1.859054223270342	-0.3763453036011044	0.1663244353182751	-0.3991853360488798	0.6838842975206612
2549.835205078125	-0.0584082060438109	-9.458885319954167	-2.053059798539637	0.003762291649851729	-1.122803841903934	-0.3762291649851729	0.1663244353182751	-0.3991853360488798	0.6838842975206612
2553.741455078125	0.192811588899728	-9.740990919589089	-2.093719629990933	-0.3586303400650783	-0.7472851214204346	-0.3688500514631886	0.1663244353182751	-0.3991853360488798	0.6838842975206612
2557.647705078125	0.05802099458929167	-9.65123987841613	-1.934033152976389	-0.3623554458007803	0.003696764900147988	0.003660522107009284	0.1663244353182751	-0.3991853360488798	0.6838842975206612
2561.553955078125	0.2990518445381498	-9.803306570265999	-1.968394817938326	-0.3624670035432295	1.119162631650203	0.01481629635193433	0.1601642710472279	-0.4093686354378818	0.6756198347107438
2565.460205078125	-0.02571841131319887	-9.861648952991269	-1.809386289560038	-0.7247108916015605	0.007393529800295976	0.007321044214018567	0.1601642710472279	-0.4093686354378818	0.6756198347107438
2569.366455078125	0.1208091851919615	-9.850938363454599	-2.026972839732049	0.3550167920718256	0.3828011409909618	0.7302048507884614	0.1601642710472279	-0.4093686354378818	0.6756198347107438
2573.272705078125	-0.05105907458828226	-9.799842434116879	-1.964697513723925	-0.003762291649851729	1.122803841903934	0.3762291649851729	0.1724845995893224	-0.4134419551934826	0.6921487603305785
2577.178955078125	0.0045306106032849	-9.548535102571606	-2.15102035344283	-0.362243888058331	-1.111769101849907	-0.007495252137915762	0.1724845995893224	-0.4134419551934826	0.6921487603305785
2581.085205078125	-0.03090515212047562	-9.699992665852289	-1.969828262650813	-0.3585931541509285	-1.119107077003786	-0.3725686428781636	0.1724845995893224	-0.4134419551934826	0.6921487603305785
2584.991455078125	0.1939732232632857	-9.743948657811538	-1.799107442109522	-0.3476409524287211	-1.141121002465423	-1.467788815098907	0.1540041067761807	-0.3767820773930753	0.6983471074380165
2588.897705078125	0.2383219470032909	-9.502942570468935	-1.944064900109697	-0.3623182598866305	-0.3681251906832038	-5.806930796573191e-05	0.1540041067761807	-0.3767820773930753	0.6983471074380165
2592.803955078125	-0.001027569297838172	-9.630332247406303	-1.965747690072061	-0.3623182598866305	-0.3681251906832038	-5.806930796573191e-05	0.1540041067761807	-0.3767820773930753	0.6983471074380165
2596.710205078125	0.3382477380463251	-9.703966564698355	-1.941591268210833	-1.079616125930937	-1.490873477940721	-0.7340395808193679	0.1540041067761807	-0.3767820773930753	0.6983471074380165
2600.616455078125	0.1690678771427738	-9.762001386390503	-1.968929238092459	7.437182829950031e-05	-0.7436439111667036	-0.007437182829950031	0.1765913757700205	-0.3890020366598778	0.6838842975206612
2604.522705078125	0.1230480717894768	-9.66021445678807	-2.101602392982561	-0.3549424202435261	-1.126445052157665	-0.7376420336184115	0.1765913757700205	-0.3890020366598778	0.6838842975206612
2608.428955078125	0.2376445241123907	-9.893161603870325	-1.92148413707969	0.003650733907402479	-0.007337975153878983	-0.3650733907402479	0.1765913757700205	-0.3890020366598778	0.6838842975206612
2612.335205078125	0.1992498665263978	-9.965575876489797	-1.641662217546593	-0.3550539779859753	-0.01097918540760998	-0.7264862593734864	0.162217659137577	-0.4093686354378818	0.6735537190082644
2616.241455078125	0.364265035594275	-9.585554305157851	-1.808834519809165	-0.728361625508963	0.01473150495417496	0.3723944349542664	0.162217659137577	-0.4093686354378818	0.6735537190082644
2620.147705078125	0.3196552792851336	-10.00331145969781	-1.988509309504451	-0.3551283498142748	0.7326647257590937	-0.7190490765435364	0.162217659137577	-0.4093686354378818	0.6735537190082644
2624.053955078125	0.2385467031428795	-9.652869899317135	-1.951556771429315	-0.3551655357284246	1.104486681342445	-0.7153304851285613	0.162217659137577	-0.4093686354378818	0.6735537190082644
2627.960205078125	0.09957485601806251	-9.651137463220827	-1.985828533935417	-0.7138330617076526	0.7290235155053626	-1.080461945176775	0.1560574948665298	-0.3890020366598778	0.6818181818181819
2631.866455078125	-0.1488824099536214	-9.738138645885005	-2.037253001545954	0.3622810739724808	0.7399471462665556	0.003776660722940747	0.1560574948665298	-0.3890020366598778	0.6818181818181819
2635.772705078125	0.02176901220070959	-9.819628019388436	-2.058967073356987	-3.718591414975016e-05	0.3718219555833518	0.003718591414975016	0.1560574948665298	-0.3890020366598778	0.6818181818181819
2639.678955078125	0.1667540718320622	-9.9027495167743	-1.891802394402074	-0.3622067021441813	-1.483591057433259	-0.01121384355289078	0.1848049281314169	-0.3971486761710794	0.6838842975206612
2643.585205078125	0.1162131192918841	-9.732424424762291	-1.873770643062803	-0.7245621479449615	-1.479894292533111	-0.007553321445881495	0.1848049281314169	-0.3971486761710794	0.6838842975206612
2647.491455078125	0.08226469017957622	-9.823401083508603	-1.742156339319207	0.02205314710101387	-1.531315673256681	-2.205314710101387	0.1848049281314169	-0.3971486761710794	0.6838842975206612
2651.397705078125	0.02836895652427642	-9.660827370723817	-1.945631884142547	-1.086880407831592	-1.848019483216315	-0.007611390753847227	0.1745379876796715	-0.3808553971486761	0.6859504132231405
2655.303955078125	0.06067942598070567	-9.740380318932907	-2.022647532690189	-0.7245249620308118	-1.851716248116463	-0.01127191286085651	0.1745379876796715	-0.3808553971486761	0.6859504132231405
2659.210205078125	0.06024410882613417	-9.66052107147955	-2.008136960871139	-0.3658946219657335	-1.104431126696028	0.3575781386023321	0.1745379876796715	-0.3808553971486761	0.6859504132231405
2663.116455078125	0.1249249827095496	-9.859607588923913	-2.16416609031832	-0.3622810739724808	-0.7399471462665556	-0.003776660722940747	0.1745379876796715	-0.3808553971486761	0.6859504132231405
2667.022705078125	0.2245566192260345	-9.72406002645025	-1.81855397420115	-0.72478526342986	0.7510374409669995	0.0147582270439686	0.1765913757700205	-0.4114052953156823	0.6694214876033058
2670.928955078125	0.09235978962825335	-9.610137001353531	-2.078659654275111	-0.724636519773261	-0.7362503813664076	-0.0001161386159314638	0.1765913757700205	-0.4114052953156823	0.6694214876033058
2674.835205078125	0.03011022514256242	-9.980264360537239	-2.003674171418747	-0.7210601576941581	5.555464641699391e-05	-0.3577523465262293	0.1765913757700205	-0.4114052953156823	0.6694214876033058
2678.741455078125	0.3250092071155429	-9.644913689699306	-1.83364023718476	0.3842226633310454	0.3240973397599299	-2.190382275133521	0.1601642710472279	-0.395112016293279	0.7024793388429752
2682.647705078125	-0.07151267190887364	-9.699789097250536	-1.949577603037546	-0.36239263171493	0.3755187204834998	0.007379113521984299	0.1601642710472279	-0.395112016293279	0.7024793388429752
2686.553955078125	-0.2705243757891109	-9.647469548171813	-1.982520807029636	-0.3623554458007803	0.003696764900147988	0.003660522107009284	0.1601642710472279	-0.395112016293279	0.7024793388429752
2690.460205078125	0.06643318315417246	-9.578519937446817	-2.214439438472415	-0.7172978660443063	-1.122748287257517	-0.7339815115114022	0.1601642710472279	-0.395112016293279	0.7024793388429752
2694.366455078125	0.1997411755613581	-9.802083686568494	-1.991372518711934	-0.003613547993252729	-0.3644839804294728	0.3613547993252729	0.1601642710472279	-0.395112016293279	0.7024793388429752
2698.272705078125	0.2191892848890533	-9.652462131219206	-1.972976162968442	-0.3659318078798833	-0.7326091711126765	0.3612967300173071	0.1601642710472279	-0.395112016293279	0.7024793388429752
2702.178955078125	0.17102128401211	-9.591369784836084	-2.034042800403667	-1.086917593745742	-1.476197527632963	-0.00389279933887221	0.1601642710472279	-0.395112016293279	0.7024793388429752
2706.085205078125	0.08208094217773716	-9.420127162029198	-2.069364739257905	-0.7209485999517089	-1.115410312103638	-0.3689081207711543	0.1786447638603696	-0.3849287169042769	0.6735537190082644
2709.991455078125	-0.001629284857508554	-9.860526802103928	-1.945690504749715	-0.003576362079102979	-0.7363059360128246	0.3576362079102978	0.1786447638603696	-0.3849287169042769	0.6735537190082644
2713.897705078125	-0.09096078123656887	-9.849410652599824	-1.967973958781038	-0.7209857858658586	-0.7435883565202867	-0.3651895293561793	0.1786447638603696	-0.3849287169042769	0.6735537190082644
2717.803955078125	0.08003684423453185	-9.740788087030834	-2.001228141151062	-0.3660061797081828	0.01103474005402697	0.3687339128472572	0.1560574948665298	-0.395112016293279	0.6962809917355373
2721.710205078125	0.06138602773885071	-9.580151851031104	-2.046200924628357	-0.36239263171493	0.3755187204834998	0.007379113521984299	0.1560574948665298	-0.395112016293279	0.6962809917355373
2725.616455078125	0.07010183424668445	-9.990667073593574	-2.003394474889482	-0.3698056572721842	1.505660537541313	0.7486816692474051	0.1560574948665298	-0.395112016293279	0.6962809917355373
2729.522705078125	0.05162135924627043	-9.803309093843707	-1.720711974875681	-0.36239263171493	0.3755187204834998	0.007379113521984299	0.1560574948665298	-0.395112016293279	0.6962809917355373
2733.428955078125	0.1049879302009951	-9.54272056923501	-1.832931006699836	-0.3622810739724808	-0.7399471462665556	-0.003776660722940747	0.1581108829568789	-0.395112016293279	0.6632231404958678
2737.335205078125	0.03747670619483123	-9.701215864997005	-1.915890206494375	7.437182829950031e-05	-0.7436439111667036	-0.007437182829950031	0.1581108829568789	-0.395112016293279	0.6632231404958678
2741.241455078125	0.09592513175835797	-9.532317540731466	-1.864171058611932	-0.01087782989390794	-0.7216299857050666	1.087782989390794	0.1581108829568789	-0.395112016293279	0.6632231404958678
2745.147705078125	0.1855263355049245	-9.723346484853408	-1.850877850164151	-0.3696197277014355	-0.3534492403754458	0.73008871217253	0.1560574948665298	-0.405295315682281	0.6942148760330579
2749.053955078125	0.1669654214650788	-9.622681180392958	-1.898847382169293	-0.007264281900655208	-0.3571460052755938	0.7264281900655207	0.1560574948665298	-0.405295315682281	0.6942148760330579
2752.960205078125	0.1734541706459019	-9.740583151491158	-2.115139021530061	-0.3549052343293763	-1.498267007741017	-0.7413606250333865	0.1560574948665298	-0.405295315682281	0.6942148760330579
2756.866455078125	0.3978822451324524	-9.694684740740508	-1.929408171081745	7.437182829950031e-05	-0.7436439111667036	-0.007437182829950031	0.1560574948665298	-0.405295315682281	0.6942148760330579
2760.772705078125	0.2517852340736617	-9.711922774316182	-2.059507802455388	-0.717335051958456	-0.7509263316741656	-0.7302629200964272	0.1560574948665298	-0.405295315682281	0.6942148760330579
2764.678955078125	0.2195796508157071	-9.702335912902923	-1.985988360523569	0	0	0	0.1560574948665298	-0.405295315682281	0.6942148760330579
2768.585205078125	0.2299042381121746	-9.712330963010396	-1.996807937072487	-0.7137586898793531	-0.01462039566134097	-1.087899128006725	0.1560574948665298	-0.405295315682281	0.6942148760330579
2772.491455078125	0.1975030775818763	-9.782807338248524	-1.91676925272921	-0.00379947756400148	1.494625797487286	0.3799477564001479	0.1683778234086242	-0.3991853360488798	0.6735537190082644
2776.397705078125	-0.1393393431284951	-9.858386387611546	-2.022021895716831	0.003464804336653728	1.85177180276288	-0.3464804336653728	0.1683778234086242	-0.3991853360488798	0.6735537190082644
2780.303955078125	-0.02913785910707936	-9.756087907777955	-2.362071363097355	0.007115538244056207	1.844433827609001	-0.7115538244056206	0.1683778234086242	-0.3991853360488798	0.6735537190082644
2784.210205078125	-0.0567726122420332	-9.918356477958257	-2.107579591932227	-0.3551655357284246	1.104486681342445	-0.7153304851285613	0.1868583162217659	-0.3808553971486761	0.7066115702479339
2788.116455078125	-0.09752918083878995	-9.608201101804541	-2.082360638707003	0.3585559682367788	1.490929032587138	0.3762872342931387	0.1868583162217659	-0.3808553971486761	0.7066115702479339
2792.022705078125	-0.02118149176564482	-9.730182015670893	-1.960616941145173	0.7246737056874109	0.3644284257830558	-0.003602452799043552	0.1868583162217659	-0.3808553971486761	0.7066115702479339
2795.928955078125	0.1797836189839288	-9.611869963195195	-1.992787299464292	-0.7174094237867555	-0.007282420507461989	-0.7228257372664771	0.1868583162217659	-0.3808553971486761	0.7066115702479339
2799.835205078125	-0.03037914389203505	-9.629822589858426	-1.987361870265499	-0.3550167920718256	-0.3828011409909618	-0.7302048507884614	0.1745379876796715	-0.4114052953156823	0.6921487603305785
2803.741455078125	-0.2220858789266278	-9.678474434186276	-1.930470702445741	-0.007264281900655208	-0.3571460052755938	0.7264281900655207	0.1745379876796715	-0.4114052953156823	0.6921487603305785
2807.647705078125	0.1369474646324527	-9.739053653102175	-2.231582154415091	-0.7210229717800084	-0.3717664009369348	-0.3614709379412043	0.1745379876796715	-0.4114052953156823	0.6921487603305785
2811.553955078125	-0.1792560335194209	-9.897959450837947	-2.02479888268597	-0.3586303400650783	-0.7472851214204346	-0.3688500514631886	0.1601642710472279	-0.3991853360488798	0.6756198347107438
2815.460205078125	-0.06505310159529544	-9.587700502849145	-2.164896613490153	-0.003576362079102979	-0.7363059360128246	0.3576362079102978	0.1601642710472279	-0.3991853360488798	0.6756198347107438
2819.366455078125	-0.08137118594745757	-9.579643350123012	-1.954293801751415	-0.003539176164953228	-1.108127891596177	0.3539176164953228	0.1601642710472279	-0.3991853360488798	0.6756198347107438
2823.272705078125	0.1569562813820689	-9.612584135686465	-1.898542712735629	0.0001487436565990006	-1.487287822333407	-0.01487436565990006	0.1601642710472279	-0.3991853360488798	0.6756198347107438
2827.178955078125	0.02872935496565174	-9.69071084189444	-1.957645165521725	-0.3622067021441813	-1.483591057433259	-0.01121384355289078	0.1601642710472279	-0.3991853360488798	0.6756198347107438
2831.085205078125	0.1362022205906591	-9.522627948675687	-1.873407353021971	-1.083266859838339	-1.483535502786842	-0.3689661900791201	0.1601642710472279	-0.3991853360488798	0.6756198347107438
2834.991455078125	0.08956492731701893	-9.85104067350083	-1.985497577233964	-0.3658574360515838	-1.47625308227938	0.3538595471873571	0.1601642710472279	-0.3991853360488798	0.6756198347107438
2838.897705078125	0.1124080372795517	-9.65032140127961	-2.08026790931839	-0.3622067021441813	-1.483591057433259	-0.01121384355289078	0.1827515400410678	-0.4012219959266802	0.6632231404958678
2842.803955078125	0.1732585933735581	-9.820646388142549	-2.108619779118603	-0.3622810739724808	-0.7399471462665556	-0.003776660722940747	0.1827515400410678	-0.4012219959266802	0.6632231404958678
2846.710205078125	0.02884922490676563	-9.770672083946813	-1.961640830225521	-0.003613547993252729	-0.3644839804294728	0.3613547993252729	0.1827515400410678	-0.4012219959266802	0.6632231404958678
2850.616455078125	0.08146424287542753	-9.640326561470276	-2.048808095847584	-0.3549796061576758	-0.7546230965743135	-0.7339234422034364	0.1601642710472279	-0.3869653767820774	0.6900826446280992
2854.522705078125	0.1807441557489072	-9.831559389641187	-2.024805191630239	1.449421783203121	-0.01478705960059195	-0.01464208842803713	0.1601642710472279	-0.3869653767820774	0.6900826446280992
2858.428955078125	0.3742741756772849	-9.595651349864346	-1.809139189242829	0.3622810739724808	0.7399471462665556	0.003776660722940747	0.1601642710472279	-0.3869653767820774	0.6900826446280992
2862.335205078125	0.009897156322232472	-9.830133252789146	-1.996571877407749	-0.3550539779859753	-0.01097918540760998	-0.7264862593734864	0.1601642710472279	-0.3869653767820774	0.6900826446280992
2866.241455078125	0.1474116373208753	-9.912336903932918	-1.913721244029176	0.7245621479449615	1.479894292533111	0.007553321445881495	0.162217659137577	-0.4073319755600814	0.6673553719008265
2870.147705078125	0.1369679687013275	-9.61238035678657	-1.898932290044249	0.003576362079102979	0.7363059360128246	-0.3576362079102978	0.162217659137577	-0.4073319755600814	0.6673553719008265
2874.053955078125	-0.2058427132876619	-9.636555810629677	-2.138576223744606	0.003501990250803478	1.479949847179528	-0.3501990250803478	0.162217659137577	-0.4073319755600814	0.6673553719008265
2877.960205078125	-0.01844814166103463	-9.869298232470403	-2.051728611298846	-0.0001859295707487508	1.859109777916759	0.01859295707487508	0.1519507186858316	-0.3910386965376782	0.6673553719008265
2881.866455078125	0.08017169791828498	-9.830744484339753	-2.005723263942833	-0.00391103530645073	2.610091664237342	0.391103530645073	0.1519507186858316	-0.3910386965376782	0.6673553719008265
2885.772705078125	-0.1282789752066377	-9.938143535316813	-2.057367493112078	-0.3624670035432295	1.119162631650203	0.01481629635193433	0.1519507186858316	-0.3910386965376782	0.6673553719008265
2889.678955078125	-0.09354429391478669	-9.810245988365782	-1.881856869507111	-7.437182829950031e-05	0.7436439111667036	0.007437182829950031	0.1519507186858316	-0.3910386965376782	0.6673553719008265
2893.585205078125	-0.2260060991718723	-9.589741972065573	-1.799796694270926	-3.718591414975016e-05	0.3718219555833518	0.003718591414975016	0.1519507186858316	-0.3910386965376782	0.6673553719008265
2897.491455078125	-0.08498226792351352	-9.837477599961938	-2.167257735882883	0.3587418978075275	-0.3681807453296208	0.3576942772182636	0.1519507186858316	-0.3910386965376782	0.6673553719008265
2901.397705078125	0.00648244023655386	-9.797904010990182	-2.216081341218462	-0.003576362079102979	-0.7363059360128246	0.3576362079102978	0.1519507186858316	-0.3910386965376782	0.6673553719008265
2905.303955078125	0.2894338589998273	-9.633083052256724	-1.981128633327576	-0.007227095986505457	-0.7289679608589457	0.7227095986505457	0.1868583162217659	-0.4032586558044806	0.6962809917355373
2909.210205078125	0.04508213851129419	-9.792090108548015	-1.836071283709806	-1.086880407831592	-1.848019483216315	-0.007611390753847227	0.1868583162217659	-0.4032586558044806	0.6962809917355373
2913.116455078125	0.07214672080792341	-9.460005893605439	-2.071557360264114	-1.449198667718223	-2.216144673899519	-0.007669460061812957	0.1868583162217659	-0.4032586558044806	0.6962809917355373
2917.022705078125	0.248720664394921	-9.772913651845643	-1.957355479830699	0.3588534555499768	-1.483646612079676	0.3465385029733385	0.1663244353182751	-0.3890020366598778	0.6983471074380165
2920.928955078125	0.1333876428285836	-9.680204662152091	-2.112921427619454	-1.086917593745742	-1.476197527632963	-0.00389279933887221	0.1663244353182751	-0.3890020366598778	0.6983471074380165
2924.835205078125	0.1892509784778253	-9.892142183625504	-1.975032615927508	-0.3621323303158818	-2.227234968599963	-0.01865102638284081	0.1663244353182751	-0.3890020366598778	0.6983471074380165
2928.741455078125	0.2498775670502768	-9.702539586653744	-1.995918901675892	-0.3659318078798833	-0.7326091711126765	0.3612967300173071	0.1663244353182751	-0.3890020366598778	0.6983471074380165
2932.647705078125	0.2420607851007972	-9.891733679484075	-2.06869283669324	-1.086917593745742	-1.476197527632963	-0.00389279933887221	0.1560574948665298	-0.3849287169042769	0.6900826446280992
2936.553955078125	0.2254879771237681	-9.713758887396649	-1.849599237458936	-0.3622810739724808	-0.7399471462665556	-0.003776660722940747	0.1560574948665298	-0.3849287169042769	0.6900826446280992
2940.460205078125	0.2286124817730657	-9.692748630893377	-1.953749392435523	-0.3585931541509285	-1.119107077003786	-0.3725686428781636	0.1560574948665298	-0.3849287169042769	0.6900826446280992
2944.366455078125	-0.007260806235760523	-9.472347660682896	-1.757973125474649	0.003762291649851729	-1.122803841903934	-0.3762291649851729	0.1765913757700205	-0.4012219959266802	0.6859504132231405
2948.272705078125	0.008035229144798933	-9.640735275909849	-1.934507638159965	0.0001115577424492505	-1.115465866750055	-0.01115577424492505	0.1765913757700205	-0.4012219959266802	0.6859504132231405
2952.178955078125	0.04628399239456768	-9.751701509125756	-1.876133079818923	-0.7098848404870521	-2.252890104315331	-1.475284067236823	0.1765913757700205	-0.4012219959266802	0.6859504132231405
2956.085205078125	0.116738338902291	-9.872254603754927	-1.8912779634097	0.366117737450632	-1.126500606804082	-0.3798896870921822	0.1765913757700205	-0.3991853360488798	0.6714876033057852
2959.991455078125	0.04331878858806616	-10.01932692502319	-2.110626286268872	0.3624298176290798	-0.7473406760668516	-0.01109770493695932	0.1765913757700205	-0.3991853360488798	0.6714876033057852
2963.897705078125	0.2977151369711232	-9.753738772379336	-1.923837899037439	-0.3623554458007803	0.003696764900147988	0.003660522107009284	0.1765913757700205	-0.3991853360488798	0.6714876033057852
2967.803955078125	0.1341880901327323	-9.863279184190416	-1.806269671091077	-0.3623182598866305	-0.3681251906832038	-5.806930796573191e-05	0.1765913757700205	-0.3991853360488798	0.6714876033057852
2971.710205078125	-0.009067530150838988	-9.249598501415436	-2.031082328305367	0.3622810739724808	0.7399471462665556	0.003776660722940747	0.1868583162217659	-0.4073319755600814	0.6900826446280992
2975.616455078125	-0.2025273630742224	-9.462150514060665	-1.582421230859254	-0.007338653728954708	0.3864979058911098	0.7338653728954707	0.1868583162217659	-0.4073319755600814	0.6900826446280992
2979.522705078125	-0.0456444231692824	-9.271425030158069	-1.811852561023921	-0.007264281900655208	-0.3571460052755938	0.7264281900655207	0.1868583162217659	-0.4073319755600814	0.6900826446280992
2983.428955078125	-0.05554946567185132	-9.541294327233899	-1.81501781093829	-0.3658946219657335	-1.104431126696028	0.3575781386023321	0.162217659137577	-0.3828920570264766	0.7107438016528926
2987.335205078125	0.09110273248262478	-9.683876783163951	-1.703424416087492	-0.007189910072355707	-1.100789916442297	0.7189910072355706	0.162217659137577	-0.3828920570264766	0.7107438016528926
2991.241455078125	-0.04004286927630891	-9.639613861066005	-1.998571024123037	0.358816269635827	-1.111824656496325	0.3502570943883135	0.162217659137577	-0.3828920570264766	0.7107438016528926
2995.147705078125	0.211467137103611	-9.974958959003166	-1.715571236787033	-1.086991965574041	-0.7325536164662596	0.003544383491077821	0.162217659137577	-0.3828920570264766	0.7107438016528926
2999.053955078125	0.4992961584049728	-9.62522757544906	-1.97653861349909	-0.3623182598866305	-0.3681251906832038	-5.806930796573191e-05	0.1704312114989733	-0.3991853360488798	0.6776859504132231
3002.960205078125	0.3090010496506028	-9.773422993946307	-1.966701655020093	0	0	0	0.1704312114989733	-0.3991853360488798	0.6776859504132231
3006.866455078125	0.0602661901310762	-9.113847265190952	-1.675539671035873	0.003650733907402479	-0.007337975153878983	-0.3650733907402479	0.1704312114989733	-0.3991853360488798	0.6776859504132231
3010.772705078125	-0.1310509675948964	-9.422373146189019	-1.631634413503454	-0.3624670035432295	1.119162631650203	0.01481629635193433	0.1601642710472279	-0.4012219959266802	0.6673553719008265
3014.678955078125	0.2545343565389447	-9.651033891385742	-2.151145217964824	-0.3588534555499768	1.483646612079676	-0.3465385029733385	0.1601642710472279	-0.4012219959266802	0.6673553719008265
3018.585205078125	0.04105151174133959	-9.770060011203634	-2.035050391377986	-0.3551283498142748	0.7326647257590937	-0.7190490765435364	0.1601642710472279	-0.4012219959266802	0.6673553719008265
3022.491455078125	-0.01753097888790664	-9.639001683173756	-2.082300703736446	0.003464804336653728	1.85177180276288	-0.3464804336653728	0.1683778234086242	-0.4012219959266802	0.6818181818181819
3026.397705078125	0.0418022761093687	-9.84981726405797	-2.06007587031229	0.3659318078798833	0.7326091711126765	-0.3612967300173071	0.1683778234086242	-0.4012219959266802	0.6818181818181819
3030.303955078125	0.08885438246870567	-9.727937083001786	-2.295146082290189	0.003539176164953228	1.108127891596177	-0.3539176164953228	0.1683778234086242	-0.4012219959266802	0.6818181818181819
3034.210205078125	0.2853030777396	-9.614418671530863	-1.84343592465333	0.003501990250803478	1.479949847179528	-0.3501990250803478	0.1683778234086242	-0.4012219959266802	0.6818181818181819
3038.116455078125	-0.09888244938452309	-9.96863865863433	-2.037251687182565	-0.3515148018210221	1.097148706188567	-1.080403875868809	0.1724845995893224	-0.405295315682281	0.6859504132231405
3042.022705078125	-0.003857130802552933	-9.777913805626158	-2.20476230658157	0.7245621479449615	1.479894292533111	0.007553321445881495	0.1724845995893224	-0.405295315682281	0.6859504132231405
3045.928955078125	-0.01729123900567886	-9.798924167278503	-2.090292033144038	-0.7212089013507571	1.487343376979824	-0.3428779808663293	0.1724845995893224	-0.405295315682281	0.6859504132231405
3049.835205078125	-0.04922632627809354	-9.759249845496585	-2.025789124063549	-0.3551655357284246	1.104486681342445	-0.7153304851285613	0.1724845995893224	-0.4195519348268839	0.6880165289256198
3053.741455078125	-0.1416626118556104	-9.852470911166646	-1.611246271479655	-0.36239263171493	0.3755187204834998	0.007379113521984299	0.1724845995893224	-0.4195519348268839	0.6880165289256198
3057.647705078125	-0.2343835885432727	-9.755784026962326	-2.187213715224245	0	0	0	0.1724845995893224	-0.4195519348268839	0.6880165289256198
3061.553955078125	-0.3409653157902623	-9.956912118772184	-1.967822806991256	-0.362243888058331	-1.111769101849907	-0.007495252137915762	0.1724845995893224	-0.4195519348268839	0.6880165289256198
3065.460205078125	-0.3393723073623015	-9.756397046047145	-2.020923087923288	-0.007189910072355707	-1.100789916442297	0.7189910072355706	0.1724845995893224	-0.4195519348268839	0.6880165289256198
3069.366455078125	-0.08458638167062424	-9.750682930073502	-1.847120610979193	-0.3694709840448365	-1.840737062708853	0.7152143465126299	0.1724845995893224	-0.4195519348268839	0.6880165289256198
3073.272705078125	0.04494176450130555	-9.838802162811247	-2.164725483376852	-0.728212881852364	-1.472556317379232	0.3575200692943664	0.1724845995893224	-0.4195519348268839	0.6880165289256198
3077.178955078125	-0.06227006855456568	-9.830133988832642	-1.924331048181144	-0.7282500677665138	-1.10073436179588	0.3612386607093414	0.1581108829568789	-0.405295315682281	0.6632231404958678
3081.085205078125	0.3515012527197465	-9.773014594953949	-2.050041757324881	-0.724487776116662	-2.223538203699815	-0.01499050427583152	0.1581108829568789	-0.405295315682281	0.6632231404958678
3084.991455078125	-0.0003225447757604106	-9.890104289477495	-1.989248507474653	-0.3658946219657335	-1.104431126696028	0.3575781386023321	0.1581108829568789	-0.405295315682281	0.6632231404958678
3088.897705078125	-0.02179661383188716	-9.530380905138978	-1.940112872270429	-0.01080345806560844	-1.46527389687177	1.080345806560844	0.1704312114989733	-0.4175152749490835	0.6797520661157025
3092.803955078125	0.3963357651684765	-9.505184769262192	-1.877858838949214	-0.003501990250803478	-1.479949847179528	0.3501990250803478	0.1704312114989733	-0.4175152749490835	0.6797520661157025
3096.710205078125	0.2282213272283783	-9.852875104196158	-1.940710907612609	-0.7245993338591113	-1.108072336949759	-0.003834730030906479	0.1704312114989733	-0.4175152749490835	0.6797520661157025
3100.616455078125	0.2755037100535393	-9.744253800416024	-1.850123668451309	-0.003613547993252729	-0.3644839804294728	0.3613547993252729	0.1704312114989733	-0.4175152749490835	0.6797520661157025
3104.522705078125	0.4110450687320048	-9.913762094443319	-2.034835624400157	0.3587047118933778	0.003641210253730994	0.3614128686332386	0.1745379876796715	-0.4032586558044806	0.6942148760330579
3108.428955078125	0.3255951503145404	-9.61472423473163	-1.853171677151343	-0.7247108916015605	0.007393529800295976	0.007321044214018567	0.1745379876796715	-0.4032586558044806	0.6942148760330579
3112.335205078125	0.3286447362506418	-9.543738201945626	-1.954824541688058	-0.7210601576941581	5.555464641699391e-05	-0.3577523465262293	0.1745379876796715	-0.4032586558044806	0.6942148760330579
3116.241455078125	0.4291856493599182	-9.944563306706961	-1.972854978663939	-0.366117737450632	1.126500606804082	0.3798896870921822	0.1581108829568789	-0.4032586558044806	0.6735537190082644
3120.147705078125	0.06499553247883941	-9.742318111165178	-1.833184415961314	0.003576362079102979	0.7363059360128246	-0.3576362079102978	0.1581108829568789	-0.4032586558044806	0.6735537190082644
3124.053955078125	0.3930700978911566	-9.782907335015192	-2.102336596371884	0.003539176164953228	1.108127891596177	-0.3539176164953228	0.1581108829568789	-0.4032586558044806	0.6735537190082644
3127.960205078125	0.2979856329566631	-9.723651312010679	-1.932854431888769	-0.7174466097009052	0.3645395350758898	-0.7191071458515021	0.1581108829568789	-0.4032586558044806	0.6735537190082644
3131.866455078125	0.1623378108436557	-9.904177441160551	-1.744593694788523	-0.7174466097009052	0.3645395350758898	-0.7191071458515021	0.1581108829568789	-0.4032586558044806	0.6735537190082644
3135.772705078125	0.2727853436915684	-9.61513273887306	-1.759511456385611	0.3622810739724808	0.7399471462665556	0.003776660722940747	0.1581108829568789	-0.4032586558044806	0.6735537190082644
3139.678955078125	0.2796794425416844	-9.792903646911522	-1.989314751389479	-1.083527161237388	1.11921818629662	-0.342936050174295	0.1581108829568789	-0.4032586558044806	0.6735537190082644
3143.585205078125	0.1174449406604361	-9.712026135853124	-1.914831355347869	-0.3588534555499768	1.483646612079676	-0.3465385029733385	0.1642710472279261	-0.405295315682281	0.6756198347107438
3147.491455078125	-0.05665116506485202	-9.578317210037635	-2.1116278311716	-0.7248224493440097	1.122859396550351	0.01847681845894361	0.1642710472279261	-0.405295315682281	0.6756198347107438
3151.397705078125	0.2300793113156436	-9.758941022674609	-2.335977043854786	-0.3625041894573793	1.490984587233555	0.01853488776690934	0.1642710472279261	-0.405295315682281	0.6756198347107438
3155.303955078125	0.0619412148345361	-9.739972340536834	-2.064707161151203	-0.00383666347815123	1.866447753070638	0.3836663478151229	0.162217659137577	-0.395112016293279	0.6942148760330579
3159.210205078125	-0.003882366579629531	-9.831255298527413	-1.870587780679016	-0.7212089013507571	1.487343376979824	-0.3428779808663293	0.162217659137577	-0.395112016293279	0.6942148760330579
3163.116455078125	-0.2438769724322794	-9.738853554419771	-1.870767585590687	-0.007450211471403958	1.501963772641165	0.7450211471403958	0.162217659137577	-0.395112016293279	0.6942148760330579
3167.022705078125	0.06642293111973509	-9.64185658560462	-1.880764370657836	-0.003762291649851729	1.122803841903934	0.3762291649851729	0.162217659137577	-0.395112016293279	0.6942148760330579
3170.928955078125	0.08517942243192451	-9.662458653413678	-1.839314081064151	-0.7248224493440097	1.122859396550351	0.01847681845894361	0.1601642710472279	-0.3971486761710794	0.6611570247933884
3174.835205078125	0.01756331222728602	-9.750987862379842	-1.918777074242868	-0.7247480775157102	0.3792154853836477	0.01103963562899358	0.1601642710472279	-0.3971486761710794	0.6611570247933884
3178.741455078125	0.1236939499590313	-9.670005622846581	-2.123131665301043	-0.3624298176290798	0.7473406760668516	0.01109770493695932	0.1601642710472279	-0.3971486761710794	0.6611570247933884
3182.647705078125	-0.1574941188810141	-9.60758976510486	-2.083529370632863	-0.3624298176290798	0.7473406760668516	0.01109770493695932	0.1745379876796715	-0.3991853360488798	0.6797520661157025
3186.553955078125	-0.1228800961483107	-9.609731231087954	-1.903996795056311	-0.003687919821552229	0.3791599307372308	0.3687919821552229	0.1745379876796715	-0.3991853360488798	0.6797520661157025
3190.460205078125	0.107615605489097	-9.82187095422519	-1.920520182969899	-0.7210601576941581	5.555464641699391e-05	-0.3577523465262293	0.1745379876796715	-0.3991853360488798	0.6797520661157025
3194.366455078125	0.110865500405744	-9.744153488202144	-1.695516680191466	-3.718591414975016e-05	0.3718219555833518	0.003718591414975016	0.1745379876796715	-0.3991853360488798	0.6797520661157025
3198.272705078125	0.1008524172325658	-9.450724385094805	-2.028413907752194	0	0	0	0.1745379876796715	-0.3991853360488798	0.6797520661157025
3202.178955078125	0.1765684232607621	-9.782909543145687	-1.885614108692069	-0.7248224493440097	1.122859396550351	0.01847681845894361	0.1745379876796715	-0.3991853360488798	0.6797520661157025
3206.085205078125	0.04584867523999618	-9.671842261672401	-1.861622507999873	-0.7173722378726058	-0.3791043760908138	-0.7265443286814521	0.1745379876796715	-0.3991853360488798	0.6797520661157025
3209.991455078125	-0.3504933988727494	-9.846659532302189	-1.983553370908354	3.718591414975016e-05	-0.3718219555833518	-0.003718591414975016	0.1848049281314169	-0.405295315682281	0.6838842975206612
3213.897705078125	0.1280802434621593	-9.648587387947234	-2.269341448738645	-0.3623554458007803	0.003696764900147988	0.003660522107009284	0.1848049281314169	-0.405295315682281	0.6838842975206612
3217.803955078125	0.04207356071294224	-9.609729548702816	-2.069118690431408	-0.7320495453305153	0.3938914356914057	0.7411864171094893	0.1848049281314169	-0.405295315682281	0.6838842975206612
3221.710205078125	0.1303987804810728	-9.581171060977788	-2.013292682702426	-0.007338653728954708	0.3864979058911098	0.7338653728954707	0.1581108829568789	-0.4012219959266802	0.6756198347107438
3225.616455078125	-0.1917587838248133	-9.90866867343669	-1.941373872506225	-0.007301467814804958	0.01467595030775797	0.7301467814804957	0.1581108829568789	-0.4012219959266802	0.6756198347107438
3229.522705078125	0.04106728410201247	-9.570054911473683	-2.035576136733749	-0.373270461608838	-0.3461112652215669	1.095162102912778	0.1581108829568789	-0.4012219959266802	0.6756198347107438
3233.428955078125	0.1513783860301047	-9.611054321850265	-2.04594620100349	-1.086991965574041	-0.7325536164662596	0.003544383491077821	0.1581108829568789	-0.4012219959266802	0.6756198347107438
3237.335205078125	0.1640309737618894	-9.70029665181699	-2.13436579206298	-0.7282872536806635	-0.7289124062125286	0.3649572521243164	0.1786447638603696	-0.395112016293279	0.6632231404958678
3241.241455078125	-0.06997013503506594	-9.605957010328005	-2.33432883216447	-0.007301467814804958	0.01467595030775797	0.7301467814804957	0.1786447638603696	-0.395112016293279	0.6632231404958678
3245.147705078125	0.0800967792050888	-9.780768708057019	-2.00322597350296	-0.728361625508963	0.01473150495417496	0.3723944349542664	0.1786447638603696	-0.395112016293279	0.6632231404958678
3249.053955078125	0.02710164734421047	-9.797903800692039	-2.236721578140349	-0.365968993794033	-0.3607872155293249	0.3650153214322821	0.1745379876796715	-0.3849287169042769	0.6983471074380165
3252.960205078125	-0.05753757173466791	-9.618603814860876	-2.082080942177737	0.3551283498142748	-0.7326647257590937	0.7190490765435364	0.1745379876796715	-0.3849287169042769	0.6983471074380165
3256.866455078125	-0.05328692053332662	-9.717229437639109	-2.22376931555578	-1.090456769910695	-2.58432541922914	0.3500248171564506	0.1745379876796715	-0.3849287169042769	0.6983471074380165
3260.772705078125	0.09700553846445029	-9.831968209229828	-1.900184615481676	-0.3657830642232843	-2.219896993446084	0.346422364357407	0.1745379876796715	-0.3849287169042769	0.6983471074380165
3264.678955078125	0.3575002701016766	-9.634408246000458	-1.916675670055884	0.7175953533575042	-1.851827357409297	0.7042327801916021	0.1745379876796715	-0.3849287169042769	0.6983471074380165
3268.585205078125	0.1890112385955975	-9.732219699520758	-1.967041286519915	-0.3657830642232843	-2.219896993446084	0.346422364357407	0.1745379876796715	-0.3849287169042769	0.6983471074380165
3272.491455078125	0.4538212881129239	-9.746597783510156	-1.79404293709746	-0.7281385100240645	-2.216200228545936	0.3500828864644163	0.1745379876796715	-0.3849287169042769	0.6983471074380165
3276.397705078125	0.2203761550296875	-9.602078376540403	-2.012538500989584	-0.362243888058331	-1.111769101849907	-0.007495252137915762	0.1827515400410678	-0.4073319755600814	0.6797520661157025
3280.303955078125	0.5659044147626142	-9.917024239226755	-1.863480492087138	-0.3696197277014355	-0.3534492403754458	0.73008871217253	0.1827515400410678	-0.4073319755600814	0.6797520661157025
3284.210205078125	0.3837525758236525	-9.602586667150353	-2.125085860788413	-0.7174094237867555	-0.007282420507461989	-0.7228257372664771	0.1827515400410678	-0.4073319755600814	0.6797520661157025
3288.116455078125	0.1372226923261945	-9.782297996147863	-1.907423077539817	-0.3660805515364823	0.7546786512207306	0.3761710956772072	0.1663244353182751	-0.3971486761710794	0.6900826446280992
3292.022705078125	0.2426025656899107	-9.621558503760262	-2.086752189663688	-0.007450211471403958	1.501963772641165	0.7450211471403958	0.1663244353182751	-0.3971486761710794	0.6900826446280992
3295.928955078125	0.2760439134065855	-9.894079134665203	-1.868130446886181	-0.0002231154848985009	2.230931733500111	0.02231154848985009	0.1663244353182751	-0.3971486761710794	0.6900826446280992
3299.835205078125	0.1457602711584247	-9.652870845658775	-1.858675705280823	0.003464804336653728	1.85177180276288	-0.3464804336653728	0.1663244353182751	-0.3971486761710794	0.6900826446280992
3303.741455078125	-0.02384071177509246	-9.851041830140613	-1.871976274163585	0.3584444104943295	2.606394899337194	0.3874430085380637	0.1663244353182751	-0.4032586558044806	0.6921487603305785
3307.647705078125	0.2860995819535804	-9.514161135168344	-1.869986065119345	-0.3590021992065758	2.970934434413083	-0.3316641373134385	0.1663244353182751	-0.4032586558044806	0.6921487603305785
3311.553955078125	0.1224920960757578	-9.710394222268837	-2.083069869191926	0.3657458783091345	2.591718949029436	-0.342703772942432	0.1663244353182751	-0.4032586558044806	0.6921487603305785
3315.460205078125	-0.02086525593415356	-9.520079766085377	-1.971158135528215	0.7244134042883625	2.967182114866518	0.02242768710578156	0.1724845995893224	-0.3869653767820774	0.6838842975206612
3319.366455078125	0.1071045810032956	-9.9020361854756	-1.903486033443188	0.3620579584875823	2.970878879766667	0.02608820921279084	0.1724845995893224	-0.3869653767820774	0.6838842975206612
3323.272705078125	-0.09372409882645752	-9.690304125287222	-1.875863372451416	0.003353246594204478	2.967237669512935	-0.3353246594204478	0.1724845995893224	-0.3869653767820774	0.6838842975206612
3327.178955078125	0.05259845698995537	-9.612993165573247	-1.753281899665179	-0.7140189912784013	2.588133293422122	-1.0618689881019	0.1663244353182751	-0.415478615071283	0.6818181818181819
3331.085205078125	-0.05286185541319249	-9.860425333250266	-1.904604819560251	-0.0002231154848985009	2.230931733500111	0.02231154848985009	0.1663244353182751	-0.415478615071283	0.6818181818181819
3334.991455078125	-0.2855262566431212	-9.815653489647941	-2.149124778562628	0.3658574360515838	1.47625308227938	-0.3538595471873571	0.1663244353182751	-0.415478615071283	0.6818181818181819
3338.897705078125	-0.1666586490499913	-10.02055296319283	-1.778045031666957	0.007227095986505457	0.7289679608589457	-0.7227095986505457	0.1663244353182751	-0.415478615071283	0.6818181818181819
3342.803955078125	0.09249937502020834	-9.773425202076801	-1.749979167340278	-0.003725105735701979	0.7509818863205826	0.3725105735701979	0.162217659137577	-0.415478615071283	0.7024793388429752
3346.710205078125	-0.1155751273026661	-9.710702624494527	-1.814162423244464	0.358667525979228	0.3754631658370828	0.3651314600482136	0.162217659137577	-0.415478615071283	0.7024793388429752
3350.616455078125	-0.2866673869378041	-9.686022455109891	-2.111087102073198	-1.086954779659892	-1.104375572049612	-0.000174207923897194	0.162217659137577	-0.415478615071283	0.7024793388429752
3354.522705078125	-0.2067890549280347	-9.636861794426732	-2.107031502398844	-0.3585931541509285	-1.119107077003786	-0.3725686428781636	0.1560574948665298	-0.3869653767820774	0.6942148760330579
3358.428955078125	0.05380977428963259	-9.719268172979685	-2.126992476321086	-0.003613547993252729	-0.3644839804294728	0.3613547993252729	0.1560574948665298	-0.3869653767820774	0.6942148760330579
3362.335205078125	-0.04076445477709319	-9.78984717371126	-1.974518174096894	0.0001487436565990006	-1.487287822333407	-0.01487436565990006	0.1560574948665298	-0.3869653767820774	0.6942148760330579
3366.241455078125	0.1126627609044187	-9.820239040640903	-2.088758696813957	-1.090493955824845	-2.212503463645788	0.3537434085714256	0.1560574948665298	-0.3869653767820774	0.6942148760330579
3370.147705078125	0.4817714884613353	-9.584227218730835	-2.059049615377841	-0.3622067021441813	-1.483591057433259	-0.01121384355289078	0.1560574948665298	-0.3869653767820774	0.6942148760330579
3374.053955078125	0.08878498408174498	-9.541292855146903	-1.9594994693915	-0.3622067021441813	-1.483591057433259	-0.01121384355289078	0.1560574948665298	-0.3869653767820774	0.6942148760330579
3377.960205078125	0.1138401676286492	-9.623191679133404	-1.794672254288308	-1.075928206109385	-1.870033408677952	-1.102831562974591	0.1560574948665298	-0.3869653767820774	0.6942148760330579
3381.866455078125	0.2191884962710196	-9.862462386205705	-1.972949875700654	-0.362243888058331	-1.111769101849907	-0.007495252137915762	0.1745379876796715	-0.405295315682281	0.6756198347107438
3385.772705078125	0.1222515675754964	-9.76047199315059	-2.075052252516546	7.437182829950031e-05	-0.7436439111667036	-0.007437182829950031	0.1745379876796715	-0.405295315682281	0.6756198347107438
3389.678955078125	0.2986165273835784	-9.723447322812643	-1.953884246119276	-1.083378417580789	-0.3680696360367868	-0.357810415834195	0.1745379876796715	-0.405295315682281	0.6756198347107438
3393.585205078125	0.05482157122679787	-9.62227435863667	-1.827385707559929	-0.362243888058331	-1.111769101849907	-0.007495252137915762	0.1581108829568789	-0.3849287169042769	0.6859504132231405
3397.491455078125	0.2992923730384113	-9.753228799384246	-1.976412434613707	0.0001115577424492505	-1.115465866750055	-0.01115577424492505	0.1581108829568789	-0.3849287169042769	0.6859504132231405
3401.397705078125	0.2132344301170073	-10.03105420092883	-2.107814337233575	-0.7209485999517089	-1.115410312103638	-0.3689081207711543	0.1581108829568789	-0.3849287169042769	0.6859504132231405
3405.303955078125	0.3165567990309462	-9.760979968313327	-2.218559967698205	-1.086917593745742	-1.476197527632963	-0.00389279933887221	0.1581108829568789	-0.3849287169042769	0.6859504132231405
3409.210205078125	0.2401988579233637	-9.702335702604779	-2.006628597445456	-0.3512916863361236	-1.133783027311544	-1.102715424358659	0.1724845995893224	-0.3971486761710794	0.7004132231404959
3413.116455078125	0.1487191660206571	-9.731914136319988	-1.957305534021902	-0.3622810739724808	-0.7399471462665556	-0.003776660722940747	0.1724845995893224	-0.3971486761710794	0.7004132231404959
3417.022705078125	0.1525195163247876	-9.740685356388319	-2.08398387749292	-0.7172606801301565	-1.494570242840869	-0.7377001029263772	0.1724845995893224	-0.3971486761710794	0.7004132231404959
3420.928955078125	0.2906049567797887	-9.782704397307869	-2.020165225992955	-0.3623182598866305	-0.3681251906832038	-5.806930796573191e-05	0.1581108829568789	-0.4032586558044806	0.6900826446280992
3424.835205078125	0.1717278857702551	-9.431141316934283	-2.057596192341835	-0.3586303400650783	-0.7472851214204346	-0.3688500514631886	0.1581108829568789	-0.4032586558044806	0.6900826446280992
3428.741455078125	0.03804687703315587	-9.87103150975928	-1.934895901105196	-0.7319751735022159	-0.3497524754752979	0.7337492342795393	0.1581108829568789	-0.4032586558044806	0.6900826446280992
3432.647705078125	0.2494114937923932	-9.812690283673794	-1.980383126413105	-1.083415603494938	0.003752319546564981	-0.35409182441922	0.1581108829568789	-0.4032586558044806	0.6900826446280992
3436.553955078125	0.1183163635876127	-9.661744375773338	-1.943878786253757	-0.003687919821552229	0.3791599307372308	0.3687919821552229	0.1581108829568789	-0.4032586558044806	0.6900826446280992
3440.460205078125	0.02593133818228274	-9.438282200654395	-2.197711272742758	-0.007338653728954708	0.3864979058911098	0.7338653728954707	0.1581108829568789	-0.4032586558044806	0.6900826446280992
3444.366455078125	0.1782505455265248	-9.852365656946423	-1.941684850884159	-0.003613547993252729	-0.3644839804294728	0.3613547993252729	0.1581108829568789	-0.4032586558044806	0.6900826446280992
3448.272705078125	0.218166447299417	-10.02279284870652	-1.938881576647232	-0.3660061797081828	0.01103474005402697	0.3687339128472572	0.1704312114989733	-0.3971486761710794	0.6818181818181819
3452.178955078125	0.2978200231695979	-9.823704859175162	-1.927334105653261	-0.3587047118933778	-0.003641210253730994	-0.3614128686332386	0.1704312114989733	-0.3971486761710794	0.6818181818181819
3456.085205078125	0.2458508833704904	-9.963841547710208	-1.86169611234968	-1.079690497759237	-0.7472295667740175	-0.7266023979894179	0.1704312114989733	-0.3971486761710794	0.6818181818181819
3459.991455078125	0.1100548010671579	-9.624415614321618	-1.668493368905264	-0.365968993794033	-0.3607872155293249	0.3650153214322821	0.162217659137577	-0.4134419551934826	0.6735537190082644
3463.897705078125	0.09466255428649389	-9.742725774114035	-1.82208514288313	-0.362243888058331	-1.111769101849907	-0.007495252137915762	0.162217659137577	-0.4134419551934826	0.6735537190082644
3467.803955078125	-0.0759297215153138	-9.911217276623285	-1.802342616156207	-0.3623182598866305	-0.3681251906832038	-5.806930796573191e-05	0.162217659137577	-0.4134419551934826	0.6735537190082644
3471.710205078125	0.2834498253605365	-9.781684556466759	-2.114994178684548	-0.7100707700578009	-0.3937803263985717	-1.456691110161948	0.162217659137577	-0.4134419551934826	0.6735537190082644
3475.616455078125	0.1735937560378568	-9.903871352214427	-1.786458534595227	-1.449421783203121	0.01478705960059195	0.01464208842803713	0.1704312114989733	-0.4175152749490835	0.6818181818181819
3479.522705078125	0.3965447489473922	-9.855117197840343	-1.884824964913069	-0.003762291649851729	1.122803841903934	0.3762291649851729	0.1704312114989733	-0.4175152749490835	0.6818181818181819
3483.428955078125	0.1744202277371158	-9.823604126364998	-1.814007591237192	-0.7211717154366073	1.115521421396473	-0.3465965722813042	0.1704312114989733	-0.4175152749490835	0.6818181818181819
3487.335205078125	0.14050255472812	-9.724570840637908	-1.683418490937333	-0.003687919821552229	0.3791599307372308	0.3687919821552229	0.1560574948665298	-0.3910386965376782	0.6818181818181819
3491.241455078125	0.1080816787469806	-9.711720257205142	-1.936055958232686	0.7173722378726058	0.3791043760908138	0.7265443286814521	0.1560574948665298	-0.3910386965376782	0.6818181818181819
3495.147705078125	0.02862446876717708	-9.620744755098613	-1.954148958905903	0.3585931541509285	1.119107077003786	0.3725686428781636	0.1560574948665298	-0.3910386965376782	0.6818181818181819
3499.053955078125	0.03158336362940946	-9.699788045759824	-2.052778787646982	-0.00379947756400148	1.494625797487286	0.3799477564001479	0.1560574948665298	-0.3910386965376782	0.6818181818181819
3502.960205078125	-0.09918291285534145	-9.978735808489894	-2.027236238155286	-0.007413025557254208	1.130141817057813	0.7413025557254208	0.1560574948665298	-0.3910386965376782	0.6818181818181819
3506.866455078125	0.07062863109315866	-9.710496742613213	-2.020954369771955	-0.7210229717800084	-0.3717664009369348	-0.3614709379412043	0.1560574948665298	-0.3910386965376782	0.6818181818181819
3510.772705078125	-0.02310414253166895	-9.710803672751906	-1.896528582277702	-0.003725105735701979	0.7509818863205826	0.3725105735701979	0.1560574948665298	-0.3910386965376782	0.6818181818181819
3514.678955078125	0.1201932745076855	-9.861137507909181	-2.006442483589516	0.007227095986505457	0.7289679608589457	-0.7227095986505457	0.1560574948665298	-0.3849287169042769	0.6694214876033058
3518.585205078125	-0.0854475525633635	-9.737628041995489	-2.151748247887884	-0.3624298176290798	0.7473406760668516	0.01109770493695932	0.1560574948665298	-0.3849287169042769	0.6694214876033058
3522.491455078125	0.2338694095853368	-9.831048890900743	-2.128980319511225	-0.3587047118933778	-0.003641210253730994	-0.3614128686332386	0.1560574948665298	-0.3849287169042769	0.6694214876033058
3526.397705078125	0.0007444554237599528	-9.759759292746319	-2.024815180791999	-0.3624298176290798	0.7473406760668516	0.01109770493695932	0.1745379876796715	-0.4032586558044806	0.6776859504132231
3530.303955078125	-0.1394134732236576	-9.598410356342317	-2.019550892544747	0.3622067021441813	1.483591057433259	0.01121384355289078	0.1745379876796715	-0.4032586558044806	0.6776859504132231
3534.210205078125	-0.08600431689511617	-9.997808062462754	-2.133189436829461	-7.437182829950031e-05	0.7436439111667036	0.007437182829950031	0.1745379876796715	-0.4032586558044806	0.6776859504132231
3538.116455078125	-0.03302811186704532	-9.687345756170345	-2.232396271098489	3.718591414975016e-05	-0.3718219555833518	-0.003718591414975016	0.1745379876796715	-0.4032586558044806	0.6776859504132231
3542.022705078125	0.03150844491621328	-9.64981226947709	-2.050281497207109	0.003687919821552229	-0.3791599307372308	-0.3687919821552229	0.1642710472279261	-0.3930753564154786	0.6756198347107438
3545.928955078125	0.09389207446762368	-9.579641562588801	-2.129735815587456	-0.3513288722502733	-0.7619610717281925	-1.098996832943684	0.1642710472279261	-0.3930753564154786	0.6756198347107438
3549.835205078125	0.09028651281780321	-9.700807360855578	-2.009550427260107	-0.7172606801301565	-1.494570242840869	-0.7377001029263772	0.1642710472279261	-0.3930753564154786	0.6756198347107438
3553.741455078125	0.1308940326062012	-9.701010929457329	-2.029801086873374	3.718591414975016e-05	-0.3718219555833518	-0.003718591414975016	0.1642710472279261	-0.3971486761710794	0.6838842975206612
3557.647705078125	0.4383241551337852	-9.794941856506743	-1.944138504459503	-0.3622810739724808	-0.7399471462665556	-0.003776660722940747	0.1642710472279261	-0.3971486761710794	0.6838842975206612
3561.553955078125	0.1364877003188383	-9.502535643563574	-1.882923343961276	0.003725105735701979	-0.7509818863205826	-0.3725105735701979	0.1642710472279261	-0.3971486761710794	0.6838842975206612
3565.460205078125	-0.2347692227617246	-9.779242048692957	-1.841025907942514	-1.075965392023534	-1.4982114530946	-1.099112971559616	0.1642710472279261	-0.3971486761710794	0.6838842975206612
3569.366455078125	0.1657430635129306	-9.789743076130819	-2.191435450431019	-1.090531141738995	-1.840681508062436	0.3574619999864007	0.1642710472279261	-0.3971486761710794	0.6838842975206612
3573.272705078125	0.06371875988236973	-9.732730934304701	-1.790625329412324	-0.3731589038663887	-1.461577131971622	1.084006328667853	0.1642710472279261	-0.3971486761710794	0.6838842975206612
3577.178955078125	0.2020108182621856	-9.421349835428559	-2.067027275406184	-0.3585931541509285	-1.119107077003786	-0.3725686428781636	0.1642710472279261	-0.3971486761710794	0.6838842975206612
3581.085205078125	0.0965094977212882	-9.922128595736783	-1.88364992404294	-0.7245621479449615	-1.479894292533111	-0.007553321445881495	0.1540041067761807	-0.395112016293279	0.6859504132231405
3584.991455078125	0.6538400572221246	-9.628591714831513	-1.794668574070817	-1.090605513567294	-1.097037596895733	0.3648991828163506	0.1540041067761807	-0.395112016293279	0.6859504132231405
3588.897705078125	0.2759240434654716	-9.814117892612831	-1.864134782182385	-0.7282500677665138	-1.10073436179588	0.3612386607093414	0.1540041067761807	-0.395112016293279	0.6859504132231405
3592.803955078125	0.176584195621435	-9.582904443415735	-1.886139854047832	-0.003650733907402479	0.007337975153878983	0.3650733907402479	0.1560574948665298	-0.3971486761710794	0.6818181818181819
3596.710205078125	0.2284610671106061	-10.01279758830091	-1.948702237020201	0.358667525979228	0.3754631658370828	0.3651314600482136	0.1560574948665298	-0.3971486761710794	0.6818181818181819
3600.616455078125	0.1816005949334446	-9.771282474304853	-2.053353164448152	0.358667525979228	0.3754631658370828	0.3651314600482136	0.1560574948665298	-0.3971486761710794	0.6818181818181819
3604.522705078125	0.1961064350442928	-9.693258919335678	-1.870214501476424	0.3586303400650783	0.7472851214204346	0.3688500514631886	0.1560574948665298	-0.3971486761710794	0.6818181818181819
3608.428955078125	-0.002004667041523114	-9.820648175676759	-1.933177765282563	0.369545355873136	1.097093151542149	-0.7226515293425799	0.1704312114989733	-0.4032586558044806	0.6942148760330579
3612.335205078125	0.1476679381818096	-9.662254033321215	-1.922264606060319	0.003576362079102979	0.7363059360128246	-0.3576362079102978	0.1704312114989733	-0.4032586558044806	0.6942148760330579
3616.241455078125	0.02575389912471284	-10.02167290594968	-1.858463304157095	-0.3550911639001251	0.3608427701757418	-0.7227676679585114	0.1704312114989733	-0.4032586558044806	0.6942148760330579
3620.147705078125	0.2361429953763325	-9.733647098161653	-1.871433179211082	0.007189910072355707	1.100789916442297	-0.7189910072355706	0.1601642710472279	-0.395112016293279	0.6838842975206612
3624.053955078125	0.2516101608701927	-9.665312714651972	-1.720338695673089	0.3621695162300315	1.855413013016611	0.0149324349678658	0.1601642710472279	-0.395112016293279	0.6838842975206612
3627.960205078125	-0.232200693826146	-9.808411557670453	-1.926643539128467	0.01084064397975819	1.093451941288418	-1.084064397975818	0.1601642710472279	-0.395112016293279	0.6838842975206612
3631.866455078125	0.05489175823179219	-9.598918331505054	-2.163058607726406	-0.3477896960853201	0.3461668198679838	-1.452914449439007	0.1765913757700205	-0.4012219959266802	0.7024793388429752
3635.772705078125	-0.03776060868694311	-9.898875930142111	-2.074646377101897	1.090605513567294	1.097037596895733	-0.3648991828163506	0.1765913757700205	-0.4012219959266802	0.7024793388429752
3639.678955078125	-0.03180654253293073	-9.730284115418982	-1.939781915568976	0.3695081699589862	1.468915107125501	-0.7189329379276049	0.1765913757700205	-0.4012219959266802	0.7024793388429752
3643.585205078125	-0.2089979740402716	-9.847576011606355	-2.033400865324281	0.3659318078798833	0.7326091711126765	-0.3612967300173071	0.1765913757700205	-0.4012219959266802	0.7024793388429752
3647.491455078125	-0.07010025701061719	-9.589332416433432	-1.996658099646095	1.083341231666639	0.7398915916201386	0.36152900724917	0.1642710472279261	-0.3849287169042769	0.6880165289256198
3651.397705078125	0.1171247617387766	-9.638796327037795	-2.237492057959219	0.7210973436083078	-0.3718775102297688	0.3540337551112543	0.1642710472279261	-0.3849287169042769	0.6880165289256198
3655.303955078125	0.2901696396252172	-9.702845149854515	-2.005654654173906	-0.007152724158205957	-1.472611872025649	0.7152724158205956	0.1642710472279261	-0.3849287169042769	0.6880165289256198
3659.210205078125	0.04072108078524275	-9.760166850546106	-2.024036026174758	-0.01080345806560844	-1.46527389687177	1.080345806560844	0.1663244353182751	-0.4073319755600814	0.6921487603305785
3663.116455078125	-0.2532252506030956	-9.748542831028335	-1.892491646563478	-0.3622067021441813	-1.483591057433259	-0.01121384355289078	0.1663244353182751	-0.4073319755600814	0.6921487603305785
3667.022705078125	0.07516476202267908	-9.789030060279334	-2.172158734089303	-0.3731589038663887	-1.461577131971622	1.084006328667853	0.1663244353182751	-0.4073319755600814	0.6921487603305785
