Time Stamp	Accelerometer X	Accelerometer Y	Accelerometer Z	Gyroscope X	Gyroscope Y	Gyroscope Z	Magnetometer X	Magnetometer Y	Magnetometer Z
1848.663330078125	-0.398616448521775	-9.815552651688707	-2.046118382607502	-66.15425095309524	2.220084823027045	-15.00968729917308	0.2895277207392197	-0.405295315682281	0.6528925619834711
1852.569580078125	-0.1780384072754746	-9.657565751685738	-2.065386424150849	-11.56184831400365	-6.640540500080508	-3.235458454707484	0.297741273100616	-0.395112016293279	0.6590909090909091
1856.475830078125	-0.1371304240162582	-9.647672170431923	-2.095652532791395	-11.18060703812531	-13.00190038566703	-5.127701984570308	0.297741273100616	-0.395112016293279	0.6590909090909091
1860.382080078125	-0.1185545262337732	-9.758332630148921	-2.048182458874227	-27.53853046397536	-4.552731290172327	0.2298579917380304	0.297741273100616	-0.395112016293279	0.6590909090909091
1864.288330078125	-0.1286685525152578	-9.6782694986466	-2.04438158282474	-48.55249960619525	5.693535899632876	0.1774968514086463	0.297741273100616	-0.395112016293279	0.6590909090909091
1868.194580078125	0.07333201371249037	-9.82962264889963	-2.111067123749679	-59.07246626850893	12.88737316328249	1.449525401617184	0.2833675564681725	-0.4093686354378818	0.6301652892561984
1872.100830078125	-0.07423655859708009	-9.707336487279722	-2.192114713430664	11.58486829487256	-4.55814601834332	0.9334603678167464	0.2833675564681725	-0.4093686354378818	0.6301652892561984
1876.007080078125	0.02318221571699968	-9.499171083584836	-2.106073857233323	7.964964570772159	-4.528516344495719	0.6049921981465913	0.2833675564681725	-0.4093686354378818	0.6301652892561984
1879.913330078125	-0.02841154189809321	-9.679186398547049	-2.052948603396893	7.606222672964631	-4.160335599166099	0.2472979209283277	0.3100616016427105	-0.4114052953156823	0.6549586776859504
1883.819580078125	-0.3257276381441925	-9.665318602999957	-2.14241206186025	5.431904068589199	-2.279045231848452	0.2878540106452585	0.3100616016427105	-0.4114052953156823	0.6549586776859504
1887.725830078125	0.2126595275704808	-9.78790675275221	-2.421984252349359	3.264849746114425	-0.04060885925521088	-0.3980180897033314	0.3100616016427105	-0.4114052953156823	0.6549586776859504
1891.632080078125	-0.004037724332257414	-9.867972197534096	-2.198742522258087	0.724636519773261	0.7362503813664076	0.0001161386159314638	0.3100616016427105	-0.4114052953156823	0.6549586776859504
1895.538330078125	-0.2954005430423779	-9.895512842250369	-2.153315231920734	-1.079913613244135	1.483702166726093	-0.7042908494995678	0.3100616016427105	-0.4114052953156823	0.6549586776859504
1899.444580078125	-0.2800682312322709	-9.737222061431769	-1.997725625590971	-2.166942764732326	1.122970505843185	-0.697027874593515	0.3100616016427105	-0.4114052953156823	0.6549586776859504
1903.350830078125	-0.1267309180065944	-9.707642996822132	-2.108969399780186	-1.804550133017396	0.7474517853596856	-0.7044069881154993	0.3100616016427105	-0.4114052953156823	0.6549586776859504
1907.257080078125	-0.3627847995451252	-9.577300418519592	-1.907173348495829	-1.811888786746351	1.133949691250795	0.02945838477997146	0.2854209445585216	-0.3991853360488798	0.6342975206611571
1911.163330078125	-0.1849380264518261	-9.616463295219424	-2.168732451605797	-1.804475761189096	0.003807874192981977	-0.7118441709454493	0.2854209445585216	-0.3991853360488798	0.6342975206611571
1915.069580078125	-0.2408573539814564	-9.647877211120672	-1.971421533951452	-1.80801493735405	-1.104320017403194	-0.3579265544501265	0.2854209445585216	-0.3991853360488798	0.6342975206611571
1918.975830078125	-0.1355232204636917	-9.667152507949927	-2.149225984543612	-1.083378417580789	-0.3680696360367868	-0.357810415834195	0.3018480492813142	-0.4032586558044806	0.6384297520661157
1922.882080078125	0.1771693502023988	-9.762715243434558	-1.905645006746627	-0.7247108916015605	0.007393529800295976	0.007321044214018567	0.3018480492813142	-0.4032586558044806	0.6384297520661157
1926.788330078125	0.03854291777631795	-9.780871123252323	-1.951430592543932	-0.003576362079102979	-0.7363059360128246	0.3576362079102978	0.3018480492813142	-0.4032586558044806	0.6384297520661157
1930.694580078125	-0.1228398766285948	-9.566384893443246	-2.238670779046839	-0.362243888058331	-1.111769101849907	-0.007495252137915762	0.3018480492813142	-0.4032586558044806	0.6384297520661157
1934.600830078125	0.05112058679490647	-9.820137676936312	-2.037352893163549	-0.003613547993252729	-0.3644839804294728	0.3613547993252729	0.2833675564681725	-0.4032586558044806	0.6260330578512396
1938.507080078125	-0.06033243404590231	-9.859507487008175	-1.98891886513659	-1.083378417580789	-0.3680696360367868	-0.357810415834195	0.2833675564681725	-0.4032586558044806	0.6260330578512396
1942.413330078125	0.05603840885271059	-9.591880914470957	-1.86794696175702	-0.3624298176290798	0.7473406760668516	0.01109770493695932	0.2833675564681725	-0.4032586558044806	0.6260330578512396
1946.319580078125	-0.1349980008532848	-9.806982686942563	-2.16673330489051	-0.7247480775157102	0.3792154853836477	0.01103963562899358	0.2895277207392197	-0.4114052953156823	0.6446280991735538
1950.225830078125	0.04596854518111007	-9.751803503724773	-1.865618172703669	-0.007450211471403958	1.501963772641165	0.7450211471403958	0.2895277207392197	-0.4114052953156823	0.6446280991735538
1954.132080078125	-0.1272119750071173	-9.807798538585635	-2.092934166429424	-0.366117737450632	1.126500606804082	0.3798896870921822	0.2895277207392197	-0.4114052953156823	0.6446280991735538
1958.038330078125	-0.09640224566871264	-9.517836726099551	-2.119925144376246	-0.7211345295224576	0.7436994658131205	-0.3503151636962792	0.3080082135523614	-0.3890020366598778	0.6446280991735538
1961.944580078125	-0.2501614695423886	-9.897552208485372	-1.994617681920379	-0.7210601576941581	5.555464641699391e-05	-0.3577523465262293	0.3080082135523614	-0.3890020366598778	0.6446280991735538
1965.850830078125	-0.1867565796374092	-9.877051294082763	-2.10811401208636	-0.7247108916015605	0.007393529800295976	0.007321044214018567	0.3080082135523614	-0.3890020366598778	0.6446280991735538
1969.757080078125	-0.2383637437590741	-9.627070943815434	-2.054541874697532	-0.3623554458007803	0.003696764900147988	0.003660522107009284	0.3080082135523614	-0.3890020366598778	0.6446280991735538
1973.663330078125	-0.1855334330672274	-9.499989143358404	-1.815552231092423	-0.717335051958456	-0.7509263316741656	-0.7302629200964272	0.3223819301848049	-0.4073319755600814	0.6384297520661157
1977.569580078125	-0.2772883526636757	-9.486323234027923	-2.090388244544143	-0.3585931541509285	-1.119107077003786	-0.3725686428781636	0.3223819301848049	-0.4073319755600814	0.6384297520661157
1981.475830078125	-0.04632657776838447	-9.588312260145113	-2.122447407720518	-0.7172606801301565	-1.494570242840869	-0.7377001029263772	0.3223819301848049	-0.4073319755600814	0.6384297520661157
1985.382080078125	0.1817756681369136	-9.817892533969063	-2.392522271230452	-0.3549424202435261	-1.126445052157665	-0.7376420336184115	0.3100616016427105	-0.4032586558044806	0.6384297520661157
1989.288330078125	-0.1201901200355509	-9.298861472144829	-1.993662665481637	-0.3587790837216773	0.7400027009129726	-0.3539756858032885	0.3100616016427105	-0.4032586558044806	0.6384297520661157
1993.194580078125	-0.3198043280934923	-9.686736732750228	-2.006522396883592	-0.369694099529735	0.3901946707912577	0.73752589500248	0.3100616016427105	-0.4032586558044806	0.6384297520661157
1997.100830078125	-0.114348037642316	-9.616972532171015	-2.188398745256134	-0.3624298176290798	0.7473406760668516	0.01109770493695932	0.3100616016427105	-0.4032586558044806	0.6384297520661157
2001.007080078125	-0.128743471228454	-9.628293722363868	-2.041884292384867	-0.7174466097009052	0.3645395350758898	-0.7191071458515021	0.2956878850102669	-0.405295315682281	0.6528925619834711
2004.913330078125	-0.2647106836450872	-9.525589787711914	-2.17631054516376	-0.7210601576941581	5.555464641699391e-05	-0.3577523465262293	0.2956878850102669	-0.405295315682281	0.6528925619834711
2008.819580078125	-0.4154502890679402	-9.814328926798632	-2.151657031068659	-1.083341231666639	-0.7398915916201386	-0.36152900724917	0.2956878850102669	-0.405295315682281	0.6528925619834711
2012.725830078125	-0.05163476575284238	-9.766695240926753	-2.278841141571921	-0.7246737056874109	-0.3644284257830558	0.003602452799043552	0.3100616016427105	-0.4134419551934826	0.6363636363636364
2016.632080078125	-0.2648613096895132	-9.635638490132942	-2.171289677016227	-1.083341231666639	-0.7398915916201386	-0.36152900724917	0.3100616016427105	-0.4134419551934826	0.6363636363636364
2020.538330078125	-0.03873534057652712	-9.459191093453077	-2.042155314115763	-1.087029151488191	-0.3607316608829078	0.007262974906052836	0.3100616016427105	-0.4134419551934826	0.6363636363636364
2024.444580078125	-0.2701545139313319	-9.824016626171131	-2.328182868955604	-1.094256247474696	-1.089699621741854	0.7299725735565985	0.3121149897330596	-0.4012219959266802	0.6384297520661157
2028.350830078125	0.07106473686576381	-9.580355735080071	-2.035491228858794	-0.3623182598866305	-0.3681251906832038	-5.806930796573191e-05	0.3121149897330596	-0.4012219959266802	0.6384297520661157
2032.257080078125	-0.1957436707488165	-9.706623786875449	-2.141877641706117	-0.7282500677665138	-1.10073436179588	0.3612386607093414	0.3121149897330596	-0.4012219959266802	0.6384297520661157
2036.163330078125	-0.1668423970518304	-9.617279041713426	-2.105253431605655	-0.7209485999517089	-1.115410312103638	-0.3689081207711543	0.3121149897330596	-0.4012219959266802	0.6384297520661157
2040.069580078125	-0.2230077734079577	-9.835439180068573	-2.233074219734746	-0.7209485999517089	-1.115410312103638	-0.3689081207711543	0.2874743326488706	-0.3991853360488798	0.6239669421487604
2043.975830078125	-0.1215638926501588	-9.785972325290217	-2.28120357832804	-0.36239263171493	0.3755187204834998	0.007379113521984299	0.2874743326488706	-0.3991853360488798	0.6239669421487604
2047.882080078125	-0.1712294791729921	-9.848697531599266	-1.959017360900265	-1.087029151488191	-0.3607316608829078	0.007262974906052836	0.2874743326488706	-0.3991853360488798	0.6239669421487604
2051.788330078125	-0.3401080879876913	-9.686634948449354	-1.996397067076958	-0.3623554458007803	0.003696764900147988	0.003660522107009284	0.3018480492813142	-0.4012219959266802	0.6363636363636364
2055.694580078125	-0.2710551157257534	-9.644307820751328	-2.298162809141555	3.718591414975016e-05	-0.3718219555833518	-0.003718591414975016	0.3018480492813142	-0.4012219959266802	0.6363636363636364
2059.600830078125	-0.2297425714152776	-9.904283431424274	-2.341914286157414	0	0	0	0.3018480492813142	-0.4012219959266802	0.6363636363636364
2063.507080078125	-0.1279477556325072	-9.738036440987845	-2.068408145583095	-0.7100335841436511	-0.7656022819819236	-1.460409701576923	0.3018480492813142	-0.4012219959266802	0.6363636363636364
2067.413330078125	-0.08423150355548442	-9.917234852816273	-2.192283214817186	-0.7211345295224576	0.7436994658131205	-0.3503151636962792	0.3018480492813142	-0.4012219959266802	0.6363636363636364
2071.319580078125	0.01101857116607428	-9.876437328656303	-2.367285705535809	-0.7174466097009052	0.3645395350758898	-0.7191071458515021	0.3018480492813142	-0.4012219959266802	0.6363636363636364
2075.225830078125	-0.1521827764244217	-9.922539097710562	-2.59390745251928	-0.3587418978075275	0.3681807453296208	-0.3576942772182636	0.3018480492813142	-0.4012219959266802	0.6363636363636364
2079.132080078125	0.07762840475978301	-9.748233482461004	-2.254280158659433	-3.718591414975016e-05	0.3718219555833518	0.003718591414975016	0.2854209445585216	-0.4215885947046843	0.6177685950413223
2083.038330078125	0.0453187239213874	-9.458680279265419	-2.17729079737958	-3.718591414975016e-05	0.3718219555833518	0.003718591414975016	0.2854209445585216	-0.4215885947046843	0.6177685950413223
2086.944580078125	-0.2046116805371435	-9.82615777670701	-2.179610648761883	-1.075965392023534	-1.4982114530946	-1.099112971559616	0.2854209445585216	-0.4215885947046843	0.6177685950413223
2090.850830078125	-0.1407115385070357	-9.925496730783943	-2.309615383098811	-0.3622810739724808	-0.7399471462665556	-0.003776660722940747	0.2915811088295688	-0.405295315682281	0.640495867768595
2094.757080078125	-0.03236724995485164	-9.707132077485401	-2.254425001504946	-0.003539176164953228	-1.108127891596177	0.3539176164953228	0.2915811088295688	-0.405295315682281	0.640495867768595
2098.663330078125	-0.1664827872284887	-9.857162767870545	-2.117240425717044	-0.7209114140375591	-1.48723226768699	-0.3726267121861294	0.2915811088295688	-0.405295315682281	0.640495867768595
2102.569580078125	-0.03326864036730676	-9.737423527052096	-2.224378654423109	-0.7209114140375591	-1.48723226768699	-0.3726267121861294	0.2915811088295688	-0.405295315682281	0.640495867768595
2106.475830078125	0.09417676557776918	-9.769549512463188	-2.139225519258972	-0.003576362079102979	-0.7363059360128246	0.3576362079102978	0.3080082135523614	-0.3971486761710794	0.621900826446281
2110.382080078125	0.2651128788422457	-10.04094683584101	-2.170429294741521	-0.003576362079102979	-0.7363059360128246	0.3576362079102978	0.3080082135523614	-0.3971486761710794	0.621900826446281
2114.288330078125	-0.01850728801355794	-9.619317356457717	-2.049757066214736	0.3587418978075275	-0.3681807453296208	0.3576942772182636	0.3080082135523614	-0.3971486761710794	0.621900826446281
2118.194580078125	-0.1553009721294501	-9.59688064765519	-2.156634262351664	-0.007301467814804958	0.01467595030775797	0.7301467814804957	0.297741273100616	-0.3869653767820774	0.6177685950413223
2122.100830078125	-0.09348909065243161	-9.776894805977619	-2.217030311585614	0.7137586898793531	0.01462039566134097	1.087899128006725	0.297741273100616	-0.3869653767820774	0.6177685950413223
2126.007080078125	0.1219211366193995	-9.75057883249306	-2.064037887313318	-0.007338653728954708	0.3864979058911098	0.7338653728954707	0.297741273100616	-0.3869653767820774	0.6177685950413223
2129.913330078125	0.1242499256727503	-9.619825857365811	-2.141664189091677	0.3623554458007803	-0.003696764900147988	-0.003660522107009284	0.297741273100616	-0.3869653767820774	0.6177685950413223
2133.819580078125	0.08991113063378865	-9.660928734428408	-1.997037687792955	-3.718591414975016e-05	0.3718219555833518	0.003718591414975016	0.297741273100616	-0.3869653767820774	0.6177685950413223
2137.725830078125	0.2647083177909863	-9.77107764391425	-2.156943926366208	-0.007375839643104458	0.7583198614744615	0.7375839643104457	0.297741273100616	-0.3869653767820774	0.6177685950413223
2141.632080078125	-0.05899493786084205	-9.699075029908339	-2.033502071305265	0.3586303400650783	0.7472851214204346	0.3688500514631886	0.297741273100616	-0.3869653767820774	0.6177685950413223
2145.538330078125	-0.1422982379907275	-9.779343096950333	-1.923392066975752	-7.437182829950031e-05	0.7436439111667036	0.007437182829950031	0.2936344969199179	-0.4134419551934826	0.6466942148760331
2149.444580078125	0.1725535688514804	-9.560874346071355	-2.085118961716012	-0.3587790837216773	0.7400027009129726	-0.3539756858032885	0.2936344969199179	-0.4134419551934826	0.6466942148760331
2153.350830078125	0.07737289251688234	-9.788316098086209	-2.245763083896078	-0.0001487436565990006	1.487287822333407	0.01487436565990006	0.2936344969199179	-0.4134419551934826	0.6466942148760331
2157.257080078125	-0.1337362119994543	-9.80657470854649	-2.208792933351524	-0.00383666347815123	1.866447753070638	0.3836663478151229	0.2854209445585216	-0.3930753564154786	0.640495867768595
2161.163330078125	-0.1400199204915299	-9.755273107625595	-2.332669316949005	-0.3588534555499768	1.483646612079676	-0.3465385029733385	0.2854209445585216	-0.3930753564154786	0.640495867768595
2165.069580078125	-0.1702523814293071	-9.658381603328809	-1.991587285689763	0.003539176164953228	1.108127891596177	-0.3539176164953228	0.2854209445585216	-0.3930753564154786	0.640495867768595
2168.975830078125	-0.03013861539177362	-9.579744818976673	-1.99537948694088	-0.00379947756400148	1.494625797487286	0.3799477564001479	0.2854209445585216	-0.3930753564154786	0.640495867768595
2172.882080078125	-0.07953922625530249	-9.749051016489215	-2.015359124823251	0.724636519773261	0.7362503813664076	0.0001161386159314638	0.3100616016427105	-0.395112016293279	0.628099173553719
2176.788330078125	-0.1026969948132592	-9.739872028322955	-1.91010017289136	-0.003762291649851729	1.122803841903934	0.3762291649851729	0.3100616016427105	-0.395112016293279	0.628099173553719
2180.694580078125	-0.1663920961546196	-9.707133444423325	-2.12026346151268	0.362243888058331	1.111769101849907	0.007495252137915762	0.3100616016427105	-0.395112016293279	0.628099173553719
2184.600830078125	-0.05662277481564083	-10.01830803052373	-2.112574172811973	0.3585559682367788	1.490929032587138	0.3762872342931387	0.2813141683778234	-0.3930753564154786	0.6342975206611571
2188.507080078125	-0.04466969127969839	-9.711109866847101	-1.844343624010054	-0.0001859295707487508	1.859109777916759	0.01859295707487508	0.2813141683778234	-0.3930753564154786	0.6342975206611571
2192.413330078125	-0.04975154588850047	-9.61941966650395	-2.008281803716652	-0.0001487436565990006	1.487287822333407	0.01487436565990006	0.2813141683778234	-0.3930753564154786	0.6342975206611571
2196.319580078125	-0.269697904089852	-9.567202322322386	-2.010069863671601	-7.437182829950031e-05	0.7436439111667036	0.007437182829950031	0.2813141683778234	-0.3930753564154786	0.6342975206611571
2200.225830078125	-0.3178359374815168	-9.526100286452358	-2.072135417282774	0.3549796061576758	0.7546230965743135	0.7339234422034364	0.2813141683778234	-0.3930753564154786	0.6342975206611571
2204.132080078125	-0.1992183218050521	-9.6344139240503	-2.359389273164932	-0.003687919821552229	0.3791599307372308	0.3687919821552229	0.2813141683778234	-0.3930753564154786	0.6342975206611571
2208.038330078125	-0.1574199887858516	-9.867565796374093	-2.086000373804948	-0.3623554458007803	0.003696764900147988	0.003660522107009284	0.2813141683778234	-0.3930753564154786	0.6342975206611571
2211.944580078125	-0.3120790258359154	-9.857572218353612	-1.93069913880282	-0.7210229717800084	-0.3717664009369348	-0.3614709379412043	0.2874743326488706	-0.4093686354378818	0.6363636363636364
2215.850830078125	-0.04489996774552243	-9.697850989571053	-2.170001075149252	-0.365968993794033	-0.3607872155293249	0.3650153214322821	0.2874743326488706	-0.4093686354378818	0.6363636363636364
2219.757080078125	-0.2585831215236732	-9.823608542625989	-2.380562615877562	-0.362243888058331	-1.111769101849907	-0.007495252137915762	0.2874743326488706	-0.4093686354378818	0.6363636363636364
2223.663330078125	-0.01026149785377603	-9.856651217639389	-2.324616738207466	0.00383666347815123	-1.866447753070638	-0.3836663478151229	0.2874743326488706	-0.405295315682281	0.6342975206611571
2227.569580078125	-0.07058604571934191	-9.616156154782589	-2.313798476021937	0.00383666347815123	-1.866447753070638	-0.3836663478151229	0.2874743326488706	-0.405295315682281	0.6342975206611571
2231.475830078125	-0.1054003774325909	-9.620746122036538	-1.819987418913636	0.3625041894573793	-1.490984587233555	-0.01853488776690934	0.2874743326488706	-0.405295315682281	0.6342975206611571
2235.382080078125	0.01643164534900685	-9.76802043467049	-2.214388178300228	-0.3549796061576758	-0.7546230965743135	-0.7339234422034364	0.2874743326488706	-0.405295315682281	0.6342975206611571
2239.288330078125	0.009487863562771232	-9.486932257448037	-2.316262118759041	0.007301467814804958	-0.01467595030775797	-0.7301467814804957	0.297741273100616	-0.4114052953156823	0.6322314049586777
2243.194580078125	-0.11588111109972	-9.857468225922243	-2.137296296676001	-1.076114135680133	-0.01092363076119298	-1.084238605899716	0.297741273100616	-0.4114052953156823	0.6322314049586777
2247.100830078125	-0.1742372683533104	-9.456336716767572	-2.192091054889655	-0.7173722378726058	-0.3791043760908138	-0.7265443286814521	0.297741273100616	-0.4114052953156823	0.6322314049586777
2251.007080078125	-0.06352160537395875	-9.767205319070914	-2.215946487534709	-0.3623554458007803	0.003696764900147988	0.003660522107009284	0.3080082135523614	-0.4012219959266802	0.6611570247933884
2254.913330078125	-0.08978889483857386	-9.789031742664472	-2.007036838714205	-0.3587047118933778	-0.003641210253730994	-0.3614128686332386	0.3080082135523614	-0.4012219959266802	0.6611570247933884
2258.819580078125	-0.09500560313112907	-9.607385145012397	-2.166479895629032	-1.083304045752489	-1.11171354720349	-0.3652475986641451	0.3080082135523614	-0.4012219959266802	0.6611570247933884
2262.725830078125	-0.1109483052992766	-9.639206618713432	-1.968389823357447	-0.3587047118933778	-0.003641210253730994	-0.3614128686332386	0.3080082135523614	-0.4012219959266802	0.6611570247933884
2266.632080078125	-0.2945133477545285	-9.645225982440632	-2.182888408182385	3.718591414975016e-05	-0.3718219555833518	-0.003718591414975016	0.3080082135523614	-0.4012219959266802	0.6611570247933884
2270.538330078125	-0.2355255074559892	-9.83615324741077	-2.149149751467027	-0.3623554458007803	0.003696764900147988	0.003660522107009284	0.3080082135523614	-0.4012219959266802	0.6611570247933884
2274.444580078125	-0.2453690377519339	-9.726002655539792	-2.15436540826887	-0.7210229717800084	-0.3717664009369348	-0.3614709379412043	0.3080082135523614	-0.4012219959266802	0.6611570247933884
2278.350830078125	-0.1584554442640262	-9.597900593645369	-2.051485191199128	-0.7283244395948133	-0.3570904506291769	0.3686758435392914	0.2997946611909651	-0.395112016293279	0.640495867768595
2282.257080078125	-0.1542647280332418	-9.656545595397414	-2.191175732225272	-0.365968993794033	-0.3607872155293249	0.3650153214322821	0.2997946611909651	-0.395112016293279	0.640495867768595
2286.163330078125	-0.199650484487489	-10.04788698998429	-2.011650517083701	-1.44562230563912	-1.479838737886694	-0.3653056679721108	0.2997946611909651	-0.395112016293279	0.640495867768595
2290.069580078125	-0.1159859972981946	-9.787502139126417	-2.133800090060179	-0.3621323303158818	-2.227234968599963	-0.01865102638284081	0.3039014373716633	-0.4195519348268839	0.6425619834710744
2293.975830078125	0.06637324818361551	-9.53853931642063	-2.212441606120517	-0.01069190032315919	-2.580739763621826	1.069190032315918	0.3039014373716633	-0.4195519348268839	0.6425619834710744
2297.882080078125	-0.0002018862166128743	-9.760065276543372	-1.993270459446238	-0.003427618422503978	-2.223593758346232	0.3427618422503977	0.3039014373716633	-0.4195519348268839	0.6425619834710744
2301.788330078125	-0.005825521414528409	-9.938550251924031	-2.139149286182387	-0.3658574360515838	-1.47625308227938	0.3538595471873571	0.3039014373716633	-0.4195519348268839	0.6425619834710744
2305.694580078125	0.3848187874051392	-9.682241925405672	-2.16062624683797	-0.7245249620308118	-1.851716248116463	-0.01127191286085651	0.3080082135523614	-0.3971486761710794	0.6570247933884298
2309.600830078125	-0.1069074264948847	-9.597900067900014	-2.103085783503845	-0.7209485999517089	-1.115410312103638	-0.3689081207711543	0.3080082135523614	-0.3971486761710794	0.6570247933884298
2313.507080078125	0.05108667621945977	-9.516815308022375	-2.369555873981993	0	0	0	0.3080082135523614	-0.3971486761710794	0.6570247933884298
2317.413330078125	0.09264053764823062	-9.516712892827073	-2.42135125494102	-0.3550539779859753	-0.01097918540760998	-0.7264862593734864	0.3018480492813142	-0.4215885947046843	0.6198347107438017
2321.319580078125	-0.05336262786455645	-9.877253916342875	-2.221245737848119	-0.3550539779859753	-0.01097918540760998	-0.7264862593734864	0.3018480492813142	-0.4215885947046843	0.6198347107438017
2325.225830078125	0.2424369559028454	-9.721612050924746	-2.08123186342818	-0.3624298176290798	0.7473406760668516	0.01109770493695932	0.3018480492813142	-0.4215885947046843	0.6198347107438017
2329.132080078125	0.05130118032461095	-9.730079285028376	-2.043372677487032	-0.717483795615055	0.7363614906592416	-0.7153885544365272	0.3141683778234086	-0.4114052953156823	0.6177685950413223
2333.038330078125	-0.04209012169164879	-9.4669424726803	-2.263662610278374	-0.0001859295707487508	1.859109777916759	0.01859295707487508	0.3141683778234086	-0.4114052953156823	0.6177685950413223
2336.944580078125	0.248931225409904	-9.702845570450799	-1.964374180330131	-0.3552399075567241	1.848130592509149	-0.7078933022986114	0.3141683778234086	-0.4114052953156823	0.6177685950413223
2340.850830078125	-0.2196829597781145	-9.807697490328257	-2.010568007396186	-0.3552027216425743	1.476308636925797	-0.7116118937135864	0.3141683778234086	-0.4114052953156823	0.6177685950413223
2344.757080078125	-0.2960756000791773	-9.655731110692269	-2.130813330694092	0.007152724158205957	1.472611872025649	-0.7152724158205956	0.3203285420944559	-0.3869653767820774	0.6260330578512396
2348.663330078125	-0.05803440109586363	-9.918764456354328	-2.065519963471213	-0.7174466097009052	0.3645395350758898	-0.7191071458515021	0.3203285420944559	-0.3869653767820774	0.6260330578512396
2352.569580078125	0.06218095471676389	-9.89989482464158	-2.072698490558796	-0.3550539779859753	-0.01097918540760998	-0.7264862593734864	0.3203285420944559	-0.3869653767820774	0.6260330578512396
2356.475830078125	-0.00473801714613329	-9.681531958877249	-1.84206609512889	0.003576362079102979	0.7363059360128246	-0.3576362079102978	0.3080082135523614	-0.4236252545824847	0.6384297520661157
2360.382080078125	-0.06571317488945549	-9.357913926547591	-2.142894170351485	-7.437182829950031e-05	0.7436439111667036	0.007437182829950031	0.3080082135523614	-0.4236252545824847	0.6384297520661157
2364.288330078125	0.02632091549090289	-9.698156237324609	-2.210697183030097	-7.437182829950031e-05	0.7436439111667036	0.007437182829950031	0.3080082135523614	-0.4236252545824847	0.6384297520661157
2368.194580078125	-0.01544429557088456	-9.978326988901253	-2.151856814303849	0.01087782989390794	0.7216299857050666	-1.087782989390794	0.3080082135523614	-0.4236252545824847	0.6384297520661157
2372.100830078125	-0.01698998691682683	-9.578826762436442	-2.100333769439106	0.3622810739724808	0.7399471462665556	0.003776660722940747	0.3080082135523614	-0.4236252545824847	0.6384297520661157
2376.007080078125	0.159284281817386	-9.691831415545712	-1.976142727246201	0.3621695162300315	1.855413013016611	0.0149324349678658	0.3080082135523614	-0.4236252545824847	0.6384297520661157
2379.913330078125	-0.1092362155482355	-9.728653043027263	-2.025459481725486	0.007152724158205957	1.472611872025649	-0.7152724158205956	0.3080082135523614	-0.4236252545824847	0.6384297520661157
2383.819580078125	-0.05994127950121488	-9.699381013705393	-2.001957349959504	0.007152724158205957	1.472611872025649	-0.7152724158205956	0.3080082135523614	-0.4093686354378818	0.6136363636363636
2387.725830078125	0.01197043313268261	-9.739462893287101	-2.065681104422754	0.007078352329906457	2.216255783192353	-0.7078352329906457	0.3080082135523614	-0.4093686354378818	0.6136363636363636
2391.632080078125	-0.2518033722884355	-9.784749757039927	-2.273220923718818	0.007041166415756707	2.588077738775705	-0.7041166415756707	0.3080082135523614	-0.4093686354378818	0.6136363636363636
2395.538330078125	0.1050825643650324	-9.676023304188639	-2.502752145501079	0.01069190032315919	2.580739763621826	-1.069190032315918	0.2956878850102669	-0.405295315682281	0.6549586776859504
2399.444580078125	0.1686570071472452	-9.838800901022392	-2.288566904908174	0.3730473461239395	2.577042998721678	-1.072850554422928	0.2956878850102669	-0.405295315682281	0.6549586776859504
2403.350830078125	0.4026746769229071	-9.523135187794928	-2.089155897430235	1.094070317903948	2.948809399658613	-0.7113796164817234	0.2956878850102669	-0.405295315682281	0.6549586776859504
2407.257080078125	-0.1912966536570979	-9.515185918015796	-2.290111544763405	0.3693594263023872	2.956202929458909	-0.7040585722677049	0.2956878850102669	-0.405295315682281	0.6549586776859504
2411.163330078125	-0.2139292026046477	-9.645837108842169	-2.202359913178412	0.01069190032315919	2.580739763621826	-1.069190032315918	0.3100616016427105	-0.3991853360488798	0.6342975206611571
2415.069580078125	-0.1804318630075842	-9.675006302372452	-2.318937899747195	-0.3588534555499768	1.483646612079676	-0.3465385029733385	0.3100616016427105	-0.3991853360488798	0.6342975206611571
2418.975830078125	-0.3779215340828885	-9.655527962686801	-2.069282197237051	-7.437182829950031e-05	0.7436439111667036	0.007437182829950031	0.3100616016427105	-0.3991853360488798	0.6342975206611571
2422.882080078125	-0.2977734947056128	-9.786280096621482	-2.074216843146239	-0.728361625508963	0.01473150495417496	0.3723944349542664	0.2915811088295688	-0.3930753564154786	0.6198347107438017
2426.788330078125	-0.3422460314769002	-9.663992883510865	-2.25846561743666	-0.7282500677665138	-1.10073436179588	0.3612386607093414	0.2915811088295688	-0.3930753564154786	0.6198347107438017
2430.694580078125	-0.03780477129682717	-9.658890209385975	-2.073174290105761	-1.086843221917442	-2.219841438799667	-0.01132998216882224	0.2915811088295688	-0.3930753564154786	0.6198347107438017
2434.600830078125	-0.1039027917867009	-9.496928569344366	-2.203240273776637	-1.094256247474696	-1.089699621741854	0.7299725735565985	0.2915811088295688	-0.3930753564154786	0.6198347107438017
2438.507080078125	-0.2258467983290761	-9.836357131459735	-2.138440055697463	-0.3768468236879409	-1.082417201234392	1.452798310823076	0.2915811088295688	-0.3930753564154786	0.6198347107438017
2442.413330078125	-0.09365470043949686	-9.876948353142105	-2.211509985350105	-0.7318636157597666	-1.465218342225353	0.7225934600346142	0.2915811088295688	-0.3930753564154786	0.6198347107438017
2446.319580078125	0.01060375808037752	-9.669904784887347	-2.020125269345917	-0.7317520580173174	-2.580684208975409	0.7114376857896891	0.2915811088295688	-0.3930753564154786	0.6198347107438017
2450.225830078125	0.4101902067835347	-9.554038499806659	-2.00634022611782	-0.7392022694887213	-1.078720436334244	1.456458832930085	0.2874743326488706	-0.4175152749490835	0.6425619834710744
2454.132080078125	0.07870013666750524	-9.691220289144173	-1.956671222250174	-0.3768096377737912	-1.454239156817743	1.449079719408101	0.2874743326488706	-0.4175152749490835	0.6425619834710744
2458.038330078125	-0.1044690195348573	-9.610444982982937	-1.851032682171423	-0.728212881852364	-1.472556317379232	0.3575200692943664	0.2874743326488706	-0.4175152749490835	0.6425619834710744
2461.944580078125	0.04581397604651584	-9.57852014774496	-2.193799201550528	-1.090531141738995	-1.840681508062436	0.3574619999864007	0.2936344969199179	-0.3971486761710794	0.6466942148760331
2465.850830078125	0.2484202009241026	-9.783010801701206	-1.94734003080342	-0.362243888058331	-1.111769101849907	-0.007495252137915762	0.2936344969199179	-0.3971486761710794	0.6466942148760331
2469.757080078125	0.08093823464698696	-9.710496637464139	-2.031274488232899	-0.3733448334371375	0.3975326459451367	1.102599285742728	0.2936344969199179	-0.3971486761710794	0.6466942148760331
2473.663330078125	0.06550655696464074	-9.662152879914768	-1.850218565488024	-1.087103523316491	0.3829122502837958	0.01470015773600287	0.2936344969199179	-0.3971486761710794	0.6466942148760331
2477.569580078125	-0.02982395679634966	-9.789643079364152	-2.005868106788345	-1.087103523316491	0.3829122502837958	0.01470015773600287	0.2956878850102669	-0.4195519348268839	0.6342975206611571
2481.475830078125	0.06857033802534776	-9.811162257371805	-1.952344600844925	-0.72478526342986	0.7510374409669995	0.0147582270439686	0.2956878850102669	-0.4195519348268839	0.6342975206611571
2485.382080078125	0.1111770045290334	-9.460719435202279	-2.039233484301112	-3.718591414975016e-05	0.3718219555833518	0.003718591414975016	0.2956878850102669	-0.4195519348268839	0.6342975206611571
2489.288330078125	-0.1219345431259715	-9.819425502277397	-1.935515229134284	0.003501990250803478	1.479949847179528	-0.3501990250803478	0.3080082135523614	-0.3971486761710794	0.6425619834710744
2493.194580078125	-0.1595973631767428	-9.678269814093813	-2.01342122744191	-0.3515891736493216	1.84079261735527	-1.072966693038859	0.3080082135523614	-0.3971486761710794	0.6425619834710744
2497.100830078125	0.07026823265178334	-9.68061327144259	-2.008941088392778	0.3656343205666853	3.707184815779491	-0.331547998697507	0.3080082135523614	-0.3971486761710794	0.6425619834710744
2501.007080078125	-0.1531472562795683	-9.419517612863729	-1.895091457347725	0.369247868559938	4.071668796208963	-0.6929027980227799	0.3080082135523614	-0.3971486761710794	0.6425619834710744
2504.913330078125	-0.2180607724829088	-9.837172983102807	-2.064640917236377	0.003241688851755227	4.082703536262991	-0.3241688851755227	0.3080082135523614	-0.3971486761710794	0.6425619834710744
2508.819580078125	-0.3623794498758321	-9.637169355459852	-1.92068500413893	1.090345212168246	3.699791285979195	-0.3388690429115255	0.3080082135523614	-0.3971486761710794	0.6425619834710744
2512.725830078125	-0.3032614876017416	-9.844721214324563	-2.224617079941947	0.7243762183742128	3.33900407044987	0.02614627852075657	0.3080082135523614	-0.3971486761710794	0.6425619834710744
2516.632080078125	-0.2225669359271507	-9.778629975949778	-1.914435469094979	1.086768850089143	2.96348534996637	0.01876716499877227	0.2997946611909651	-0.4073319755600814	0.6198347107438017
2520.538330078125	-0.2564144219311521	-9.656240663091072	-2.119519268961598	0.7208370422092596	2.230876178853694	0.3800638950160794	0.2997946611909651	-0.4073319755600814	0.6198347107438017
2524.444580078125	-0.4510847835361791	-9.552517413343367	-2.297173882127365	-0.0001487436565990006	1.487287822333407	0.01487436565990006	0.2997946611909651	-0.4073319755600814	0.6198347107438017
2528.350830078125	-0.5982188273092117	-9.720090754163312	-2.392705756359613	0.003613547993252729	0.3644839804294728	-0.3613547993252729	0.2956878850102669	-0.4093686354378818	0.6363636363636364
2532.257080078125	-0.3558907006950091	-9.755071326558054	-2.136976643499697	-0.3586303400650783	-0.7472851214204346	-0.3688500514631886	0.2956878850102669	-0.4093686354378818	0.6363636363636364
2536.163330078125	-0.3209762144914873	-9.74711564268558	-1.967459516950425	7.437182829950031e-05	-0.7436439111667036	-0.007437182829950031	0.2956878850102669	-0.4093686354378818	0.6363636363636364
2540.069580078125	-0.2654480415065444	-9.875828200087117	-2.151731949781855	0.0001487436565990006	-1.487287822333407	-0.01487436565990006	0.2956878850102669	-0.4093686354378818	0.6363636363636364
2543.975830078125	-0.4547652638991957	-9.623707435327407	-2.174491203360144	-0.3695081699589862	-1.468915107125501	0.7189329379276049	0.2874743326488706	-0.4073319755600814	0.628099173553719
2547.882080078125	-0.1782994398446107	-9.834316818883091	-2.39001867184631	-0.369396612216537	-2.584380973875557	0.7077771636826798	0.2874743326488706	-0.4073319755600814	0.628099173553719
2551.788330078125	0.08753344726235193	-9.478364185385173	-2.251114908745064	-0.7244134042883625	-2.967182114866518	-0.02242768710578156	0.2874743326488706	-0.4073319755600814	0.628099173553719
2555.694580078125	-0.02444558180689742	-9.587904071450897	-2.18514727310342	-0.731789243931467	-2.208862253392057	0.7151562772046642	0.2956878850102669	-0.415478615071283	0.628099173553719
2559.600830078125	0.1063191174417862	-9.728956818693824	-2.210637248059539	-0.7318264298456169	-1.837040297808705	0.7188748686196392	0.2956878850102669	-0.415478615071283	0.628099173553719
2563.507080078125	0.1164031762379923	-9.789029639683049	-2.213439207933077	-0.728212881852364	-1.472556317379232	0.3575200692943664	0.2956878850102669	-0.415478615071283	0.628099173553719
2567.413330078125	0.1313695692804886	-9.737523839265975	-2.378985642682952	-1.449273039546522	-1.472500762732815	-0.0002322772318629276	0.2956878850102669	-0.415478615071283	0.628099173553719
2571.319580078125	0.09587466020420475	-9.639000526533973	-2.195822006806825	-1.086917593745742	-1.476197527632963	-0.00389279933887221	0.2956878850102669	-0.415478615071283	0.628099173553719
2575.225830078125	0.1609064691125918	-9.721306908320262	-2.030215637086393	-0.362243888058331	-1.111769101849907	-0.007495252137915762	0.2956878850102669	-0.415478615071283	0.628099173553719
2579.132080078125	-0.1328348215869992	-9.776283258979795	-2.238839280433361	-0.7245993338591113	-1.108072336949759	-0.003834730030906479	0.2956878850102669	-0.415478615071283	0.628099173553719
2583.038330078125	0.4112863858502999	-9.653684068575069	-2.042879528343327	-0.7209485999517089	-1.115410312103638	-0.3689081207711543	0.2956878850102669	-0.4012219959266802	0.6446280991735538
2586.944580078125	-0.03543103101555867	-9.558122700028365	-2.152298966148045	-1.442008757645867	-1.115354757457222	-0.7266604672973836	0.2956878850102669	-0.4012219959266802	0.6446280991735538
2590.850830078125	-0.03744358423741821	-9.478773425570099	-2.085213858752727	-1.083378417580789	-0.3680696360367868	-0.357810415834195	0.2956878850102669	-0.4012219959266802	0.6446280991735538
2594.757080078125	0.2164496258401739	-9.860014620978344	-2.214987528005798	-0.7247108916015605	0.007393529800295976	0.007321044214018567	0.2772073921971253	-0.4032586558044806	0.6384297520661157
2598.663330078125	0.2565011699148529	-9.910397955060866	-2.21670566382843	-1.076076949765984	-0.3827455863445448	-1.087957197314691	0.2772073921971253	-0.4032586558044806	0.6384297520661157
2602.569580078125	0.3123810665428011	-9.712330121817827	-2.079368884760035	-0.7173722378726058	-0.3791043760908138	-0.7265443286814521	0.2772073921971253	-0.4032586558044806	0.6384297520661157
2606.475830078125	0.09793216465398201	-9.748335266761879	-2.264405488466067	-0.717483795615055	0.7363614906592416	-0.7153885544365272	0.2772073921971253	-0.4032586558044806	0.6384297520661157
2610.382080078125	-0.1521125894194273	-9.899183070578948	-1.929580352685757	-0.358816269635827	1.111824656496325	-0.3502570943883135	0.297741273100616	-0.415478615071283	0.6342975206611571
2614.288330078125	0.079555787234009	-9.840943628794337	-1.9851929078003	-0.3551655357284246	1.104486681342445	-0.7153304851285613	0.297741273100616	-0.415478615071283	0.6342975206611571
2618.194580078125	-0.004186773140616134	-9.558020389982133	-2.193774228646129	-0.717483795615055	0.7363614906592416	-0.7153885544365272	0.297741273100616	-0.415478615071283	0.6342975206611571
2622.100830078125	0.03122296518803414	-9.669904574589204	-2.040765506267805	0.3621323303158818	2.227234968599963	0.01865102638284081	0.3080082135523614	-0.4073319755600814	0.6239669421487604
2626.007080078125	0.1680915680171225	-9.742317059674464	-1.936385600570749	0.3584815964084793	2.234572943753842	0.3837244171230887	0.3080082135523614	-0.4073319755600814	0.6239669421487604
2629.913330078125	-0.04561603292007122	-9.711415850644155	-1.812798902664293	0.003501990250803478	1.479949847179528	-0.3501990250803478	0.3080082135523614	-0.4073319755600814	0.6239669421487604
2633.819580078125	-0.1862747340188527	-9.566895497332762	-2.12417553270491	0.003539176164953228	1.108127891596177	-0.3539176164953228	0.2874743326488706	-0.3869653767820774	0.6363636363636364
2637.725830078125	-0.1217839170815455	-9.709376799856367	-1.940536097281818	0.3585559682367788	1.490929032587138	0.3762872342931387	0.2874743326488706	-0.3869653767820774	0.6363636363636364
2641.632080078125	-0.2546518606259577	-9.639004101602392	-1.844937979134744	0.3549052343293763	1.498267007741017	0.7413606250333865	0.2874743326488706	-0.3869653767820774	0.6363636363636364
2645.538330078125	-0.2768080842811865	-9.596167947250919	-2.106397190627117	0.7208742281234094	1.859054223270342	0.3763453036011044	0.2874743326488706	-0.3869653767820774	0.6363636363636364
2649.444580078125	0.02845885898011184	-9.720798302263097	-1.948628632670395	0.007227095986505457	0.7289679608589457	-0.7227095986505457	0.2915811088295688	-0.4114052953156823	0.6466942148760331
2653.350830078125	-0.3909045527707701	-9.55639247206255	-1.969848240974332	0.3660061797081828	-0.01103474005402697	-0.3687339128472572	0.2915811088295688	-0.4114052953156823	0.6466942148760331
2657.257080078125	-0.2622020896800656	-9.514778675663223	-2.259930343997815	0.3623554458007803	-0.003696764900147988	-0.003660522107009284	0.2915811088295688	-0.4114052953156823	0.6466942148760331
2661.163330078125	-0.2385593210314178	-9.707134180466825	-2.048022632286075	0.728361625508963	-0.01473150495417496	-0.3723944349542664	0.3018480492813142	-0.3849287169042769	0.628099173553719
2665.069580078125	-0.08622986165273838	-10.05788098860105	-2.125671278242055	-0.3587047118933778	-0.003641210253730994	-0.3614128686332386	0.3018480492813142	-0.3849287169042769	0.628099173553719
2668.975830078125	0.09362157848208379	-9.60972902295746	-2.120719282736126	-0.358816269635827	1.111824656496325	-0.3502570943883135	0.3018480492813142	-0.3849287169042769	0.628099173553719
2672.882080078125	-0.2102297954088236	-9.86797430051552	-1.992340153039216	-0.7210601576941581	5.555464641699391e-05	-0.3577523465262293	0.3018480492813142	-0.3849287169042769	0.628099173553719
2676.788330078125	-0.4486629375548583	-9.975067683142738	-2.044568748171392	-0.3550911639001251	0.3608427701757418	-0.7227676679585114	0.3018480492813142	-0.3849287169042769	0.628099173553719
2680.694580078125	-0.1536196384817211	-9.876337016442424	-2.212678717275966	-0.7173722378726058	-0.3791043760908138	-0.7265443286814521	0.3018480492813142	-0.3849287169042769	0.628099173553719
2684.600830078125	-0.2747206123461308	-9.725492997991916	-2.175979588462308	-3.718591414975016e-05	0.3718219555833518	0.003718591414975016	0.3018480492813142	-0.3849287169042769	0.628099173553719
2688.507080078125	-0.146794149400532	-9.657463441639507	-2.106861686648933	0.358667525979228	0.3754631658370828	0.3651314600482136	0.2936344969199179	-0.4073319755600814	0.6342975206611571
2692.413330078125	-0.1965244026021241	-9.606876223508019	-2.115853246595865	0	0	0	0.2936344969199179	-0.4073319755600814	0.6342975206611571
2696.319580078125	-0.18609019739898	-9.760169163825671	-1.796993420034	-0.362243888058331	-1.111769101849907	-0.007495252137915762	0.2936344969199179	-0.4073319755600814	0.6342975206611571
2700.225830078125	-0.1312220977081972	-9.659095144925651	-1.959263409726762	0.3515148018210221	-1.097148706188567	1.080403875868809	0.3100616016427105	-0.3971486761710794	0.6260330578512396
2704.132080078125	-0.1988981428833926	-9.707643732865629	-2.036728570553581	-0.3768468236879409	-1.082417201234392	1.452798310823076	0.3100616016427105	-0.3971486761710794	0.6260330578512396
2708.038330078125	0.001361154726069572	-9.539559893305237	-2.045371824202319	0.3514404299927226	-0.3535047950218628	1.087841058698759	0.3100616016427105	-0.3971486761710794	0.6260330578512396
2711.944580078125	-0.1846982865695983	-9.776385779324169	-2.17672378101339	-0.362243888058331	-1.111769101849907	-0.007495252137915762	0.3100616016427105	-0.3971486761710794	0.6260330578512396
2715.850830078125	0.03466291705078936	-9.648792323486912	-2.155430568359646	0.7137586898793531	0.01462039566134097	1.087899128006725	0.3018480492813142	-0.3890020366598778	0.6487603305785125
2719.757080078125	-0.07525860756868274	-9.867666949780542	-2.158046414377243	-0.7245993338591113	-1.108072336949759	-0.003834730030906479	0.3018480492813142	-0.3890020366598778	0.6487603305785125
2723.663330078125	0.08206516981706427	-9.620132261759149	-2.068838993902142	7.437182829950031e-05	-0.7436439111667036	-0.007437182829950031	0.3018480492813142	-0.3890020366598778	0.6487603305785125
2727.569580078125	0.04214847942613843	-9.65970532498555	-2.071615980871281	-0.3659318078798833	-0.7326091711126765	0.3612967300173071	0.3100616016427105	-0.3971486761710794	0.6590909090909091
2731.475830078125	0.1318348539203385	-9.837373397232424	-2.394495130677951	0.3550539779859753	0.01097918540760998	0.7264862593734864	0.3100616016427105	-0.3971486761710794	0.6590909090909091
2735.382080078125	0.2569680317907702	-9.590247003054319	-2.232267726359006	-0.365968993794033	-0.3607872155293249	0.3650153214322821	0.3100616016427105	-0.3971486761710794	0.6590909090909091
2739.288330078125	-0.05756832783798002	-9.808613759334282	-2.081055738734	-0.724636519773261	-0.7362503813664076	-0.0001161386159314638	0.3100616016427105	-0.3971486761710794	0.6590909090909091
2743.194580078125	-0.1852392785406781	-9.836560700061487	-2.15869071531073	-0.3586303400650783	-0.7472851214204346	-0.3688500514631886	0.3100616016427105	-0.3971486761710794	0.6590909090909091
2747.100830078125	0.08720222768822145	-9.678471279714142	-2.240074256274048	-0.36239263171493	0.3755187204834998	0.007379113521984299	0.3100616016427105	-0.3971486761710794	0.6590909090909091
2751.007080078125	-0.1144087612309066	-9.786992166131327	-2.186374625636447	0.003576362079102979	0.7363059360128246	-0.3576362079102978	0.3100616016427105	-0.3971486761710794	0.6590909090909091
2754.913330078125	-0.03287748582261932	-9.577297053749314	-2.237417139246023	0.003613547993252729	0.3644839804294728	-0.3613547993252729	0.2997946611909651	-0.4073319755600814	0.6301652892561984
2758.819580078125	-0.1844877255546154	-9.706317697929325	-2.183742481512822	-0.3587790837216773	0.7400027009129726	-0.3539756858032885	0.2997946611909651	-0.4073319755600814	0.6301652892561984
2762.725830078125	-0.05207008290741388	-9.686835993473398	-2.264330569752871	0.3622810739724808	0.7399471462665556	0.003776660722940747	0.2997946611909651	-0.4073319755600814	0.6301652892561984
2766.632080078125	-0.1039643039933252	-9.876948458291174	-2.201189866889162	-0.007375839643104458	0.7583198614744615	0.7375839643104457	0.2997946611909651	-0.405295315682281	0.6301652892561984
2770.538330078125	-0.2033798591685916	-9.805759487797847	-2.220671361046948	-0.007375839643104458	0.7583198614744615	0.7375839643104457	0.2997946611909651	-0.405295315682281	0.6301652892561984
2774.444580078125	-0.1175025097768921	-9.617992478161195	-2.083249674103597	0.717335051958456	0.7509263316741656	0.7302629200964272	0.2997946611909651	-0.405295315682281	0.6301652892561984
2778.350830078125	-0.2682263428390723	-9.706726517517966	-2.059121905364258	-0.003687919821552229	0.3791599307372308	0.3687919821552229	0.2997946611909651	-0.405295315682281	0.6301652892561984
2782.257080078125	-0.1737428048462156	-9.78617684023361	-2.208573171792815	0.7099963982295014	1.137424237565275	1.464128292991898	0.2915811088295688	-0.405295315682281	0.6590909090909091
2786.163330078125	-0.2548080069966192	-9.885721255595573	-2.173066433446027	-0.3660061797081828	0.01103474005402697	0.3687339128472572	0.2915811088295688	-0.405295315682281	0.6590909090909091
2790.069580078125	-0.01883771896965477	-9.609424195800189	-2.038742701011508	0.3550167920718256	0.3828011409909618	0.7302048507884614	0.2915811088295688	-0.405295315682281	0.6590909090909091
2793.975830078125	-0.03486086017723404	-9.727938344790639	-2.171304660758866	-0.007338653728954708	0.3864979058911098	0.7338653728954707	0.2956878850102669	-0.405295315682281	0.6301652892561984
2797.882080078125	0.007278944450534322	-9.697646474627662	-2.242631481684477	-0.007301467814804958	0.01467595030775797	0.7301467814804957	0.2956878850102669	-0.405295315682281	0.6301652892561984
2801.788330078125	-0.3751732002356391	-9.804639334742857	-2.160893325478698	0.3552027216425743	-1.476308636925797	0.7116118937135864	0.2956878850102669	-0.405295315682281	0.6301652892561984
2805.694580078125	-0.1272419424923958	-9.78780822807254	-2.091935250253475	-0.7245621479449615	-1.479894292533111	-0.007553321445881495	0.2956878850102669	-0.405295315682281	0.6301652892561984
2809.600830078125	0.1833891806337492	-9.490704164928422	-2.112972687791641	0.3550911639001251	-0.3608427701757418	0.7227676679585114	0.2956878850102669	-0.405295315682281	0.6301652892561984
2813.507080078125	-0.117217030048713	-9.597900173049085	-2.092765665042902	0.3550539779859753	0.01097918540760998	0.7264862593734864	0.2956878850102669	-0.405295315682281	0.6301652892561984
2817.413330078125	0.05861640120469291	-9.767714030277149	-2.287213373489764	0.003687919821552229	-0.3791599307372308	-0.3687919821552229	0.2956878850102669	-0.405295315682281	0.6301652892561984
2821.319580078125	0.140362969336165	-9.561282639914641	-2.012098977872167	3.718591414975016e-05	-0.3718219555833518	-0.003718591414975016	0.2895277207392197	-0.4012219959266802	0.6239669421487604
2825.225830078125	-0.09949678283273178	-9.558837293115918	-2.016773905575608	0.3586303400650783	0.7472851214204346	0.3688500514631886	0.2895277207392197	-0.4012219959266802	0.6239669421487604
2829.132080078125	0.6108240979589779	-9.635833541659931	-2.027469931965922	0.3622810739724808	0.7399471462665556	0.003776660722940747	0.2895277207392197	-0.4012219959266802	0.6239669421487604
2833.038330078125	-0.02588796419043233	-9.678370441754906	-2.137067860318922	0.3622810739724808	0.7399471462665556	0.003776660722940747	0.297741273100616	-0.3991853360488798	0.6301652892561984
2836.944580078125	-0.1278420808159989	-9.598002272797174	-2.071930639466705	-0.3625041894573793	1.490984587233555	0.01853488776690934	0.297741273100616	-0.3991853360488798	0.6301652892561984
2840.850830078125	-0.05441306708537028	-9.597593558357604	-2.186231097154324	0.3584444104943295	2.606394899337194	0.3874430085380637	0.297741273100616	-0.3991853360488798	0.6301652892561984
2844.757080078125	-0.1310919757326459	-9.675719738820222	-2.296934142245138	0.358518782322629	1.86275098817049	0.3800058257081136	0.297741273100616	-0.3991853360488798	0.6301652892561984
2848.663330078125	-0.2638991956884675	-9.435327406605939	-2.203360143717751	0.3585931541509285	1.119107077003786	0.3725686428781636	0.3100616016427105	-0.4073319755600814	0.6363636363636364
2852.569580078125	-0.1380515298795544	-9.594636661327725	-2.398282337348188	-0.003725105735701979	0.7509818863205826	0.3725105735701979	0.3100616016427105	-0.4073319755600814	0.6363636363636364
2856.475830078125	-0.05325695304804814	-9.737219748152203	-2.224768231731729	-0.003650733907402479	0.007337975153878983	0.3650733907402479	0.3100616016427105	-0.4073319755600814	0.6363636363636364
2860.382080078125	0.05862271014896206	-9.421045323718504	-1.954090338298735	-0.3660061797081828	0.01103474005402697	0.3687339128472572	0.3121149897330596	-0.405295315682281	0.6322314049586777
2864.288330078125	-0.1891200678842404	-9.91448215528257	-2.362664403858656	-0.3660805515364823	0.7546786512207306	0.3761710956772072	0.3121149897330596	-0.405295315682281	0.6322314049586777
2868.194580078125	-0.1022813931095288	-9.736404317105414	-2.25728689634904	-0.7210601576941581	5.555464641699391e-05	-0.3577523465262293	0.3121149897330596	-0.405295315682281	0.6322314049586777
2872.100830078125	-0.01257451454645395	-9.787399093036688	-2.247516181784869	-7.437182829950031e-05	0.7436439111667036	0.007437182829950031	0.3121149897330596	-0.405295315682281	0.6322314049586777
2876.007080078125	0.06351845090182415	-9.739462367541744	-2.117281696727471	-0.3660805515364823	0.7546786512207306	0.3761710956772072	0.3121149897330596	-0.405295315682281	0.6322314049586777
2879.913330078125	-0.2087716406646158	-9.57750283048156	-2.040945311179475	-0.7210973436083078	0.3718775102297688	-0.3540337551112543	0.3121149897330596	-0.405295315682281	0.6322314049586777
2883.819580078125	-0.1768515371348403	-9.607181997006933	-2.104948762171991	-0.7174466097009052	0.3645395350758898	-0.7191071458515021	0.3121149897330596	-0.405295315682281	0.6322314049586777
2887.725830078125	-0.1515755405385157	-9.555676091440787	-2.28081531538281	0.003539176164953228	1.108127891596177	-0.3539176164953228	0.2997946611909651	-0.4093686354378818	0.6611570247933884
2891.632080078125	-0.3492923336075096	-10.01627118786643	-2.023588879749682	-0.0001115577424492505	1.115465866750055	0.01115577424492505	0.2997946611909651	-0.4093686354378818	0.6611570247933884
2895.538330078125	-0.4875418066135086	-9.654305184138369	-2.081939779549715	-3.718591414975016e-05	0.3718219555833518	0.003718591414975016	0.2997946611909651	-0.4093686354378818	0.6611570247933884
2899.444580078125	-0.3837352262269123	-9.7774077231467	-1.875492459102926	-0.36239263171493	0.3755187204834998	0.007379113521984299	0.2915811088295688	-0.395112016293279	0.6487603305785125
2903.350830078125	-0.4061919133529595	-9.744668718650789	-2.12693622156802	-0.003687919821552229	0.3791599307372308	0.3687919821552229	0.2915811088295688	-0.395112016293279	0.6487603305785125
2907.257080078125	-0.2569703976448711	-9.706420428571841	-2.100986745170963	-0.3660433656223325	0.3828566956373787	0.3724525042622321	0.2915811088295688	-0.395112016293279	0.6487603305785125
2911.163330078125	-0.3040879593010005	-9.924988440173991	-2.197068023299983	-0.3585931541509285	-1.119107077003786	-0.3725686428781636	0.2915811088295688	-0.395112016293279	0.6487603305785125
2915.069580078125	-0.08827159374184276	-9.748541148643195	-2.057613541938576	-0.3658574360515838	-1.47625308227938	0.3538595471873571	0.2956878850102669	-0.3971486761710794	0.6301652892561984
2918.975830078125	0.0854136419879168	-9.959049589090572	-2.18045473293056	-0.01087782989390794	-0.7216299857050666	1.087782989390794	0.2956878850102669	-0.3971486761710794	0.6301652892561984
2922.882080078125	-0.08489157684964446	-9.687448276514719	-2.170280771678518	-0.3658574360515838	-1.47625308227938	0.3538595471873571	0.2956878850102669	-0.3971486761710794	0.6301652892561984
2926.788330078125	-0.3195180597472795	-9.456644172651622	-2.016064675090684	-0.3731960897805385	-1.08975517638827	1.087724920082828	0.3018480492813142	-0.4012219959266802	0.6425619834710744
2930.694580078125	0.01685276737897275	-9.6278842718808	-2.228425579299092	-0.7244505902025123	-2.595360159283167	-0.01870909569080654	0.3018480492813142	-0.4012219959266802	0.6425619834710744
2934.600830078125	-0.1675229744148652	-9.514165761727474	-2.415900852837829	-0.7281756959382143	-1.844378272962584	0.3538014778793914	0.3018480492813142	-0.4012219959266802	0.6425619834710744
2938.507080078125	0.1831928147433719	-9.78076765656631	-2.106427158112395	0.3551655357284246	-1.104486681342445	0.7153304851285613	0.2874743326488706	-0.395112016293279	0.6425619834710744
2942.413330078125	-0.02639898867623366	-9.758535673005316	-2.120033710792212	-0.3586303400650783	-0.7472851214204346	-0.3688500514631886	0.2874743326488706	-0.395112016293279	0.6425619834710744
2946.319580078125	0.05250303420788444	-9.689690685606116	-2.083434473596148	-0.7246737056874109	-0.3644284257830558	0.003602452799043552	0.2874743326488706	-0.395112016293279	0.6425619834710744
2950.225830078125	-0.02327369540890241	-9.527525161515547	-2.224210153036587	-0.003650733907402479	0.007337975153878983	0.3650733907402479	0.2874743326488706	-0.395112016293279	0.6425619834710744
2954.132080078125	-0.07528778643592757	-9.637676384280951	-2.157073785469082	-0.373270461608838	-0.3461112652215669	1.095162102912778	0.2895277207392197	-0.4012219959266802	0.6342975206611571
2958.038330078125	0.1472870356715595	-9.759043858466196	-2.242901189051984	-0.003650733907402479	0.007337975153878983	0.3650733907402479	0.2895277207392197	-0.4012219959266802	0.6342975206611571
2961.944580078125	-0.01440647423860902	-9.617991426670484	-2.186450858713033	-0.3659318078798833	-0.7326091711126765	0.3612967300173071	0.2895277207392197	-0.4012219959266802	0.6342975206611571
2965.850830078125	-0.1169772901664852	-9.757822657153831	-2.100756994450495	0.3514404299927226	-0.3535047950218628	1.087841058698759	0.2915811088295688	-0.3971486761710794	0.6239669421487604
2969.757080078125	-0.1261150073223185	-9.697443852367551	-2.129499755922719	-0.3731960897805385	-1.08975517638827	1.087724920082828	0.2915811088295688	-0.3971486761710794	0.6239669421487604
2973.663330078125	0.05314970099547254	-9.489481596678131	-2.104990033182418	-0.3623554458007803	0.003696764900147988	0.003660522107009284	0.2915811088295688	-0.3971486761710794	0.6239669421487604
2977.569580078125	-0.0534675140630311	-9.807287829547048	-2.217749531232297	-1.086991965574041	-0.7325536164662596	0.003544383491077821	0.2915811088295688	-0.3971486761710794	0.6239669421487604
2981.475830078125	-0.1719692028885502	-9.495603375600631	-2.267693237048329	-0.003613547993252729	-0.3644839804294728	0.3613547993252729	0.2915811088295688	-0.3971486761710794	0.6239669421487604
2985.382080078125	0.2841359230498067	-9.748129384880562	-2.471197434993558	-0.3696197277014355	-0.3534492403754458	0.73008871217253	0.2915811088295688	-0.3971486761710794	0.6239669421487604
2989.288330078125	-0.07437220089886687	-9.827380344957302	-2.187593303371105	-0.7245621479449615	-1.479894292533111	-0.007553321445881495	0.2915811088295688	-0.3971486761710794	0.6239669421487604
2993.194580078125	-0.05272700172943936	-9.950381730559187	-1.909099942352022	-1.087029151488191	-0.3607316608829078	0.007262974906052836	0.3059548254620124	-0.3869653767820774	0.621900826446281
2997.100830078125	0.06037975112792094	-9.540477213801973	-2.012658370930698	-0.36239263171493	0.3755187204834998	0.007379113521984299	0.3059548254620124	-0.3869653767820774	0.621900826446281
3001.007080078125	-0.1774832201797892	-9.817386241191466	-2.083892660673695	-0.7284359973372625	0.7583754161208786	0.3798316177842165	0.3059548254620124	-0.3869653767820774	0.621900826446281
3004.913330078125	-0.01362574238530144	-9.717738990037915	-2.212475253823286	-0.3623554458007803	0.003696764900147988	0.003660522107009284	0.2936344969199179	-0.4032586558044806	0.640495867768595
3008.819580078125	-0.02459147614312156	-9.771284577286277	-1.846950795229281	-0.7246737056874109	-0.3644284257830558	0.003602452799043552	0.2936344969199179	-0.4032586558044806	0.640495867768595
3012.725830078125	-0.1193604938641574	-9.711926559682743	-1.68798353786142	-0.365968993794033	-0.3607872155293249	0.3650153214322821	0.2936344969199179	-0.4032586558044806	0.640495867768595
3016.632080078125	-0.239655500098183	-9.607488611698413	-2.011483330060568	-1.083341231666639	-0.7398915916201386	-0.36152900724917	0.2936344969199179	-0.4032586558044806	0.640495867768595
3020.538330078125	0.02591556582160986	-9.638287300384345	-2.197185527386996	-3.718591414975016e-05	0.3718219555833518	0.003718591414975016	0.2895277207392197	-0.4134419551934826	0.6342975206611571
3024.444580078125	0.1379734566942236	-9.8620552490022	-1.93244855647412	-0.3624298176290798	0.7473406760668516	0.01109770493695932	0.2895277207392197	-0.4134419551934826	0.6342975206611571
3028.350830078125	-0.06440328033557277	-9.880823727308503	-1.853223988814242	-0.3587790837216773	0.7400027009129726	-0.3539756858032885	0.2895277207392197	-0.4134419551934826	0.6342975206611571
3032.257080078125	-0.1496789141676018	-9.838396182247525	-2.010702861079939	-0.3660805515364823	0.7546786512207306	0.3761710956772072	0.3182751540041068	-0.3971486761710794	0.640495867768595
3036.163330078125	-0.3584742133732269	-9.715906662324011	-2.05085955422577	-3.718591414975016e-05	0.3718219555833518	0.003718591414975016	0.3182751540041068	-0.3971486761710794	0.640495867768595
3040.069580078125	-0.2036905746738474	-9.87919328581121	-1.87698084420509	-0.7210601576941581	5.555464641699391e-05	-0.3577523465262293	0.3182751540041068	-0.3971486761710794	0.640495867768595
3043.975830078125	-0.4147389556015934	-9.727432262311183	-1.842034813280222	0.3514404299927226	-0.3535047950218628	1.087841058698759	0.3182751540041068	-0.3971486761710794	0.640495867768595
3047.882080078125	0.1224171773625616	-9.660418445986105	-2.080572578752054	0.3587418978075275	-0.3681807453296208	0.3576942772182636	0.3182751540041068	-0.3971486761710794	0.640495867768595
3051.788330078125	-0.196178987903388	-9.626764539422096	-2.127367069887067	-0.007152724158205957	-1.472611872025649	0.7152724158205956	0.3182751540041068	-0.3971486761710794	0.640495867768595
3055.694580078125	-0.2484336074306746	-9.786993533069252	-2.052213085644181	-0.7209114140375591	-1.48723226768699	-0.3726267121861294	0.3182751540041068	-0.3971486761710794	0.640495867768595
3059.600830078125	-0.0506426842665182	-9.586374467912842	-2.311910524449393	-0.003650733907402479	0.007337975153878983	0.3650733907402479	0.2956878850102669	-0.3971486761710794	0.6549586776859504
3063.507080078125	-0.07904318551214043	-9.65889062998226	-2.031893816261987	0.3550167920718256	0.3828011409909618	0.7302048507884614	0.2956878850102669	-0.3971486761710794	0.6549586776859504
3067.413330078125	0.1403779530788042	-9.571277795171186	-2.012598435960141	-0.3660433656223325	0.3828566956373787	0.3724525042622321	0.2956878850102669	-0.3971486761710794	0.6549586776859504
3071.319580078125	-0.03894669020954371	-9.739259429834419	-2.035110326348543	-0.007301467814804958	0.01467595030775797	0.7301467814804957	0.2997946611909651	-0.4073319755600814	0.628099173553719
3075.225830078125	-0.2958800228068336	-9.575667874040876	-2.137332573105549	-0.003687919821552229	0.3791599307372308	0.3687919821552229	0.2997946611909651	-0.4073319755600814	0.628099173553719
3079.132080078125	0.03879369831101676	-9.667456704212773	-2.293123277033892	-0.003613547993252729	-0.3644839804294728	0.3613547993252729	0.2997946611909651	-0.4073319755600814	0.628099173553719
3083.038330078125	0.06508149184450661	-9.51895698430361	-2.169383061483553	-0.3585931541509285	-1.119107077003786	-0.3725686428781636	0.2997946611909651	-0.4073319755600814	0.628099173553719
3086.944580078125	-0.07689577860652774	-9.828196301749445	-2.103474046449076	0.007413025557254208	-1.130141817057813	-0.7413025557254208	0.2874743326488706	-0.405295315682281	0.640495867768595
3090.850830078125	0.06662797180848253	-9.708456955781923	-2.220932393616085	0.3623554458007803	-0.003696764900147988	-0.003660522107009284	0.2874743326488706	-0.405295315682281	0.640495867768595
3094.757080078125	0.08553508916509797	-9.61901032116995	-2.184502972169932	0.3622810739724808	0.7399471462665556	0.003776660722940747	0.2874743326488706	-0.405295315682281	0.640495867768595
3098.663330078125	-0.04044900756363558	-9.789745179112241	-1.985033081212148	0.3622810739724808	0.7399471462665556	0.003776660722940747	0.2895277207392197	-0.4012219959266802	0.6466942148760331
3102.569580078125	-0.09006333391428198	-9.535787144632284	-2.331222202857268	0.003576362079102979	0.7363059360128246	-0.3576362079102978	0.2895277207392197	-0.4012219959266802	0.6466942148760331
3106.475830078125	0.03385142909416966	-9.739054704592887	-2.128380969805655	-0.3624298176290798	0.7473406760668516	0.01109770493695932	0.2895277207392197	-0.4012219959266802	0.6466942148760331
3110.382080078125	0.09573822928438434	-9.969044639198049	-2.191274309479478	0.3658946219657335	1.104431126696028	-0.3575781386023321	0.2895277207392197	-0.4012219959266802	0.6466942148760331
3114.288330078125	-0.4780586747589393	-9.734572304838723	-2.064710841368694	0.3547193047586276	3.357376785657776	0.7599535821082616	0.2895277207392197	-0.4012219959266802	0.6466942148760331
3118.194580078125	-0.297908348389366	-9.696323699312563	-2.069721720354468	0.3585931541509285	1.119107077003786	0.3725686428781636	0.2895277207392197	-0.4012219959266802	0.6466942148760331
3122.100830078125	-0.06986446021855763	-9.465922842137335	-2.33785132604808	1.442045943560017	0.7435328018738696	0.7229418758824087	0.2895277207392197	-0.4012219959266802	0.6466942148760331
3126.007080078125	0.068295110331606	-9.767917914326114	-2.2765036777202	0.7136471321369039	1.130086262411396	1.09905490225165	0.2895277207392197	-0.395112016293279	0.6322314049586777
3129.913330078125	0.08177969008888514	-9.640224566871259	-2.059323002962838	0.717335051958456	0.7509263316741656	0.7302629200964272	0.2895277207392197	-0.395112016293279	0.6322314049586777
3133.819580078125	-0.04252149575605207	-9.67041528362779	-1.915950141464932	-0.007375839643104458	0.7583198614744615	0.7375839643104457	0.2895277207392197	-0.395112016293279	0.6322314049586777
3137.725830078125	0.1898321899686209	-9.788620925243478	-2.327739665620696	1.079616125930937	1.490873477940721	0.7340395808193679	0.2833675564681725	-0.405295315682281	0.6363636363636364
3141.632080078125	-0.0641225323155955	-9.787399618782041	-2.195915589480151	0.7136471321369039	1.130086262411396	1.09905490225165	0.2833675564681725	-0.405295315682281	0.6363636363636364
3145.538330078125	0.02987048526033464	-9.820341876432492	-1.995682842011155	0.3514032440785728	0.01831716056148896	1.091559650113734	0.2833675564681725	-0.405295315682281	0.6363636363636364
3149.444580078125	-0.0369183646270113	-9.618603604562734	-2.102721179099624	0.003687919821552229	-0.3791599307372308	-0.3687919821552229	0.2833675564681725	-0.405295315682281	0.6363636363636364
3153.350830078125	-0.2334821981308176	-9.725492577395633	-2.217260062306082	-0.003687919821552229	0.3791599307372308	0.3687919821552229	0.2915811088295688	-0.4012219959266802	0.6446280991735538
3157.257080078125	0.2050738107048589	-9.780359467872094	-2.169127023495297	0.3659318078798833	0.7326091711126765	-0.3612967300173071	0.2915811088295688	-0.4012219959266802	0.6446280991735538
3161.163330078125	0.05127121283933248	-9.710088974515282	-2.042373761311083	0.007264281900655208	0.3571460052755938	-0.7264281900655207	0.2915811088295688	-0.4012219959266802	0.6446280991735538
3165.069580078125	0.007945326688963519	-9.58076434437057	-1.931510889632118	-0.3514776159068723	0.7253267506052147	-1.084122467283784	0.297741273100616	-0.4276985743380855	0.628099173553719
3168.975830078125	-0.1756346995089276	-9.57678855284122	-2.145510016369081	0.01106375946465669	-1.137479792211692	-1.106375946465669	0.297741273100616	-0.4276985743380855	0.628099173553719
3172.882080078125	-0.147620621099791	-9.737730667488934	-2.079312630006969	-0.7137958757935028	0.3572015599220108	-1.08418053659175	0.297741273100616	-0.4276985743380855	0.628099173553719
3176.788330078125	-0.2441979399719726	-9.875624000590939	-2.193402000934249	-0.3624298176290798	0.7473406760668516	0.01109770493695932	0.297741273100616	-0.4276985743380855	0.628099173553719
3180.694580078125	-0.354524025642704	-9.824629434957808	-2.182532478576534	-7.437182829950031e-05	0.7436439111667036	0.007437182829950031	0.297741273100616	-0.4276985743380855	0.628099173553719
3184.600830078125	-0.3847919743919953	-9.844416071720078	-2.173600853600159	3.718591414975016e-05	-0.3718219555833518	-0.003718591414975016	0.297741273100616	-0.4276985743380855	0.628099173553719
3188.507080078125	-0.3214761983248177	-9.553943970791693	-2.284126722506081	-0.7245993338591113	-1.108072336949759	-0.003834730030906479	0.297741273100616	-0.4276985743380855	0.628099173553719
3192.413330078125	-0.1608899081338853	-9.86868773696329	-1.970336395537158	-0.7245249620308118	-1.851716248116463	-0.01127191286085651	0.2792607802874744	-0.4236252545824847	0.6384297520661157
3196.319580078125	-0.3545689768706217	-9.794643969188169	-2.18103410431261	-0.7244505902025123	-2.595360159283167	-0.01870909569080654	0.2792607802874744	-0.4236252545824847	0.6384297520661157
3200.225830078125	0.1145262653179195	-9.589636507547207	-2.150875510597317	-0.3657458783091345	-2.591718949029436	0.342703772942432	0.2792607802874744	-0.4236252545824847	0.6384297520661157
3204.132080078125	-0.07970877913253596	-9.565772505252854	-2.343040695582135	-0.731789243931467	-2.208862253392057	0.7151562772046642	0.2854209445585216	-0.4134419551934826	0.640495867768595
3208.038330078125	-0.1880025961305668	-9.677454172748883	-2.066580128981108	-0.3657830642232843	-2.219896993446084	0.346422364357407	0.2854209445585216	-0.4134419551934826	0.640495867768595
3211.944580078125	0.07351260724219486	-9.739564256991692	-2.117086908073162	-0.7281756959382143	-1.844378272962584	0.3538014778793914	0.2854209445585216	-0.4134419551934826	0.640495867768595
3215.850830078125	0.2534026896606655	-9.668066463676386	-2.446756322022185	-0.3659318078798833	-0.7326091711126765	0.3612967300173071	0.2854209445585216	-0.4134419551934826	0.640495867768595
3219.757080078125	0.2032868022406216	-9.640937267275531	-2.109560074687385	-0.007301467814804958	0.01467595030775797	0.7301467814804957	0.2895277207392197	-0.4012219959266802	0.6466942148760331
3223.663330078125	0.1199984858533754	-9.731200489574075	-1.999949528445847	-0.7247480775157102	0.3792154853836477	0.01103963562899358	0.2895277207392197	-0.4012219959266802	0.6466942148760331
3227.569580078125	0.0892203012363165	-9.621152102600258	-1.97401004121055	-0.717483795615055	0.7363614906592416	-0.7153885544365272	0.2895277207392197	-0.4012219959266802	0.6466942148760331
3231.475830078125	0.08057783620561165	-9.680613166293519	-2.019261206853721	-0.0001859295707487508	1.859109777916759	0.01859295707487508	0.3121149897330596	-0.405295315682281	0.6322314049586777
3235.382080078125	-0.04811437485065548	-9.658890314535046	-2.062854171644818	-0.3588906414641265	1.855468567663028	-0.3428199115583635	0.3121149897330596	-0.405295315682281	0.6322314049586777
3239.288330078125	0.03159913599008234	-9.499782946029873	-2.053304533002744	0.007152724158205957	1.472611872025649	-0.7152724158205956	0.3121149897330596	-0.405295315682281	0.6322314049586777
3243.194580078125	-0.03729374681102585	-9.578724978135565	-2.090208439632472	0.3695081699589862	1.468915107125501	-0.7189329379276049	0.2936344969199179	-0.3971486761710794	0.6384297520661157
3247.100830078125	-0.2249895705265051	-9.566079961136902	-2.167014315783165	0.01084064397975819	1.093451941288418	-1.084064397975818	0.2936344969199179	-0.3971486761710794	0.6384297520661157
3251.007080078125	-0.2371469061331613	-9.596677499649724	-2.095103128894623	-0.0001859295707487508	1.859109777916759	0.01859295707487508	0.2936344969199179	-0.3971486761710794	0.6384297520661157
3254.913330078125	-0.2693674731337552	-9.577095482979916	-2.021084228874829	-0.717483795615055	0.7363614906592416	-0.7153885544365272	0.2936344969199179	-0.3971486761710794	0.6384297520661157
3258.819580078125	-0.2981039256617097	-9.776386935963952	-2.06320247794301	-3.718591414975016e-05	0.3718219555833518	0.003718591414975016	0.3141683778234086	-0.415478615071283	0.6239669421487604
3262.725830078125	-0.3351066724183209	-9.865017824081924	-2.163110919389305	0.003650733907402479	-0.007337975153878983	-0.3650733907402479	0.3141683778234086	-0.415478615071283	0.6239669421487604
3266.632080078125	0.1440126935958695	-9.680102562404	-2.133756453195651	-0.362243888058331	-1.111769101849907	-0.007495252137915762	0.3141683778234086	-0.415478615071283	0.6239669421487604
3270.538330078125	-0.07767572184180169	-9.518448483395517	-2.077475938606612	-0.3622067021441813	-1.483591057433259	-0.01121384355289078	0.3059548254620124	-0.4073319755600814	0.6384297520661157
3274.444580078125	-0.1759059841125011	-9.816876268196376	-2.136467196249964	0.00387384939230098	-2.23826970865399	-0.387384939230098	0.3059548254620124	-0.4073319755600814	0.6384297520661157
3278.350830078125	0.06142545864053291	-9.746805768372893	-2.380848621351097	0.3624670035432295	-1.119162631650203	-0.01481629635193433	0.3059548254620124	-0.4073319755600814	0.6384297520661157
3282.257080078125	0.01390806764134597	-9.768836391462633	-2.130268921378199	-0.003650733907402479	0.007337975153878983	0.3650733907402479	0.3059548254620124	-0.4073319755600814	0.6384297520661157
3286.163330078125	0.1391863512299681	-9.548329746435645	-2.306211707665604	-0.72478526342986	0.7510374409669995	0.0147582270439686	0.3059548254620124	-0.4073319755600814	0.6384297520661157
3290.069580078125	-0.08265347887016272	-9.706724624834687	-2.244884037661243	-0.3551283498142748	0.7326647257590937	-0.7190490765435364	0.3059548254620124	-0.4073319755600814	0.6384297520661157
3293.975830078125	-0.1649347300284455	-9.626662229375864	-2.168842332385152	-0.3552027216425743	1.476308636925797	-0.7116118937135864	0.3059548254620124	-0.4073319755600814	0.6384297520661157
3297.882080078125	0.1141051432879536	-9.729772670336894	-2.136838109598454	-0.0001487436565990006	1.487287822333407	0.01487436565990006	0.2956878850102669	-0.4236252545824847	0.6239669421487604
3301.788330078125	-0.05158350558065553	-9.450012000137747	-1.947216480644816	-0.3588534555499768	1.483646612079676	-0.3465385029733385	0.2956878850102669	-0.4236252545824847	0.6239669421487604
3305.694580078125	-0.07773723404842592	-9.898468372342325	-2.075425531719137	-0.7137586898793531	-0.01462039566134097	-1.087899128006725	0.2956878850102669	-0.4236252545824847	0.6239669421487604
3309.600830078125	-0.2324159865493308	-9.805147835650953	-2.252800448355639	-0.3552027216425743	1.476308636925797	-0.7116118937135864	0.2936344969199179	-0.3991853360488798	0.640495867768595
3313.507080078125	-0.05517881519603862	-9.507841150246719	-2.160706160132046	-0.0001115577424492505	1.115465866750055	0.01115577424492505	0.2936344969199179	-0.3991853360488798	0.640495867768595
3317.413330078125	-0.1661074050444742	-9.897041394297712	-2.129753165184196	-0.3550911639001251	0.3608427701757418	-0.7227676679585114	0.2936344969199179	-0.3991853360488798	0.640495867768595
3321.319580078125	-0.3166648397015554	-9.675721631503503	-2.111172009948154	-1.079727683673386	-0.3754076111906658	-0.7228838065744428	0.2936344969199179	-0.3991853360488798	0.640495867768595
3325.225830078125	0.006872806163207652	-9.847777792673895	-2.229093538773589	0.003613547993252729	0.3644839804294728	-0.3613547993252729	0.3039014373716633	-0.3869653767820774	0.6260330578512396
3329.132080078125	-0.04982804183776394	-9.989444400194213	-2.005731938741202	-0.3622810739724808	-0.7399471462665556	-0.003776660722940747	0.3039014373716633	-0.3869653767820774	0.6260330578512396
3333.038330078125	-0.04946606616032132	-9.59932736139184	-2.017797794655956	0.0001115577424492505	-1.115465866750055	-0.01115577424492505	0.3039014373716633	-0.3869653767820774	0.6260330578512396
3336.944580078125	-0.06855377704664126	-9.778832387911747	-2.048207431778625	-0.3658946219657335	-1.104431126696028	0.3575781386023321	0.2854209445585216	-0.3910386965376782	0.6301652892561984
3340.850830078125	-0.1579302246536193	-9.737730772638004	-2.068992511546025	-0.7172606801301565	-1.494570242840869	-0.7377001029263772	0.2854209445585216	-0.3910386965376782	0.6301652892561984
3344.757080078125	0.2052843717198419	-9.71029138647725	-2.176145723994729	3.718591414975016e-05	-0.3718219555833518	-0.003718591414975016	0.2854209445585216	-0.3910386965376782	0.6301652892561984
3348.663330078125	0.2223279846629565	-9.851447284958978	-2.077599488765216	-0.358667525979228	-0.3754631658370828	-0.3651314600482136	0.2854209445585216	-0.3910386965376782	0.6301652892561984
3352.569580078125	0.02092755675881142	-9.889900089981317	-2.030918558627048	-0.3550911639001251	0.3608427701757418	-0.7227676679585114	0.2854209445585216	-0.3910386965376782	0.6301652892561984
3356.475830078125	0.3496842767702307	-9.613602083844292	-1.989475892341021	0.3694337981306867	2.212559018292205	-0.7114957550976549	0.2854209445585216	-0.3910386965376782	0.6301652892561984
3360.382080078125	0.1275739506845599	-9.802084422611992	-1.919131689485329	-0.3552399075567241	1.848130592509149	-0.7078933022986114	0.2854209445585216	-0.3910386965376782	0.6301652892561984
3364.288330078125	-0.08380564981731667	-9.850430493440932	-1.873145006089445	-0.7175953533575042	1.851827357409297	-0.7042327801916021	0.2874743326488706	-0.405295315682281	0.6549586776859504
3368.194580078125	0.04459713842060312	-9.608913591910673	-2.153237947353437	-0.7138702476218023	1.100845471088715	-1.0767433537618	0.2874743326488706	-0.405295315682281	0.6549586776859504
3372.100830078125	-0.1955930447043905	-9.59657508445442	-2.146898509853651	-0.0001859295707487508	1.859109777916759	0.01859295707487508	0.2874743326488706	-0.405295315682281	0.6549586776859504
3376.007080078125	-0.2000842244059932	-9.548027232557937	-1.997192519800227	-0.0001487436565990006	1.487287822333407	0.01487436565990006	0.3018480492813142	-0.3788187372708757	0.6239669421487604
3379.913330078125	-0.2140340888031224	-9.575871022046343	-2.19886370656259	0.003501990250803478	1.479949847179528	-0.3501990250803478	0.3018480492813142	-0.3788187372708757	0.6239669421487604
3383.819580078125	-0.08171738926422731	-9.769755289195436	-1.942753691192425	-0.3587790837216773	0.7400027009129726	-0.3539756858032885	0.3018480492813142	-0.3788187372708757	0.6239669421487604
3387.725830078125	-0.1219936894784948	-9.569444626264714	-1.933543684050174	-0.3660805515364823	0.7546786512207306	0.3761710956772072	0.3018480492813142	-0.3788187372708757	0.6239669421487604
3391.632080078125	-0.2035549323720606	-9.759149428133632	-1.881502254264649	-0.7247108916015605	0.007393529800295976	0.007321044214018567	0.2997946611909651	-0.395112016293279	0.6301652892561984
3395.538330078125	-0.0714976881662344	-9.709784252507081	-1.950077061125521	-1.086954779659892	-1.104375572049612	-0.000174207923897194	0.2997946611909651	-0.395112016293279	0.6301652892561984
3399.444580078125	-0.05621663652831416	-9.868176712477489	-2.126112115722862	-0.7318264298456169	-1.837040297808705	0.7188748686196392	0.2997946611909651	-0.395112016293279	0.6301652892561984
3403.350830078125	0.1944038087096553	-9.750476101850545	-2.146793623655176	-0.007152724158205957	-1.472611872025649	0.7152724158205956	0.297741273100616	-0.3930753564154786	0.6342975206611571
3407.257080078125	0.005420960363269001	-9.79158055614921	-1.8473653454423	-0.3767352659454917	-2.197883067984447	1.441642536578151	0.297741273100616	-0.3930753564154786	0.6342975206611571
3411.163330078125	0.2988428607592342	-9.453374141687847	-1.961428691974471	-0.7390907117462719	-2.194186303084299	1.44530305868516	0.297741273100616	-0.3930753564154786	0.6342975206611571
3415.069580078125	0.1156579321961987	-9.572603935256561	-1.855264406539957	-0.373121717952239	-1.833399087554974	1.080287737252878	0.297741273100616	-0.3930753564154786	0.6342975206611571
3418.975830078125	-0.07122798079872815	-9.889697047124921	-1.959067306709063	-0.01460293562960992	0.02935190061551593	1.460293562960991	0.297741273100616	-0.3930753564154786	0.6342975206611571
3422.882080078125	0.1524895488395091	-9.720695045875225	-2.082984961316971	-0.3732332756946882	-0.7179332208049186	1.091443511497803	0.297741273100616	-0.3930753564154786	0.6342975206611571
3426.788330078125	0.1494864913673927	-9.401666034457875	-1.982883045579756	-0.7319379875880661	-0.7215744310586497	0.7300306428645642	0.297741273100616	-0.3930753564154786	0.6342975206611571
3430.694580078125	-0.1775431551503461	-9.777405620165279	-2.081894828321797	-0.3659318078798833	-0.7326091711126765	0.3612967300173071	0.297741273100616	-0.395112016293279	0.6549586776859504
3434.600830078125	0.2327172386381828	-9.974754759506988	-1.757241287939428	-0.007450211471403958	1.501963772641165	0.7450211471403958	0.297741273100616	-0.395112016293279	0.6549586776859504
3438.507080078125	0.2777425966510547	-9.553529893749493	-1.924753221701822	-0.007413025557254208	1.130141817057813	0.7413025557254208	0.297741273100616	-0.395112016293279	0.6549586776859504
3442.413330078125	0.02507884208791356	-9.781891174391575	-1.835961402930452	0.3548680484152266	1.870088963324369	0.7450792164483615	0.3080082135523614	-0.405295315682281	0.6425619834710744
3446.319580078125	-0.2480274691433479	-9.636862215023015	-2.06575102855507	-0.00387384939230098	2.23826970865399	0.387384939230098	0.3080082135523614	-0.405295315682281	0.6425619834710744
3450.225830078125	-0.06195383272307443	-9.620031739247128	-1.934872242564186	0.7171119364735575	2.981858065174276	0.7525744685862773	0.3080082135523614	-0.405295315682281	0.6425619834710744
3454.132080078125	-0.1945575892262159	-9.866240287183142	-2.181413692459471	-0.3626157471998285	2.60645045398361	0.02969066201183439	0.3080082135523614	-0.405295315682281	0.6425619834710744
3458.038330078125	-0.175004593700046	-9.786584818629683	-2.166513543331801	0.3548308625010768	2.241910918907721	0.7487978078633365	0.3121149897330596	-0.4012219959266802	0.6322314049586777
3461.944580078125	-0.2427255901031592	-9.805147940800023	-2.242480329894696	0.3585559682367788	1.490929032587138	0.3762872342931387	0.3121149897330596	-0.4012219959266802	0.6322314049586777
3465.850830078125	-0.2270533839205515	-9.803413927467647	-2.431553869314951	-0.007450211471403958	1.501963772641165	0.7450211471403958	0.3121149897330596	-0.4012219959266802	0.6322314049586777
3469.757080078125	-0.03334277046246929	-9.477447495782865	-2.221907651251024	-0.36239263171493	0.3755187204834998	0.007379113521984299	0.3039014373716633	-0.3991853360488798	0.6611570247933884
3473.663330078125	-0.1734265690147243	-9.576074590648094	-2.219114366175857	-0.0001115577424492505	1.115465866750055	0.01115577424492505	0.3039014373716633	-0.3991853360488798	0.6611570247933884
3477.569580078125	-0.08077577933205632	-9.696117501984032	-2.30747402226479	-0.3513288722502733	-0.7619610717281925	-1.098996832943684	0.3039014373716633	-0.3991853360488798	0.6611570247933884
3481.475830078125	-0.1412809207273266	-9.54568083103517	-2.290635975755778	-0.3624298176290798	0.7473406760668516	0.01109770493695932	0.3039014373716633	-0.3991853360488798	0.6611570247933884
3485.382080078125	-0.255814283607549	-9.84604661836644	-2.139523879748368	-0.3550539779859753	-0.01097918540760998	-0.7264862593734864	0.3039014373716633	-0.3991853360488798	0.6611570247933884
3489.288330078125	-0.3419156005208034	-9.673886044168393	-2.269479982639888	0	0	0	0.3039014373716633	-0.3991853360488798	0.6611570247933884
3493.194580078125	-0.2608645934950053	-9.354346218563386	-2.30451355016649	-1.076002577937684	-1.126389497511249	-1.095394380144641	0.3039014373716633	-0.3991853360488798	0.6611570247933884
3497.100830078125	-0.4810830249179642	-9.752216844723476	-2.297232502734533	-1.076039763851834	-0.7545675419278965	-1.091675788729666	0.3121149897330596	-0.4114052953156823	0.6446280991735538
3501.007080078125	-0.3800752499327704	-9.832890997478263	-2.33082500224099	-0.3623554458007803	0.003696764900147988	0.003660522107009284	0.3121149897330596	-0.4114052953156823	0.6446280991735538
3504.913330078125	-0.377546151898874	-9.69540658911397	-2.081794936704202	-1.086917593745742	-1.476197527632963	-0.00389279933887221	0.3121149897330596	-0.4114052953156823	0.6446280991735538
3508.819580078125	-0.3545090419000648	-9.834624590214355	-2.183031936664508	-0.3621323303158818	-2.227234968599963	-0.01865102638284081	0.3039014373716633	-0.4134419551934826	0.6425619834710744
3512.725830078125	-0.3524949114421379	-9.493973354699625	-2.250169618595403	-0.3694337981306867	-2.212559018292205	0.7114957550976549	0.3039014373716633	-0.4134419551934826	0.6425619834710744
3516.632080078125	-0.1848189451287459	-9.906424792258296	-2.172701829041805	-0.728064138195765	-2.959844139712639	0.3426457036344663	0.3039014373716633	-0.4134419551934826	0.6425619834710744
3520.538330078125	-0.02747072058395591	-9.815548866322144	-2.41764264720147	-0.728064138195765	-2.959844139712639	0.3426457036344663	0.3039014373716633	-0.4134419551934826	0.6425619834710744
3524.444580078125	-0.07105211897722552	-9.726306851802638	-2.29826270075915	-0.01065471440900943	-2.952561719205177	1.065471440900943	0.2936344969199179	-0.3991853360488798	0.6322314049586777
3528.350830078125	-0.07818753494563666	-9.808613969632423	-2.060415501812113	-0.369396612216537	-2.584380973875557	0.7077771636826798	0.2936344969199179	-0.3991853360488798	0.6322314049586777
3532.257080078125	0.1543372808923371	-9.690097612511478	-2.144576029744569	-0.3693594263023872	-2.956202929458909	0.7040585722677049	0.2936344969199179	-0.3991853360488798	0.6322314049586777
3536.163330078125	0.1424062786613367	-9.450621969899501	-2.080209288711222	0.3553886512133231	-3.335418414842556	0.6930189366387113	0.3039014373716633	-0.3849287169042769	0.6487603305785125
3540.069580078125	0.1591344443909937	-9.591879862980246	-1.971148146366456	-0.7281756959382143	-1.844378272962584	0.3538014778793914	0.3039014373716633	-0.3849287169042769	0.6487603305785125
3543.975830078125	0.2383960770984535	-9.762918601738166	-1.946535903281781	-0.3659318078798833	-0.7326091711126765	0.3612967300173071	0.3039014373716633	-0.3849287169042769	0.6487603305785125
3547.882080078125	-0.01616430383560155	-9.708559791573512	-2.127856538813282	-0.3623182598866305	-0.3681251906832038	-5.806930796573191e-05	0.3141683778234086	-0.3828920570264766	0.6446280991735538
3551.788330078125	0.2091793561880097	-9.85236534149921	-1.97264520626699	-0.003762291649851729	1.122803841903934	0.3762291649851729	0.3141683778234086	-0.3828920570264766	0.6446280991735538
3555.694580078125	-0.05896023866736171	-9.792397143835782	-1.70132537775461	-0.7137958757935028	0.3572015599220108	-1.08418053659175	0.3141683778234086	-0.3828920570264766	0.6446280991735538
3559.600830078125	0.1587432898463063	-9.752006336283028	-1.958109661543541	-0.3552027216425743	1.476308636925797	-0.7116118937135864	0.3141683778234086	-0.3828920570264766	0.6446280991735538
3563.507080078125	-0.07095748481318824	-9.859609586756264	-1.968083839560393	-0.0001115577424492505	1.115465866750055	0.01115577424492505	0.2874743326488706	-0.4236252545824847	0.6508264462809917
3567.413330078125	0.02106241044256455	-9.979856487290238	-2.035413681418818	0.007227095986505457	0.7289679608589457	-0.7227095986505457	0.2874743326488706	-0.4236252545824847	0.6508264462809917
3571.319580078125	-0.04700242342321741	-9.558530783573509	-2.099919219226087	0.01095220172220744	-0.02201392546163695	-1.095220172220744	0.2874743326488706	-0.4236252545824847	0.6508264462809917
3575.225830078125	-0.03104079442226238	-9.820036523529865	-1.965306852591254	0.362243888058331	1.111769101849907	0.007495252137915762	0.2813141683778234	-0.3788187372708757	0.628099173553719
3579.132080078125	-0.07407173742804848	-9.817283195101735	-2.197608752398385	0.7282500677665138	1.10073436179588	-0.3612386607093414	0.2813141683778234	-0.3788187372708757	0.628099173553719
3583.038330078125	0.1029840517775056	-9.82003515659194	-2.099468392583521	0.7282500677665138	1.10073436179588	-0.3612386607093414	0.2813141683778234	-0.3788187372708757	0.628099173553719
3586.944580078125	-0.09452533474863986	-9.717229858235394	-2.182488841712006	0.7245993338591113	1.108072336949759	0.003834730030906479	0.2813141683778234	-0.3788187372708757	0.628099173553719
3590.850830078125	-0.09126518779755546	-9.576175744054543	-2.291160406748152	0.7209114140375591	1.48723226768699	0.3726267121861294	0.3018480492813142	-0.4012219959266802	0.6322314049586777
3594.757080078125	-0.0736955666260003	-9.647161566542408	-2.210147779133325	0.3549052343293763	1.498267007741017	0.7413606250333865	0.3018480492813142	-0.4012219959266802	0.6322314049586777
3598.663330078125	-0.04616175659935287	-9.698258967967126	-2.127941446688238	0.3623554458007803	-0.003696764900147988	-0.003660522107009284	0.3018480492813142	-0.4012219959266802	0.6322314049586777
3602.569580078125	-0.1122747608318659	-9.526302172668972	-2.257507972271138	-0.003539176164953228	-1.108127891596177	0.3539176164953228	0.3100616016427105	-0.4134419551934826	0.6570247933884298
3606.475830078125	-0.1555407120116779	-9.436958163550443	-2.148642932944071	0.3514404299927226	-0.3535047950218628	1.087841058698759	0.3100616016427105	-0.4134419551934826	0.6570247933884298
3610.382080078125	0.02834845245540167	-9.787500667039419	-2.278281748513389	-0.007264281900655208	-0.3571460052755938	0.7264281900655207	0.3100616016427105	-0.4134419551934826	0.6570247933884298
3614.288330078125	-0.08118112900134933	-9.63624856504377	-2.293962366621689	-0.3696569136155852	0.01837271520790595	0.733807303587505	0.2915811088295688	-0.4012219959266802	0.6466942148760331
3618.194580078125	-0.03600199047191693	-9.598307310252586	-2.133266984269436	-0.7282500677665138	-1.10073436179588	0.3612386607093414	0.2915811088295688	-0.4012219959266802	0.6466942148760331
3622.100830078125	-0.06575970335344049	-9.747928970750944	-2.141343221551984	-0.7245621479449615	-1.479894292533111	-0.007553321445881495	0.2915811088295688	-0.4012219959266802	0.6466942148760331
3626.007080078125	0.05597374217395178	-9.478568490030423	-2.199124739131726	-0.003613547993252729	-0.3644839804294728	0.3613547993252729	0.2915811088295688	-0.4012219959266802	0.6466942148760331
3629.913330078125	0.08188457628735979	-9.710190653667086	-2.062819209578659	-0.3622810739724808	-0.7399471462665556	-0.003776660722940747	0.2915811088295688	-0.4134419551934826	0.640495867768595
3633.819580078125	-0.1747191139718669	-9.766492513517571	-2.176029534271105	-0.3585931541509285	-1.119107077003786	-0.3725686428781636	0.2915811088295688	-0.4134419551934826	0.640495867768595
3637.725830078125	-0.26453166735145	-9.855531905776969	-2.182277754951667	-0.7245993338591113	-1.108072336949759	-0.003834730030906479	0.2915811088295688	-0.4134419551934826	0.640495867768595
3641.632080078125	0.01052805074914769	-9.82992926359111	-2.017601691638256	-0.7245993338591113	-1.108072336949759	-0.003834730030906479	0.3080082135523614	-0.405295315682281	0.6384297520661157
3645.538330078125	-0.04707813075444724	-9.718555262277272	-2.097395641518426	-0.362243888058331	-1.111769101849907	-0.007495252137915762	0.3080082135523614	-0.405295315682281	0.6384297520661157
3649.444580078125	0.05027991997104194	-9.680409492542696	-2.009330665701398	-1.079541754102638	-2.234517389107425	-0.7414767636493179	0.3080082135523614	-0.405295315682281	0.6384297520661157
3653.350830078125	-0.2313592383842479	-9.738139487077573	-1.954692053858406	-0.3622810739724808	-0.7399471462665556	-0.003776660722940747	0.3080082135523614	-0.405295315682281	0.6384297520661157
3657.257080078125	-0.1439251569941351	-9.676535800761437	-2.202494766862165	-0.3622067021441813	-1.483591057433259	-0.01121384355289078	0.3080082135523614	-0.405295315682281	0.6384297520661157
3661.163330078125	-0.02501732988128933	-9.838088936661618	-2.166089003957022	0.0001859295707487508	-1.859109777916759	-0.01859295707487508	0.3080082135523614	-0.405295315682281	0.6384297520661157
3665.069580078125	-0.1272269587497565	-9.797803383329088	-2.092434708341449	-0.7172606801301565	-1.494570242840869	-0.7377001029263772	0.3080082135523614	-0.405295315682281	0.6384297520661157
3668.975830078125	0.02337700437130975	-9.629108101919943	-2.112566812376992	-0.365968993794033	-0.3607872155293249	0.3650153214322821	0.2956878850102669	-0.4093686354378818	0.6322314049586777
3672.882080078125	-0.06503890647068986	-9.807695913092191	-2.165369784310339	0.3587418978075275	-0.3681807453296208	0.3576942772182636	0.2956878850102669	-0.4093686354378818	0.6322314049586777
3676.788330078125	-0.2426049315440116	-9.675108927865898	-2.24650228186628	0.3623554458007803	-0.003696764900147988	-0.003660522107009284	0.2956878850102669	-0.4093686354378818	0.6322314049586777
3680.694580078125	-0.007361749344066958	-9.685713632287916	-2.421275021864435	-0.358667525979228	-0.3754631658370828	-0.3651314600482136	0.2895277207392197	-0.395112016293279	0.6487603305785125
3684.600830078125	-0.0437580488328059	-9.617481769122609	-2.20806503890647	0.717335051958456	0.7509263316741656	0.7302629200964272	0.2895277207392197	-0.395112016293279	0.6487603305785125
3688.507080078125	-0.03775982006890946	-9.688875675155614	-2.074672664369685	0.003650733907402479	-0.007337975153878983	-0.3650733907402479	0.2895277207392197	-0.395112016293279	0.6487603305785125
3692.413330078125	0.004014854409281701	-9.555368530407666	-2.467161813642724	-3.718591414975016e-05	0.3718219555833518	0.003718591414975016	0.2895277207392197	-0.395112016293279	0.6487603305785125
3696.319580078125	-0.05116948111299241	-9.866544798893202	-2.29435062956692	0.3586303400650783	0.7472851214204346	0.3688500514631886	0.2936344969199179	-0.4195519348268839	0.6198347107438017
3700.225830078125	-0.1408700507317981	-9.46888131640328	-1.970998308940063	0.3585931541509285	1.119107077003786	0.3725686428781636	0.2936344969199179	-0.4195519348268839	0.6198347107438017
3704.132080078125	0.02399212643755209	-9.828909212451858	-2.133070881251736	-0.7211345295224576	0.7436994658131205	-0.3503151636962792	0.2936344969199179	-0.4195519348268839	0.6198347107438017
3708.038330078125	-0.1716198450996459	-9.798823749915552	-1.946005163345139	0.003501990250803478	1.479949847179528	-0.3501990250803478	0.2731006160164271	-0.4175152749490835	0.628099173553719
3711.944580078125	-0.2394961992553869	-9.854103771092575	-2.350126691487105	-1.076188507508433	0.7327202804055106	-1.076801423069766	0.2731006160164271	-0.4175152749490835	0.628099173553719
3715.850830078125	-0.3136609936114053	-9.784750387934354	-2.211300212953156	-0.3662292951930813	2.241966473554138	0.3910454613371072	0.2731006160164271	-0.4175152749490835	0.628099173553719
3719.757080078125	-0.1660474700739172	-9.937022015323899	-2.131750997536094	0.003613547993252729	0.3644839804294728	-0.3613547993252729	0.2731006160164271	-0.4175152749490835	0.628099173553719
3723.663330078125	-0.005659911627463166	-9.838496704759546	-2.144669612417895	-3.718591414975016e-05	0.3718219555833518	0.003718591414975016	0.2731006160164271	-0.4175152749490835	0.628099173553719
3727.569580078125	-0.02809688330266925	-9.889084658934529	-2.063437223244359	-0.7173722378726058	-0.3791043760908138	-0.7265443286814521	0.2731006160164271	-0.4175152749490835	0.628099173553719
3731.475830078125	-0.03504145370693852	-9.817996736698577	-2.165284876435383	7.437182829950031e-05	-0.7436439111667036	-0.007437182829950031	0.2731006160164271	-0.4175152749490835	0.628099173553719
3735.382080078125	0.2471844364653824	-9.520077032209526	-2.239481215512748	-0.3623554458007803	0.003696764900147988	0.003660522107009284	0.2915811088295688	-0.3991853360488798	0.6508264462809917
3739.288330078125	-0.147966035798527	-9.717842351574857	-2.067798806715766	-0.3623554458007803	0.003696764900147988	0.003660522107009284	0.2915811088295688	-0.3991853360488798	0.6508264462809917
3743.194580078125	-0.2807787760805843	-9.614118470932722	-2.307374130647195	0.003687919821552229	-0.3791599307372308	-0.3687919821552229	0.2915811088295688	-0.3991853360488798	0.6508264462809917
3747.100830078125	-0.1131769398623546	-9.766593877222162	-2.227435337921513	-0.3623182598866305	-0.3681251906832038	-5.806930796573191e-05	0.3100616016427105	-0.3991853360488798	0.640495867768595
3751.007080078125	-0.2277536767344274	-9.616973688810798	-2.074877442185755	-0.7246737056874109	-0.3644284257830558	0.003602452799043552	0.3100616016427105	-0.3991853360488798	0.640495867768595
3754.913330078125	-0.01485677513581976	-9.528137023960584	-2.171440828806009	-0.3585931541509285	-1.119107077003786	-0.3725686428781636	0.3100616016427105	-0.3991853360488798	0.640495867768595
3758.819580078125	0.01311235204539915	-9.659093672838656	-2.103745068179972	-1.083266859838339	-1.483535502786842	-0.3689661900791201	0.3100616016427105	-0.3991853360488798	0.640495867768595
3762.725830078125	0.02355680928298059	-9.749049964998502	-2.118560309432687	-0.003613547993252729	-0.3644839804294728	0.3613547993252729	0.3018480492813142	-0.3991853360488798	0.621900826446281
3766.632080078125	0.0809532183896262	-9.720491792720686	-2.031773946320873	-0.003687919821552229	0.3791599307372308	0.3687919821552229	0.3018480492813142	-0.3991853360488798	0.621900826446281
3770.538330078125	-0.02235258954560618	-9.580560670619747	-1.921580348479794	-0.7210229717800084	-0.3717664009369348	-0.3614709379412043	0.3018480492813142	-0.3991853360488798	0.621900826446281
3774.444580078125	-0.3197743606082138	-9.706727043263321	-2.007521313059541	-0.717335051958456	-0.7509263316741656	-0.7302629200964272	0.2813141683778234	-0.4073319755600814	0.6384297520661157
3778.350830078125	-0.1581250133079294	-9.607793754302897	-2.062499556402356	-0.365968993794033	-0.3607872155293249	0.3650153214322821	0.2813141683778234	-0.4073319755600814	0.6384297520661157
3782.257080078125	-0.2846493133897091	-9.628703277996006	-1.8450228870097	0.0001487436565990006	-1.487287822333407	-0.01487436565990006	0.2813141683778234	-0.4073319755600814	0.6384297520661157
3786.163330078125	-0.153123597738559	-9.786176629935467	-2.229213408714702	-0.358518782322629	-1.86275098817049	-0.3800058257081136	0.2813141683778234	-0.4073319755600814	0.6384297520661157
3790.069580078125	-0.1122755494498995	-9.736302427655469	-2.25748168500335	-0.3621323303158818	-2.227234968599963	-0.01865102638284081	0.2813141683778234	-0.4073319755600814	0.6384297520661157
3793.975830078125	0.1748358294408462	-9.820136415147459	-2.161194314694872	-0.003501990250803478	-1.479949847179528	0.3501990250803478	0.2813141683778234	-0.4073319755600814	0.6384297520661157
3797.882080078125	0.09057199254598235	-9.680715055743466	-2.019066418199412	-0.362243888058331	-1.111769101849907	-0.007495252137915762	0.2813141683778234	-0.4073319755600814	0.6384297520661157
3801.788330078125	0.3413375435021423	-9.58963419426764	-2.377918116738076	-0.3550167920718256	-0.3828011409909618	-0.7302048507884614	0.2956878850102669	-0.3869653767820774	0.640495867768595
3805.694580078125	-0.03116066436337627	-9.740075281477493	-1.961311187887458	-0.7209857858658586	-0.7435883565202867	-0.3651895293561793	0.2956878850102669	-0.3869653767820774	0.640495867768595
3809.600830078125	0.1159978265686993	-9.729160702742787	-2.199927552289976	0	0	0	0.2956878850102669	-0.3869653767820774	0.640495867768595
3813.507080078125	0.1772245534647539	-9.729364061046397	-2.24081844882513	-0.003650733907402479	0.007337975153878983	0.3650733907402479	0.2854209445585216	-0.4114052953156823	0.6632231404958678
3817.413330078125	0.04623430945844811	-9.64838423994177	-2.207810315281604	-0.3587418978075275	0.3681807453296208	-0.3576942772182636	0.2854209445585216	-0.4114052953156823	0.6632231404958678
3821.319580078125	0.04280934133833211	-9.679491646300606	-2.093644711277737	-0.3624670035432295	1.119162631650203	0.01481629635193433	0.2854209445585216	-0.4114052953156823	0.6632231404958678
3825.225830078125	-0.08738518707202686	-9.708254543819955	-2.087160430932438	-0.3625041894573793	1.490984587233555	0.01853488776690934	0.2854209445585216	-0.4114052953156823	0.6632231404958678
3829.132080078125	0.004935171654544284	-9.818404294498364	-2.164505721818143	-0.0001115577424492505	1.115465866750055	0.01115577424492505	0.2956878850102669	-0.395112016293279	0.6570247933884298
3833.038330078125	-0.0337047461399119	-9.867564534585238	-2.209841795336271	-0.0001487436565990006	1.487287822333407	0.01487436565990006	0.2956878850102669	-0.395112016293279	0.6570247933884298
3836.944580078125	-0.1101076384754121	-9.778934803107049	-1.996412050819597	-7.437182829950031e-05	0.7436439111667036	0.007437182829950031	0.2956878850102669	-0.395112016293279	0.6570247933884298
3840.850830078125	-0.01369592939029576	-9.741095017169529	-1.876802353656809	0.3585931541509285	1.119107077003786	0.3725686428781636	0.2936344969199179	-0.3910386965376782	0.6239669421487604
3844.757080078125	-0.07853294964437274	-9.788725653718348	-2.04890167852091	-0.003762291649851729	1.122803841903934	0.3762291649851729	0.2936344969199179	-0.3910386965376782	0.6239669421487604
3848.663330078125	-0.04070451980653624	-9.829827794737447	-1.976516006448793	3.718591414975016e-05	-0.3718219555833518	-0.003718591414975016	0.2936344969199179	-0.3910386965376782	0.6239669421487604
3852.569580078125	-0.08936777280860794	-9.648895579874784	-2.021074239713069	3.718591414975016e-05	-0.3718219555833518	-0.003718591414975016	0.3080082135523614	-0.4012219959266802	0.6384297520661157
3856.475830078125	-0.0401233083157406	-9.726306536355423	-2.329223056141981	0.3550539779859753	0.01097918540760998	0.7264862593734864	0.3080082135523614	-0.4012219959266802	0.6384297520661157
3860.382080078125	-0.02530280960946847	-9.858181241773728	-2.156573013017718	0.3587790837216773	-0.7400027009129726	0.3539756858032885	0.3080082135523614	-0.4012219959266802	0.6384297520661157
3864.288330078125	-0.1591218265024554	-9.714782723902459	-2.362605783251488	0.003762291649851729	-1.122803841903934	-0.3762291649851729	0.3080082135523614	-0.4012219959266802	0.6384297520661157
3868.194580078125	-0.02876247692306481	-9.795966534205125	-2.374584102564507	-0.3695825417872857	-0.7252711959587976	0.726370120757555	0.2874743326488706	-0.395112016293279	0.6301652892561984
3872.100830078125	-0.07405596506737561	-9.617278095371786	-2.198134497754147	0.3514404299927226	-0.3535047950218628	1.087841058698759	0.2874743326488706	-0.395112016293279	0.6301652892561984
3876.007080078125	0.1869639861802576	-9.559548311135051	-2.232132872675253	-0.007189910072355707	-1.100789916442297	0.7189910072355706	0.2874743326488706	-0.395112016293279	0.6301652892561984
3879.913330078125	-0.007357017635865101	-9.759045435702262	-2.08809941213783	7.437182829950031e-05	-0.7436439111667036	-0.007437182829950031	0.2874743326488706	-0.3971486761710794	0.6446280991735538
3883.819580078125	0.0278240214630284	-9.437670233060286	-2.26080071543428	-1.087029151488191	-0.3607316608829078	0.007262974906052836	0.2874743326488706	-0.3971486761710794	0.6446280991735538
3887.725830078125	0.07139516782186064	-9.590248895737599	-2.046505594062022	0	0	0	0.2874743326488706	-0.3971486761710794	0.6446280991735538
3891.632080078125	-0.1404710100067743	-9.875418959902191	-2.317632999774192	-1.445771049295719	0.00744908444671297	-0.3504313023122107	0.2874743326488706	-0.3971486761710794	0.6446280991735538
3895.538330078125	-0.4093014342596178	-9.775674130410609	-2.023285524679407	-0.7247108916015605	0.007393529800295976	0.007321044214018567	0.3100616016427105	-0.3910386965376782	0.6384297520661157
3899.444580078125	0.006362570295439963	-9.717942768937808	-2.212085676514666	-0.7210601576941581	5.555464641699391e-05	-0.3577523465262293	0.3100616016427105	-0.3910386965376782	0.6384297520661157
3903.350830078125	-0.254535933775012	-9.435633285253919	-2.182135540832933	-0.3587047118933778	-0.003641210253730994	-0.3614128686332386	0.3100616016427105	-0.3910386965376782	0.6384297520661157
3907.257080078125	-0.2556336900778445	-9.755988226458502	-2.14554366407185	-0.3623554458007803	0.003696764900147988	0.003660522107009284	0.2854209445585216	-0.4175152749490835	0.640495867768595
3911.163330078125	-0.2044760382353568	-9.706113919029432	-2.184132058821442	-0.7210229717800084	-0.3717664009369348	-0.3614709379412043	0.2854209445585216	-0.4175152749490835	0.640495867768595
3915.069580078125	0.05175226983985533	-9.609933432751779	-2.058408994661844	-0.3550167920718256	-0.3828011409909618	-0.7302048507884614	0.2854209445585216	-0.4175152749490835	0.640495867768595
3918.975830078125	-0.06574471961080125	-9.757924126007492	-2.141842679639959	-0.3623182598866305	-0.3681251906832038	-5.806930796573191e-05	0.3018480492813142	-0.4256619144602851	0.6301652892561984
3922.882080078125	-0.506103509271388	-9.763640134664415	-2.12988302428707	-0.358667525979228	-0.3754631658370828	-0.3651314600482136	0.3018480492813142	-0.4256619144602851	0.6301652892561984
3926.788330078125	-0.0710371352345863	-9.736302007059185	-2.298762158847124	-0.7173722378726058	-0.3791043760908138	-0.7265443286814521	0.3018480492813142	-0.4256619144602851	0.6301652892561984
3930.694580078125	-0.03861625925344687	-9.749152590491947	-2.046124691551772	-0.7172234942160068	-1.866392198424221	-0.7414186943413522	0.3018480492813142	-0.4256619144602851	0.6301652892561984
3934.600830078125	-0.1992135900968502	-9.707745727464648	-2.026213663438327	-0.007227095986505457	-0.7289679608589457	0.7227095986505457	0.2874743326488706	-0.4012219959266802	0.6446280991735538
3938.507080078125	-0.09529108285930821	-9.627477450124511	-2.156963904689727	0.3550539779859753	0.01097918540760998	0.7264862593734864	0.2874743326488706	-0.4012219959266802	0.6446280991735538
3942.413330078125	-0.1844822052283799	-9.569649246357177	-1.850593159054005	-0.3659318078798833	-0.7326091711126765	0.3612967300173071	0.2874743326488706	-0.4012219959266802	0.6446280991735538
3946.319580078125	-0.1597929404490865	-9.758333050745204	-2.006901985030452	-0.365968993794033	-0.3607872155293249	0.3650153214322821	0.2874743326488706	-0.3869653767820774	0.6384297520661157
3950.225830078125	0.01499084020153922	-9.438486295001503	-2.166361340051307	-1.822729430726109	0.04049774996237689	1.11352278275579	0.2874743326488706	-0.3869653767820774	0.6384297520661157
3954.132080078125	0.02043309325171662	-9.560059966515279	-2.014436441723888	-0.7282500677665138	-1.10073436179588	0.3612386607093414	0.2874743326488706	-0.3869653767820774	0.6384297520661157
3958.038330078125	0.1193321036149462	-9.848082619831166	-2.311070120498207	0.3587790837216773	-0.7400027009129726	0.3539756858032885	0.2874743326488706	-0.3869653767820774	0.6384297520661157
3961.944580078125	0.1168440137187993	-9.732220435564255	-1.89480045729331	-0.3660061797081828	0.01103474005402697	0.3687339128472572	0.2874743326488706	-0.3869653767820774	0.6384297520661157
3965.850830078125	-0.03409511206656569	-9.817690752901521	-2.196829597781144	0.7319379875880661	0.7215744310586497	-0.7300306428645642	0.2874743326488706	-0.3869653767820774	0.6384297520661157
3969.757080078125	-0.1534981913045399	-9.5362977485218	-2.216726956515338	-0.3587790837216773	0.7400027009129726	-0.3539756858032885	0.2874743326488706	-0.3869653767820774	0.6384297520661157
3973.663330078125	-0.06445296327169234	-9.777506458124513	-2.184901224276923	-0.7174466097009052	0.3645395350758898	-0.7191071458515021	0.297741273100616	-0.4073319755600814	0.6322314049586777
3977.569580078125	-0.1946325079394121	-9.816264510900409	-2.178916402019598	-0.3514404299927226	0.3535047950218628	-1.087841058698759	0.297741273100616	-0.4073319755600814	0.6322314049586777
3981.475830078125	0.1058380604412633	-9.829112360457325	-2.194602014708778	-0.3551283498142748	0.7326647257590937	-0.7190490765435364	0.297741273100616	-0.4073319755600814	0.6322314049586777
3985.382080078125	-0.05167577389059188	-10.02004183355796	-1.944140870313604	0.007264281900655208	0.3571460052755938	-0.7264281900655207	0.3039014373716633	-0.405295315682281	0.640495867768595
3989.288330078125	-0.1460291899078973	-9.957216104736887	-2.132360336403423	-0.7101451418861003	0.3498635847681318	-1.449253927331998	0.3039014373716633	-0.405295315682281	0.640495867768595
3993.194580078125	-0.1947831339838381	-9.926313213321441	-2.173895533872065	-1.079653311845087	-1.11905152235737	-0.7303209894043929	0.3039014373716633	-0.405295315682281	0.640495867768595
3997.100830078125	-0.04111538980206478	-9.906627309369336	-2.296153673264508	0.0001487436565990006	-1.487287822333407	-0.01487436565990006	0.3039014373716633	-0.405295315682281	0.640495867768595
4001.007080078125	0.04420598387591568	-9.769040065213455	-2.140199462530523	-0.3660061797081828	0.01103474005402697	0.3687339128472572	0.2956878850102669	-0.3991853360488798	0.6446280991735538
4004.913330078125	0.198894988411258	-9.799023953747028	-2.2964996137086	-0.728212881852364	-1.472556317379232	0.3575200692943664	0.2956878850102669	-0.3991853360488798	0.6446280991735538
4008.819580078125	-0.1109688093681514	-9.765879915029037	-2.301039687728288	-1.086917593745742	-1.476197527632963	-0.00389279933887221	0.2956878850102669	-0.3991853360488798	0.6446280991735538
4012.725830078125	-0.0561708966823628	-9.688161923260632	-2.127636777254573	-0.3731960897805385	-1.08975517638827	1.087724920082828	0.3080082135523614	-0.395112016293279	0.640495867768595
4016.632080078125	-0.05194942434826635	-9.556796980539273	-2.268352521724455	-0.3731589038663887	-1.461577131971622	1.084006328667853	0.3080082135523614	-0.395112016293279	0.640495867768595
4020.538330078125	-0.09300803365190877	-9.676739264214117	-2.233065544936375	0.3514776159068723	-0.7253267506052147	1.084122467283784	0.3080082135523614	-0.395112016293279	0.640495867768595
4024.444580078125	0.07092830594594339	-9.910399847744147	-2.030943531531446	-1.086843221917442	-2.219841438799667	-0.01132998216882224	0.3080082135523614	-0.395112016293279	0.640495867768595
4028.350830078125	0.2652043585341484	-9.680917257407293	-2.173478617804945	-0.01087782989390794	-0.7216299857050666	1.087782989390794	0.3080082135523614	-0.395112016293279	0.640495867768595
4032.257080078125	0.2608180650310203	-9.702335492306638	-2.027268834367343	-0.007264281900655208	-0.3571460052755938	0.7264281900655207	0.3080082135523614	-0.395112016293279	0.640495867768595
4036.163330078125	0.2854032322298727	-9.61105295491234	-2.180107740995756	-0.724636519773261	-0.7362503813664076	-0.0001161386159314638	0.3080082135523614	-0.395112016293279	0.640495867768595
4040.069580078125	0.09462785509301355	-9.649403660186593	-2.154261836433785	-0.3623554458007803	0.003696764900147988	0.003660522107009284	0.3059548254620124	-0.395112016293279	0.6590909090909091
4043.975830078125	0.1751962278822215	-9.85001988631808	-2.173207596074049	0.3658574360515838	1.47625308227938	-0.3538595471873571	0.3059548254620124	-0.395112016293279	0.6590909090909091
4047.882080078125	-0.04366341466876861	-9.750784504076234	-1.877886177707713	-0.7138330617076526	0.7290235155053626	-1.080461945176775	0.3059548254620124	-0.395112016293279	0.6590909090909091
4051.788330078125	-0.1253942104395678	-9.757210794708794	-2.153526318681073	0.007152724158205957	1.472611872025649	-0.7152724158205956	0.2854209445585216	-0.3849287169042769	0.628099173553719
4055.694580078125	-0.1173826398357782	-9.697953720213569	-2.087245338807394	0.007115538244056207	1.844433827609001	-0.7115538244056206	0.2854209445585216	-0.3849287169042769	0.628099173553719
4059.600830078125	-0.08183725920534118	-9.689794047143062	-1.938758026488628	-0.3552399075567241	1.848130592509149	-0.7078933022986114	0.2854209445585216	-0.3849287169042769	0.628099173553719
4063.507080078125	-0.498196824866073	-9.634416973373362	-2.060105837797568	0.01076627215145869	1.837095852455122	-1.076627215145868	0.2854209445585216	-0.3849287169042769	0.628099173553719
4067.413330078125	-0.3597360022270573	-9.716314640720082	-2.008799925764756	0.003501990250803478	1.479949847179528	-0.3501990250803478	0.3162217659137577	-0.4012219959266802	0.6322314049586777
4071.319580078125	-0.1976813052574799	-9.677250288699918	-2.077289824750672	0.3585931541509285	1.119107077003786	0.3725686428781636	0.3162217659137577	-0.4012219959266802	0.6322314049586777
4075.225830078125	-0.4048851732712113	-9.774246206024358	-2.170494224292958	0.3622810739724808	0.7399471462665556	0.003776660722940747	0.3162217659137577	-0.4012219959266802	0.6322314049586777
4079.132080078125	-0.3343188430027105	-9.40809642590421	-1.856038566576317	-0.007301467814804958	0.01467595030775797	0.7301467814804957	0.3018480492813142	-0.3890020366598778	0.640495867768595
4083.038330078125	-0.2853291021347102	-9.315589743023555	-2.155696595509661	3.718591414975016e-05	-0.3718219555833518	-0.003718591414975016	0.3018480492813142	-0.3890020366598778	0.640495867768595
4086.944580078125	-0.3651632715345955	-9.604736124462853	-2.16122428218015	-0.7245249620308118	-1.851716248116463	-0.01127191286085651	0.3018480492813142	-0.3890020366598778	0.640495867768595
4090.850830078125	-0.1987033542290826	-9.837580751200736	-2.04322152569725	-0.365820250137434	-1.848075037862732	0.3501409557723821	0.3018480492813142	-0.3890020366598778	0.640495867768595
4094.757080078125	-0.1487467676518346	-9.618094788207427	-2.041774411605513	0.7101823278002501	-0.7216855403514836	1.445535335917023	0.3018480492813142	-0.3890020366598778	0.640495867768595
4098.663330078125	0.1525794512953446	-9.780665977414504	-2.085981709844818	0.3514776159068723	-0.7253267506052147	1.084122467283784	0.3018480492813142	-0.3890020366598778	0.640495867768595
4102.569580078125	-0.002559065519174863	-9.450827431184534	-1.914697816027505	-0.003501990250803478	-1.479949847179528	0.3501990250803478	0.3018480492813142	-0.3890020366598778	0.640495867768595
4106.475830078125	0.1035408161092583	-9.559855136124675	-2.118027203641943	0.3477153242570206	0.3974770912987198	1.460351632268957	0.3039014373716633	-0.4114052953156823	0.621900826446281
4110.382080078125	0.1848457581418897	-9.620233204867455	-2.161525271396324	-0.003613547993252729	-0.3644839804294728	0.3613547993252729	0.3039014373716633	-0.4114052953156823	0.621900826446281
4114.288330078125	0.2038577616969799	-9.600752657051309	-2.128592056565994	0.3587047118933778	0.003641210253730994	0.3614128686332386	0.3039014373716633	-0.4114052953156823	0.621900826446281
4118.194580078125	0.02364671173881601	-9.809020896537783	-2.121557057960534	0.3623182598866305	0.3681251906832038	5.806930796573191e-05	0.2936344969199179	-0.3930753564154786	0.640495867768595
4122.100830078125	0.0962050911603016	-9.648893687191503	-2.206836372010053	-7.437182829950031e-05	0.7436439111667036	0.007437182829950031	0.2936344969199179	-0.3930753564154786	0.640495867768595
4126.007080078125	0.06547185777116039	-9.568830765987324	-2.18239525903868	0.369545355873136	1.097093151542149	-0.7226515293425799	0.2936344969199179	-0.3930753564154786	0.640495867768595
4129.913330078125	0.1163645339543437	-9.412375467354762	-1.878817798478125	-0.3478268819994699	0.7179887754513357	-1.449195858024032	0.2936344969199179	-0.3930753564154786	0.640495867768595
4133.819580078125	-0.1784137894594891	-9.617687125258568	-2.052873684683697	-0.7102195137143998	1.093507495934836	-1.441816744502048	0.2874743326488706	-0.4073319755600814	0.6487603305785125
4137.725830078125	-0.0629955971455182	-9.697035243077051	-2.233480095149394	-0.3479384397419191	1.833454642201391	-1.438040083779107	0.2874743326488706	-0.4073319755600814	0.6487603305785125
4141.632080078125	-0.2169338373128314	-9.746808607397815	-2.102205422905621	-0.3478268819994699	0.7179887754513357	-1.449195858024032	0.2874743326488706	-0.4073319755600814	0.6487603305785125
4145.538330078125	-0.2640159111574468	-9.848698477940907	-1.866136294751773	0.007189910072355707	1.100789916442297	-0.7189910072355706	0.3100616016427105	-0.3849287169042769	0.6322314049586777
4149.444580078125	-0.0892218784723838	-9.465515074039404	-2.359270717587207	-0.7136843180510536	-0.7582643068280446	-1.095336310836675	0.3100616016427105	-0.3849287169042769	0.6322314049586777
4153.350830078125	-0.3994027007013181	-9.852473539893426	-2.353243309956066	0.7283244395948133	0.3570904506291769	-0.3686758435392914	0.3100616016427105	-0.3849287169042769	0.6322314049586777
4157.257080078125	-0.05734278308035783	-9.748540833195982	-2.088573897321406	-1.08714070923064	0.7547342058671476	0.01841874915097788	0.2956878850102669	-0.3930753564154786	0.6301652892561984
4161.163330078125	-0.2736544007646441	-9.805148256247236	-2.211519974511865	-0.3623182598866305	-0.3681251906832038	-5.806930796573191e-05	0.2956878850102669	-0.3930753564154786	0.6301652892561984
4165.069580078125	-0.2256464893485306	-9.829625698222692	-1.811783688382316	-0.7245621479449615	-1.479894292533111	-0.007553321445881495	0.2956878850102669	-0.3930753564154786	0.6301652892561984
4168.975830078125	-0.1937295402908897	-9.36597255136072	-2.209015323637012	-0.3622067021441813	-1.483591057433259	-0.01121384355289078	0.2956878850102669	-0.3930753564154786	0.6301652892561984
4172.882080078125	-0.1556621591888591	-9.776997431471063	-2.144594693704699	-0.3694337981306867	-2.212559018292205	0.7114957550976549	0.2874743326488706	-0.4093686354378818	0.6384297520661157
4176.788330078125	0.07653143707498417	-9.858588168679089	-2.217714569166139	-0.373121717952239	-1.833399087554974	1.080287737252878	0.2874743326488706	-0.4093686354378818	0.6384297520661157
4180.694580078125	0.1068648411210679	-9.742113701370855	-1.895494704035595	0.3588534555499768	-1.483646612079676	0.3465385029733385	0.2874743326488706	-0.4093686354378818	0.6384297520661157
4184.600830078125	-0.1510952721560265	-9.665520804663783	-2.296824261465783	-0.3695825417872857	-0.7252711959587976	0.726370120757555	0.3018480492813142	-0.4012219959266802	0.6466942148760331
4188.507080078125	0.07373815199981704	-9.679491330853393	-2.124605066660568	-0.3660061797081828	0.01103474005402697	0.3687339128472572	0.3018480492813142	-0.4012219959266802	0.6466942148760331
4192.413330078125	0.1426002786976131	-9.790559243221104	-2.086675956587103	-0.7246737056874109	-0.3644284257830558	0.003602452799043552	0.3018480492813142	-0.4012219959266802	0.6466942148760331
4196.319580078125	0.0005496667694498732	-9.629822274411213	-2.018322225648329	-0.7137215039652034	-0.3864423512446928	-1.0916177194217	0.3018480492813142	-0.4012219959266802	0.6466942148760331
4200.225830078125	0.02093859741128243	-9.61656318683702	-2.364619913709415	0.003613547993252729	0.3644839804294728	-0.3613547993252729	0.2874743326488706	-0.4032586558044806	0.6487603305785125
4204.132080078125	-0.01698998691682683	-9.578826762436442	-2.100333769439106	-0.3550539779859753	-0.01097918540760998	-0.7264862593734864	0.2874743326488706	-0.4032586558044806	0.6487603305785125
4208.038330078125	0.02514902909290787	-9.758535147259959	-2.171634303096929	-0.3550911639001251	0.3608427701757418	-0.7227676679585114	0.2874743326488706	-0.4032586558044806	0.6487603305785125
4211.944580078125	0.009998099430538913	-9.616767281184126	-2.333269981017964	-0.7136099462227541	-1.501908217994748	-1.102773493666625	0.297741273100616	-0.4032586558044806	0.6466942148760331
4215.850830078125	0.07507485956684366	-9.729059128740055	-2.169161985561455	-0.7173722378726058	-0.3791043760908138	-0.7265443286814521	0.297741273100616	-0.4032586558044806	0.6466942148760331
4219.757080078125	-0.09521616414611203	-9.677453226407243	-2.1594611951296	0	0	0	0.297741273100616	-0.4032586558044806	0.6466942148760331
4223.663330078125	0.1166295096136482	-9.518956458558254	-2.220983653788271	-0.3623182598866305	-0.3681251906832038	-5.806930796573191e-05	0.2895277207392197	-0.4093686354378818	0.6363636363636364
4227.569580078125	-0.1348773422941372	-9.676943674008436	-2.170755256862094	0	0	0	0.2895277207392197	-0.4093686354378818	0.6363636363636364
4231.475830078125	-0.07922377904184488	-9.748949021890198	-2.025874031938505	-0.003687919821552229	0.3791599307372308	0.3687919821552229	0.2895277207392197	-0.4093686354378818	0.6363636363636364
4235.382080078125	-0.03556667331734543	-9.678166557705941	-2.147777556088486	-0.3623182598866305	-0.3681251906832038	-5.806930796573191e-05	0.2895277207392197	-0.4093686354378818	0.6363636363636364
4239.288330078125	-0.1570280456231305	-9.497439068084812	-2.099065145895651	-0.369694099529735	0.3901946707912577	0.73752589500248	0.2936344969199179	-0.395112016293279	0.6342975206611571
4243.194580078125	-0.2261914244097785	-9.606468560559161	-2.126952519674048	-0.01091501580805769	-0.3498080301217149	1.091501580805769	0.2936344969199179	-0.395112016293279	0.6342975206611571
4247.100830078125	-0.1302915284284972	-9.858794260858547	-1.99028238571676	-0.369545355873136	-1.097093151542149	0.7226515293425799	0.2936344969199179	-0.395112016293279	0.6342975206611571
4251.007080078125	-0.07086679373931919	-9.709580263309046	-1.971106875356028	0.3477896960853201	-0.3461668198679838	1.452914449439007	0.3100616016427105	-0.4012219959266802	0.628099173553719
4254.913330078125	-0.1051204180306473	-9.737322268496577	-2.162652732311757	-0.007078352329906457	-2.216255783192353	0.7078352329906457	0.3100616016427105	-0.4012219959266802	0.628099173553719
4258.819580078125	-0.02800698084683382	-9.94905559047381	-2.066433971772206	-0.3621695162300315	-1.855413013016611	-0.0149324349678658	0.3100616016427105	-0.4012219959266802	0.628099173553719
4262.725830078125	-0.2344884747417474	-9.685817940166499	-2.183717508608423	-0.3695081699589862	-1.468915107125501	0.7189329379276049	0.3100616016427105	-0.4012219959266802	0.628099173553719
4266.632080078125	0.2043829813073868	-9.740582836043945	-2.146099376912892	-0.3658946219657335	-1.104431126696028	0.3575781386023321	0.3100616016427105	-0.4012219959266802	0.628099173553719
4270.538330078125	0.1722822842479068	-9.80096206142651	-2.076076141596894	-0.003576362079102979	-0.7363059360128246	0.3576362079102978	0.3100616016427105	-0.4012219959266802	0.628099173553719
4274.444580078125	0.02945094046643602	-9.540477529249186	-1.981698015547867	-0.7172606801301565	-1.494570242840869	-0.7377001029263772	0.3100616016427105	-0.4012219959266802	0.628099173553719
4278.350830078125	0.2080934291556819	-9.689383124572995	-2.269780971856062	0.3623182598866305	0.3681251906832038	5.806930796573191e-05	0.297741273100616	-0.3971486761710794	0.6528925619834711
4282.257080078125	0.2122439258667504	-9.791374463969751	-2.074797528891679	-0.0002231154848985009	2.230931733500111	0.02231154848985009	0.297741273100616	-0.3971486761710794	0.6528925619834711
4286.163330078125	0.2674637492005385	-9.363520054425159	-1.915458306684616	0.007264281900655208	0.3571460052755938	-0.7264281900655207	0.297741273100616	-0.3971486761710794	0.6528925619834711
