Time Stamp	Accelerometer X	Accelerometer Y	Accelerometer Z	Gyroscope X	Gyroscope Y	Gyroscope Z	Magnetometer X	Magnetometer Y	Magnetometer Z
1927.764892578125	-0.8695231463335965	-8.391145817314531	4.984104877786549	54.94741943116341	-8.47782418211659	12.50443369525406	0.1190965092402464	-0.4236252545824847	0.6570247933884298
1931.671142578125	-0.1556929152921712	-9.967007375944469	-2.143569490260961	-11.92487310625913	0.05595146531997277	-3.164863287130924	0.1293634496919918	-0.4134419551934826	0.628099173553719
1935.577392578125	-0.2423738664601539	-9.478367550155451	-1.92087111799487	-11.89067780818311	-13.3956807120656	-6.584393094732255	0.1293634496919918	-0.4134419551934826	0.628099173553719
1939.483642578125	-0.4445416197110346	-9.847068457039901	-1.848612676298847	-28.60730594592653	-4.950152826824628	-1.588245987057156	0.1293634496919918	-0.4134419551934826	0.628099173553719
1943.389892578125	-0.2456836963473579	-9.516104395152313	-2.143876788421405	-49.61393643441748	4.909616457089464	-2.374472500282011	0.1293634496919918	-0.4134419551934826	0.628099173553719
1947.296142578125	-0.3726141347164643	-9.687145236891658	-1.912862176117859	-63.76121984638881	13.26322521164449	-0.6896095640182071	0.1314168377823409	-0.4276985743380855	0.6384297520661157
1951.202392578125	-0.4197758589824777	-9.665727527737667	-2.007471367250743	6.164139543490465	-4.532046445456617	-0.4719253635391059	0.1314168377823409	-0.4276985743380855	0.6384297520661157
1955.108642578125	-0.5347287666565986	-9.686228967885635	-1.842374444780045	7.979753435972516	-6.416978023027994	-0.8738943218892752	0.1314168377823409	-0.4276985743380855	0.6384297520661157
1959.014892578125	-0.05192024548102153	-9.786787546038864	-2.269325150632616	6.892649912656026	-6.034065772744198	-0.8591941641532723	0.135523613963039	-0.4297352342158859	0.6239669421487604
1962.921142578125	-0.363055295530665	-9.607387878888249	-1.898156815644499	5.798058991953982	-3.777367794235885	-0.0957542678618987	0.135523613963039	-0.4297352342158859	0.6239669421487604
1966.827392578125	-0.254757535442466	-9.779038269793064	-1.841415485251134	2.544049889819315	-2.643306993692256	-0.7818005761343858	0.135523613963039	-0.4297352342158859	0.6239669421487604
1970.733642578125	-0.124598494843621	-9.866953513332771	-2.1800501718793	0.003762291649851729	-1.122803841903934	-0.3762291649851729	0.135523613963039	-0.4297352342158859	0.6239669421487604
1974.639892578125	-0.2766385314039531	-9.779446458487278	-1.778715619868232	-1.083378417580789	-0.3680696360367868	-0.357810415834195	0.135523613963039	-0.4297352342158859	0.6239669421487604
1978.546142578125	-0.2252553348038432	-9.66949922491991	-1.82482217320523	-1.44957052685972	1.502074881933999	0.0295164540879372	0.135523613963039	-0.4297352342158859	0.6239669421487604
1982.452392578125	-0.2822763617264742	-9.737936023624894	-1.924121275784195	-1.815576706567903	1.513109621988026	0.3982503669351943	0.135523613963039	-0.4297352342158859	0.6239669421487604
1986.358642578125	0.02782796455319662	-9.721002291461133	-1.927598818439887	-1.811888786746351	1.133949691250795	0.02945838477997146	0.1416837782340863	-0.4175152749490835	0.6198347107438017
1990.264892578125	-0.1223398927952645	-9.759556565337135	-1.922003573491183	-1.811888786746351	1.133949691250795	0.02945838477997146	0.1416837782340863	-0.4175152749490835	0.6198347107438017
1994.171142578125	-0.1172020463060737	-9.607895328305631	-2.093265123130877	-0.7248968211723092	1.866503307717055	0.02591400128889364	0.1416837782340863	-0.4175152749490835	0.6198347107438017
1998.077392578125	-0.2807440768871038	-9.707440584860164	-1.97519743709654	-0.7249340070864591	2.238325263300407	0.02963259270386866	0.1416837782340863	-0.4073319755600814	0.6260330578512396
2001.983642578125	-0.1124056714254508	-9.719677833760894	-1.919810952484975	-0.00387384939230098	2.23826970865399	0.387384939230098	0.1416837782340863	-0.4073319755600814	0.6260330578512396
2005.889892578125	-0.5441969147685288	-9.615957002441824	-1.860102841049041	-0.0001859295707487508	1.859109777916759	0.01859295707487508	0.1416837782340863	-0.4073319755600814	0.6260330578512396
2009.796142578125	-0.5574559497681858	-9.683577423758381	-2.084801674393809	-0.3514032440785728	-0.01831716056148896	-1.091559650113734	0.1416837782340863	-0.4073319755600814	0.6260330578512396
2013.702392578125	-0.496679523769342	-9.593926379352089	-2.110682541021939	0.003539176164953228	1.108127891596177	-0.3539176164953228	0.1211498973305955	-0.4032586558044806	0.6074380165289256
2017.608642578125	-0.5369116613737254	-9.633601437177504	-2.102944620875823	-0.3587790837216773	0.7400027009129726	-0.3539756858032885	0.1211498973305955	-0.4032586558044806	0.6074380165289256
2021.514892578125	-0.5256565047975579	-9.843295603217877	-2.14478317341474	-0.717335051958456	-0.7509263316741656	-0.7302629200964272	0.1211498973305955	-0.4032586558044806	0.6074380165289256
2025.421142578125	-0.4367153743451513	-9.804537971038267	-2.10948752182829	0	0	0	0.1314168377823409	-0.4276985743380855	0.6322314049586777
2029.327392578125	-0.2892508996160219	-9.646857790875847	-2.024970012799271	-0.7245621479449615	-1.479894292533111	-0.007553321445881495	0.1314168377823409	-0.4276985743380855	0.6322314049586777
2033.233642578125	-0.1871311732033901	-9.627172412669097	-2.095627559886996	-1.44558511972497	-1.851660693470046	-0.3690242593870858	0.1314168377823409	-0.4276985743380855	0.6322314049586777
2037.139892578125	-0.5246596916030317	-9.736306633618316	-1.844676946565608	-1.441897199903418	-2.230820624207277	-0.7378162415423086	0.1375770020533881	-0.4134419551934826	0.6260330578512396
2041.046142578125	-0.499488581205182	-9.614834641256342	-2.017047293160605	-0.7319008016739164	-1.093396386642001	0.7263120514495892	0.1375770020533881	-0.4134419551934826	0.6260330578512396
2044.952392578125	-0.3895986013070556	-9.795970214422614	-2.013379956431482	-0.7282872536806635	-0.7289124062125286	0.3649572521243164	0.1375770020533881	-0.4134419551934826	0.6260330578512396
2048.858642578125	-0.2916396236399297	-9.737630144976912	-1.945345878669013	-1.083304045752489	-1.11171354720349	-0.3652475986641451	0.1375770020533881	-0.4134419551934826	0.6260330578512396
2052.764892578125	-0.313670457027809	-9.638086781105658	-1.877651432406365	-0.7209485999517089	-1.115410312103638	-0.3689081207711543	0.1334702258726899	-0.4134419551934826	0.609504132231405
2056.671142578125	-0.1164520705560783	-9.897652836146467	-2.118264314797392	-0.007264281900655208	-0.3571460052755938	0.7264281900655207	0.1334702258726899	-0.4134419551934826	0.609504132231405
2060.577392578125	-0.2301274170156959	-9.717741198168408	-1.995752766143471	-0.7282872536806635	-0.7289124062125286	0.3649572521243164	0.1334702258726899	-0.4134419551934826	0.609504132231405
2064.483642578125	-0.009489440798838542	-9.599734919191626	-2.017018640038716	-0.003687919821552229	0.3791599307372308	0.3687919821552229	0.1314168377823409	-0.415478615071283	0.6446280991735538
2068.389892578125	-0.1516749064107549	-9.349041553072812	-1.944169786308171	-0.7210229717800084	-0.3717664009369348	-0.3614709379412043	0.1314168377823409	-0.415478615071283	0.6446280991735538
2072.296142578125	-0.2196025207386828	-9.721004815038841	-1.679915975377242	-0.003687919821552229	0.3791599307372308	0.3687919821552229	0.1314168377823409	-0.415478615071283	0.6446280991735538
2076.202392578125	-0.3009429505828282	-9.777304887355115	-1.968568313905728	0	0	0	0.1314168377823409	-0.415478615071283	0.6446280991735538
2080.108642578125	-0.2355499546150322	-9.679494485325526	-1.815001512832261	-0.3587047118933778	-0.003641210253730994	-0.3614128686332386	0.1232032854209446	-0.4256619144602851	0.6466942148760331
2084.014892578125	-0.02066100386343976	-9.796680391249179	-2.311299871218675	-0.7209857858658586	-0.7435883565202867	-0.3651895293561793	0.1232032854209446	-0.4256619144602851	0.6466942148760331
2087.921142578125	-0.4222844529474993	-9.676538639786356	-1.923851568416689	-0.3587790837216773	0.7400027009129726	-0.3539756858032885	0.1232032854209446	-0.4256619144602851	0.6466942148760331
2091.827392578125	-0.3142713839694458	-9.658281080816788	-1.857620534351807	0.007264281900655208	0.3571460052755938	-0.7264281900655207	0.1334702258726899	-0.4215885947046843	0.6260330578512396
2095.733642578125	-0.2196829597781145	-9.807697490328257	-2.010568007396186	0.7210229717800084	0.3717664009369348	0.3614709379412043	0.1334702258726899	-0.4215885947046843	0.6260330578512396
2099.639892578125	-0.2156215769048478	-9.639717643199234	-1.812614103171743	0.007189910072355707	1.100789916442297	-0.7189910072355706	0.1334702258726899	-0.4215885947046843	0.6260330578512396
2103.546142578125	-0.5971920466294072	-9.63309209507684	-2.09359844568643	-7.437182829950031e-05	0.7436439111667036	0.007437182829950031	0.1334702258726899	-0.4317718940936863	0.6322314049586777
2107.452392578125	-0.5531453635962875	-9.8221836675628	-2.22848788012375	0.362243888058331	1.111769101849907	0.007495252137915762	0.1334702258726899	-0.4317718940936863	0.6322314049586777
2111.358642578125	-0.5407325157467306	-9.751503513424778	-2.308916141775647	-3.718591414975016e-05	0.3718219555833518	0.003718591414975016	0.1334702258726899	-0.4317718940936863	0.6322314049586777
2115.264892578125	-0.4253088031065242	-9.694183179671111	-2.156373229782528	0.003725105735701979	-0.7509818863205826	-0.3725105735701979	0.1334702258726899	-0.4317718940936863	0.6322314049586777
2119.171142578125	-0.347383877966091	-9.815654120542369	-2.087204067796967	-0.7209114140375591	-1.48723226768699	-0.3726267121861294	0.135523613963039	-0.4236252545824847	0.621900826446281
2123.077392578125	-0.01697579179222125	-9.798822172679486	-2.100806940259292	-0.003650733907402479	0.007337975153878983	0.3650733907402479	0.135523613963039	-0.4236252545824847	0.621900826446281
2126.983642578125	0.1229479172992041	-9.663580173406592	-1.764930576640135	0.7283988114231127	-0.3865534605375267	-0.3761130263692414	0.135523613963039	-0.4236252545824847	0.621900826446281
2130.889892578125	-0.2760565312951238	-9.465924945118756	-2.131448956829209	-0.717335051958456	-0.7509263316741656	-0.7302629200964272	0.1396303901437372	-0.4134419551934826	0.6322314049586777
2134.796142578125	-0.3180023358866157	-9.836154088603339	-2.066588803779478	-0.003725105735701979	0.7509818863205826	0.3725105735701979	0.1396303901437372	-0.4134419551934826	0.6322314049586777
2138.702392578125	-0.1866808723061794	-9.717026815378999	-2.110637589794021	-0.003725105735701979	0.7509818863205826	0.3725105735701979	0.1396303901437372	-0.4134419551934826	0.6322314049586777
2142.608642578125	-0.08389476365511844	-9.580459306915156	-1.870174544829386	-0.3623554458007803	0.003696764900147988	0.003660522107009284	0.1396303901437372	-0.4134419551934826	0.6322314049586777
2146.514892578125	-0.3264744594220534	-9.868893408546464	-1.784184685931554	-0.7210229717800084	-0.3717664009369348	-0.3614709379412043	0.1396303901437372	-0.4134419551934826	0.6322314049586777
2150.421142578125	-0.4755792596611624	-9.493770627290441	-2.147358011294587	-0.003650733907402479	0.007337975153878983	0.3650733907402479	0.1396303901437372	-0.4134419551934826	0.6322314049586777
2154.327392578125	-0.3307605984349087	-9.886945926827288	-1.974646718836378	-0.358667525979228	-0.3754631658370828	-0.3651314600482136	0.1396303901437372	-0.4134419551934826	0.6322314049586777
2158.233642578125	-0.1945378737753748	-9.949567245854039	-1.848737540820841	-0.7246737056874109	-0.3644284257830558	0.003602452799043552	0.1293634496919918	-0.405295315682281	0.6301652892561984
2162.139892578125	-0.07379650973430672	-9.860527538147425	-1.87344967552311	-0.7136843180510536	-0.7582643068280446	-1.095336310836675	0.1293634496919918	-0.405295315682281	0.6301652892561984
2166.046142578125	-0.2421191428352869	-9.648285189516743	-1.929361905490438	-0.3625041894573793	1.490984587233555	0.01853488776690934	0.1293634496919918	-0.405295315682281	0.6301652892561984
2169.952392578125	-0.30402723571241	-9.754968806213679	-2.199092142919669	0.3622810739724808	0.7399471462665556	0.003776660722940747	0.1334702258726899	-0.4317718940936863	0.6177685950413223
2173.858642578125	-0.2907689893307867	-9.897348639883621	-1.974367022307113	-3.718591414975016e-05	0.3718219555833518	0.003718591414975016	0.1334702258726899	-0.4317718940936863	0.6177685950413223
2177.764892578125	-0.3814663721441184	-9.606674126993264	-1.951120928529388	-0.3550539779859753	-0.01097918540760998	-0.7264862593734864	0.1334702258726899	-0.4317718940936863	0.6177685950413223
2181.671142578125	-0.450404994791178	-9.865630948315815	-1.986500173627404	-0.0001115577424492505	1.115465866750055	0.01115577424492505	0.1334702258726899	-0.4317718940936863	0.6177685950413223
2185.577392578125	-0.345702544318362	-10.0951104893296	-2.143248522721268	0.003613547993252729	0.3644839804294728	-0.3613547993252729	0.1416837782340863	-0.4215885947046843	0.615702479338843
2189.483642578125	-0.1782639520330968	-9.717638677824034	-2.057868265563442	-0.7210601576941581	5.555464641699391e-05	-0.3577523465262293	0.1416837782340863	-0.4215885947046843	0.615702479338843
2193.389892578125	-0.3221930521174	-9.777509086851291	-1.926898262753334	0.3623182598866305	0.3681251906832038	5.806930796573191e-05	0.1416837782340863	-0.4215885947046843	0.615702479338843
2197.296142578125	-0.4454769206989365	-9.574037537692655	-2.150769310035454	-1.079764869587536	-0.003585655607314001	-0.7191652151594679	0.1457905544147844	-0.4012219959266802	0.6239669421487604
2201.202392578125	-0.1273767961761489	-9.697851830763621	-2.087440127461704	0.3585931541509285	1.119107077003786	0.3725686428781636	0.1457905544147844	-0.4012219959266802	0.6239669421487604
2205.108642578125	-0.2458493061344232	-9.616157942316796	-2.138356462185897	-7.437182829950031e-05	0.7436439111667036	0.007437182829950031	0.1457905544147844	-0.4012219959266802	0.6239669421487604
2209.014892578125	-0.3775161844135955	-9.715396899627063	-2.082793852880151	-0.7211345295224576	0.7436994658131205	-0.3503151636962792	0.1457905544147844	-0.4012219959266802	0.6239669421487604
2212.921142578125	-0.3477900162534177	-9.965785438588604	-2.073666124886077	-0.003762291649851729	1.122803841903934	0.3762291649851729	0.1457905544147844	-0.4012219959266802	0.6239669421487604
2216.827392578125	0.02238492288498557	-9.809428874933856	-2.079497429499519	-0.0001115577424492505	1.115465866750055	0.01115577424492505	0.1457905544147844	-0.4012219959266802	0.6239669421487604
2220.733642578125	-0.4149786954838212	-9.567509778206436	-1.83404348387263	-0.7137958757935028	0.3572015599220108	-1.08418053659175	0.1457905544147844	-0.4012219959266802	0.6239669421487604
2224.639892578125	-0.4834055050270458	-9.536301113292078	-1.886483165765145	-0.7174094237867555	-0.007282420507461989	-0.7228257372664771	0.1334702258726899	-0.4195519348268839	0.6177685950413223
2228.546142578125	-0.3541928060685735	-9.62452234062884	-2.19357313104755	-0.0001115577424492505	1.115465866750055	0.01115577424492505	0.1334702258726899	-0.4195519348268839	0.6177685950413223
2232.452392578125	-0.4091957594431095	-9.635639962219939	-2.026808018563017	3.718591414975016e-05	-0.3718219555833518	-0.003718591414975016	0.1334702258726899	-0.4195519348268839	0.6177685950413223
2236.358642578125	-0.5625780238967037	-9.635233561059934	-1.914065870109878	-0.3623182598866305	-0.3681251906832038	-5.806930796573191e-05	0.1293634496919918	-0.4358452138492871	0.6384297520661157
2240.264892578125	-0.391476300845162	-9.80657733727327	-1.950789971827935	-0.7209485999517089	-1.115410312103638	-0.3689081207711543	0.1293634496919918	-0.4358452138492871	0.6384297520661157
2244.171142578125	-0.183341074933697	-9.699280280895231	-1.888630835543435	-0.3658946219657335	-1.104431126696028	0.3575781386023321	0.1293634496919918	-0.4358452138492871	0.6384297520661157
2248.077392578125	-0.4151151264036416	-9.89755389087051	-1.829495786545283	-0.7208742281234094	-1.859054223270342	-0.3763453036011044	0.1293634496919918	-0.4358452138492871	0.6384297520661157
2251.983642578125	-0.184512961331692	-9.759659190830581	-1.849567955610268	-0.007152724158205957	-1.472611872025649	0.7152724158205956	0.135523613963039	-0.4134419551934826	0.6239669421487604
2255.889892578125	-0.3832999090723407	-9.857266970600056	-1.890003030921976	-0.003501990250803478	-1.479949847179528	0.3501990250803478	0.135523613963039	-0.4134419551934826	0.6239669421487604
2259.796142578125	-0.2069846322003784	-9.716925031078123	-2.100512259987387	-0.003539176164953228	-1.108127891596177	0.3539176164953228	0.135523613963039	-0.4134419551934826	0.6239669421487604
2263.702392578125	-0.1666271043286456	-9.62054276373293	-1.779096522378482	-0.01087782989390794	-0.7216299857050666	1.087782989390794	0.1232032854209446	-0.4195519348268839	0.6446280991735538
2267.608642578125	-0.2347384666584125	-9.589232104219553	-1.842051111386251	3.718591414975016e-05	-0.3718219555833518	-0.003718591414975016	0.1232032854209446	-0.4195519348268839	0.6446280991735538
2271.514892578125	-0.3046226423278112	-9.638494654352659	-1.845911922406294	-0.3660433656223325	0.3828566956373787	0.3724525042622321	0.1232032854209446	-0.4195519348268839	0.6446280991735538
2275.421142578125	-0.2423454762109427	-9.918358370641538	-1.921817459635243	-0.003613547993252729	-0.3644839804294728	0.3613547993252729	0.1232032854209446	-0.4195519348268839	0.6446280991735538
2279.327392578125	0.1851209858356315	-9.663477547913146	-1.83736619452105	-0.003650733907402479	0.007337975153878983	0.3650733907402479	0.1232032854209446	-0.4195519348268839	0.6446280991735538
2283.233642578125	0.01847968638238037	-9.730691568069696	-1.949322879412679	0.3622810739724808	0.7399471462665556	0.003776660722940747	0.1232032854209446	-0.4195519348268839	0.6446280991735538
2287.139892578125	-0.2845294434485952	-9.708664520048378	-1.849018551713496	-0.3550911639001251	0.3608427701757418	-0.7227676679585114	0.1232032854209446	-0.4195519348268839	0.6446280991735538
2291.046142578125	-0.2607857316916409	-9.687654053246964	-1.97380894361197	0.362095144401732	2.599056924183315	0.02236961779781583	0.1273100616016427	-0.415478615071283	0.6384297520661157
2294.952392578125	-0.3894929264905473	-9.655936046231943	-2.016902450315092	0.7281756959382143	1.844378272962584	-0.3538014778793914	0.1273100616016427	-0.415478615071283	0.6384297520661157
2298.858642578125	-0.1387983511574153	-9.79821146687423	-2.040054961419491	0.007189910072355707	1.100789916442297	-0.7189910072355706	0.1273100616016427	-0.415478615071283	0.6384297520661157
2302.764892578125	-0.4601381185624125	-9.688777991668513	-1.662062714586253	0.3695081699589862	1.468915107125501	-0.7189329379276049	0.1416837782340863	-0.4358452138492871	0.628099173553719
2306.671142578125	-0.5232165206014632	-9.435840008327807	-1.892782646617893	0.362243888058331	1.111769101849907	0.007495252137915762	0.1416837782340863	-0.4358452138492871	0.628099173553719
2310.577392578125	-0.2209297648893057	-9.818100623980875	-1.969007837023146	0.3658946219657335	1.104431126696028	-0.3575781386023321	0.1416837782340863	-0.4358452138492871	0.628099173553719
2314.483642578125	-0.3556351884521084	-9.714988710932849	-2.145493718263053	0.007227095986505457	0.7289679608589457	-0.7227095986505457	0.1416837782340863	-0.4358452138492871	0.628099173553719
2318.389892578125	-0.4001037821332276	-9.876033556223078	-1.996540595559081	-0.3550911639001251	0.3608427701757418	-0.7227676679585114	0.1170431211498973	-0.395112016293279	0.6322314049586777
2322.296142578125	-0.6214467828721627	-9.734267793128668	-1.951773904261245	0.3584815964084793	2.234572943753842	0.3837244171230887	0.1170431211498973	-0.395112016293279	0.6322314049586777
2326.202392578125	-0.3878257879674238	-9.715397004776133	-2.072473734419208	-0.003687919821552229	0.3791599307372308	0.3687919821552229	0.1170431211498973	-0.395112016293279	0.6322314049586777
2330.108642578125	-0.4866246438403807	-9.424008634841723	-2.112511871987315	-0.003613547993252729	-0.3644839804294728	0.3613547993252729	0.1232032854209446	-0.4195519348268839	0.6198347107438017
2334.014892578125	-0.5767841891547671	-9.913160221160041	-2.107193694841097	7.437182829950031e-05	-0.7436439111667036	-0.007437182829950031	0.1232032854209446	-0.4195519348268839	0.6198347107438017
2337.921142578125	-0.4711338198055112	-9.722333268403782	-2.295539339816299	-0.7282500677665138	-1.10073436179588	0.3612386607093414	0.1232032854209446	-0.4195519348268839	0.6198347107438017
2341.827392578125	-0.153167760348443	-9.54619090917933	-2.227741321718567	0.003725105735701979	-0.7509818863205826	-0.3725105735701979	0.1232032854209446	-0.4195519348268839	0.6198347107438017
2345.733642578125	-0.312684684485754	-9.804434714650395	-2.243843850474866	0.003650733907402479	-0.007337975153878983	-0.3650733907402479	0.1232032854209446	-0.4195519348268839	0.6198347107438017
2349.639892578125	-0.2450528019204427	-9.515900405954277	-2.164906602651912	-0.3585931541509285	-1.119107077003786	-0.3725686428781636	0.1232032854209446	-0.4195519348268839	0.6198347107438017
2353.546142578125	-0.4727812428777934	-9.746199268530486	-1.907291904073554	0.0001115577424492505	-1.115465866750055	-0.01115577424492505	0.1232032854209446	-0.4195519348268839	0.6198347107438017
2357.452392578125	-0.2738941406468718	-9.645225772142489	-2.203528645104272	-0.003576362079102979	-0.7363059360128246	0.3576362079102978	0.1601642710472279	-0.4134419551934826	0.628099173553719
2361.358642578125	-0.1155506801436231	-9.867361386579772	-2.14831066187923	-0.7208742281234094	-1.859054223270342	-0.3763453036011044	0.1601642710472279	-0.4134419551934826	0.628099173553719
2365.264892578125	-0.4748434790357726	-9.563532724888232	-2.171884032140917	-0.7172606801301565	-1.494570242840869	-0.7377001029263772	0.1601642710472279	-0.4134419551934826	0.628099173553719
2369.171142578125	-0.2480424528859872	-9.62686705976647	-2.065251570467096	-0.358667525979228	-0.3754631658370828	-0.3651314600482136	0.1457905544147844	-0.4358452138492871	0.621900826446281
2373.077392578125	-0.2852108094296636	-9.815551495048924	-2.159639685677881	-0.7209857858658586	-0.7435883565202867	-0.3651895293561793	0.1457905544147844	-0.4358452138492871	0.621900826446281
2376.983642578125	-0.2590436744553213	-9.797090788073888	-2.031877518155959	-0.7137215039652034	-0.3864423512446928	-1.0916177194217	0.1457905544147844	-0.4358452138492871	0.621900826446281
2380.889892578125	-0.3614039293682145	-9.866853937162391	-1.953202354392852	-1.072351844030281	-1.133727472665127	-1.460467770884889	0.1457905544147844	-0.4358452138492871	0.621900826446281
2384.796142578125	-0.2994713893320484	-9.916829082550695	-2.017620355598386	-3.718591414975016e-05	0.3718219555833518	0.003718591414975016	0.1211498973305955	-0.4073319755600814	0.6301652892561984
2388.702392578125	-0.3627406369352411	-9.817286139275728	-1.908645435491965	-1.076114135680133	-0.01092363076119298	-1.084238605899716	0.1211498973305955	-0.4073319755600814	0.6301652892561984
2392.608642578125	-0.3077526673033443	-9.796173362428082	-2.074911089888523	-0.7211717154366073	1.115521421396473	-0.3465965722813042	0.1211498973305955	-0.4073319755600814	0.6301652892561984
2396.514892578125	-0.3088346512455039	-9.916523203902713	-2.038844958483204	-1.079913613244135	1.483702166726093	-0.7042908494995678	0.1252566735112936	-0.4338085539714867	0.6198347107438017
2400.421142578125	-0.2115657143578165	-9.60840624764236	-1.947809521406116	-0.00383666347815123	1.866447753070638	0.3836663478151229	0.1252566735112936	-0.4338085539714867	0.6198347107438017
2404.327392578125	-0.1559618340416438	-9.577094326340131	-2.134605531945208	-1.445994164780617	2.238380817946824	-0.3281197538223606	0.1252566735112936	-0.4338085539714867	0.6198347107438017
2408.233642578125	-0.2993215519056561	-10.01678063511616	-2.022614936478132	-1.438655511051662	1.851882912055714	-1.061985126717831	0.1334702258726899	-0.4236252545824847	0.6115702479338843
2412.139892578125	-0.04240162581493818	-9.750376525680162	-1.919945806168728	-2.163403588567373	2.231098397439362	-1.050945491088838	0.1334702258726899	-0.4236252545824847	0.6115702479338843
2416.046142578125	0.01082851421996606	-9.819832113735545	-2.027617140665536	-1.446068536608917	2.982024729113527	-0.3206825709924106	0.1334702258726899	-0.4236252545824847	0.6115702479338843
2419.952392578125	-0.2579467067705224	-9.686736101855802	-2.068443107649253	-1.445994164780617	2.238380817946824	-0.3281197538223606	0.1334702258726899	-0.4236252545824847	0.6115702479338843
2423.858642578125	-0.1718453898572681	-9.858896676053849	-1.938487004757733	-1.079950799158285	1.855524122309445	-0.7005722580845928	0.1314168377823409	-0.4215885947046843	0.621900826446281
2427.764892578125	-0.250010054879929	-9.577503251077843	-1.999664837335701	-1.442231873130766	1.115576976042889	-0.7043489188075336	0.1314168377823409	-0.4215885947046843	0.621900826446281
2431.671142578125	-0.3320965173839017	-9.62737787395413	-1.930116087203279	-1.08717789514479	1.126556161450499	0.0221373405659529	0.1314168377823409	-0.4215885947046843	0.621900826446281
2435.577392578125	-0.3431119340778414	-9.577606192018502	-1.896268864071956	-0.7174466097009052	0.3645395350758898	-0.7191071458515021	0.1314168377823409	-0.4032586558044806	0.6260330578512396
2439.483642578125	-0.2295414738166984	-9.687551743200732	-2.015284206110055	-0.7247480775157102	0.3792154853836477	0.01103963562899358	0.1314168377823409	-0.4032586558044806	0.6260330578512396
2443.389892578125	-0.2433060129759212	-9.69866894419555	-1.889799567469296	-2.163180473082474	0.00016666393925098	-1.073257039578688	0.1314168377823409	-0.4032586558044806	0.6260330578512396
2447.296142578125	-0.1635033882973816	-9.809532762216154	-1.883220390087281	-1.797137107460142	-0.3826900316981278	-1.44570954384092	0.1314168377823409	-0.4032586558044806	0.6260330578512396
2451.202392578125	-0.2739193764239485	-9.698567265043744	-1.869354119201719	-0.3587790837216773	0.7400027009129726	-0.3539756858032885	0.1293634496919918	-0.4236252545824847	0.628099173553719
2455.108642578125	-0.1721750321953313	-9.639003260409822	-1.927498926822292	-0.717483795615055	0.7363614906592416	-0.7153885544365272	0.1293634496919918	-0.4236252545824847	0.628099173553719
2459.014892578125	-0.2823962316675881	-9.65797478157252	-1.920125611080399	-1.076188507508433	0.7327202804055106	-1.076801423069766	0.1293634496919918	-0.4236252545824847	0.628099173553719
2462.921142578125	-0.3731385657088375	-9.337314802912525	-1.89538114303875	0.7282872536806635	0.7289124062125286	-0.3649572521243164	0.1232032854209446	-0.4276985743380855	0.6322314049586777
2466.827392578125	-0.3370987215713057	-9.658995253308056	-1.763375947623145	-0.3551283498142748	0.7326647257590937	-0.7190490765435364	0.1232032854209446	-0.4276985743380855	0.6322314049586777
2470.733642578125	-0.4806279923125515	-9.915403050847724	-1.979066922914953	-0.3514776159068723	0.7253267506052147	-1.084122467283784	0.1232032854209446	-0.4276985743380855	0.6322314049586777
2474.639892578125	-0.1324389353341099	-9.689488589091361	-1.918702155529671	0.007301467814804958	-0.01467595030775797	-0.7301467814804957	0.1149897330595483	-0.4175152749490835	0.6301652892561984
2478.546142578125	-0.4311327472849853	-9.879399588288813	-1.628908423833825	0.7172978660443063	1.122748287257517	0.7339815115114022	0.1149897330595483	-0.4175152749490835	0.6301652892561984
2482.452392578125	-0.3089789683456607	-9.679903199765098	-1.700701055144642	1.079616125930937	1.490873477940721	0.7340395808193679	0.1149897330595483	-0.4175152749490835	0.6301652892561984
2486.358642578125	-0.4471692949991365	-9.56791807204972	-1.761023500028785	-0.3660433656223325	0.3828566956373787	0.3724525042622321	0.1149897330595483	-0.4175152749490835	0.6301652892561984
2490.264892578125	-0.4958640927225541	-9.786996056646959	-1.804530242581536	0.3587047118933778	0.003641210253730994	0.3614128686332386	0.135523613963039	-0.4175152749490835	0.640495867768595
2494.171142578125	-0.2411231182587945	-9.751296474903675	-1.629229391373518	1.083452789409088	-0.3755742751299168	0.350373233004245	0.135523613963039	-0.4175152749490835	0.640495867768595
2498.077392578125	-0.2295509372331021	-9.540888136372036	-1.681635425563264	1.083452789409088	-0.3755742751299168	0.350373233004245	0.135523613963039	-0.4175152749490835	0.640495867768595
2501.983642578125	-0.3010778042665813	-9.687348490046196	-1.964073191113957	1.079653311845087	1.11905152235737	0.7303209894043929	0.1149897330595483	-0.4195519348268839	0.6260330578512396
2505.889892578125	-0.09591724557802155	-9.701013242736895	-1.802758480732616	1.08319248801004	2.227179413953546	0.3764033729090701	0.1149897330595483	-0.4195519348268839	0.6260330578512396
2509.796142578125	-0.290327363231946	-9.63053918077833	-1.655754558935134	1.441748456246819	3.718108446540684	0.7526906072022087	0.1149897330595483	-0.4195519348268839	0.6260330578512396
2513.702392578125	-0.1816289851826558	-9.78872670520906	-1.945700493911474	1.08311811618174	2.97082332512025	0.3838405557390202	0.1149897330595483	-0.4195519348268839	0.6260330578512396
2517.608642578125	-0.4640638591338925	-9.73671398111996	-1.864538028870255	1.08319248801004	2.227179413953546	0.3764033729090701	0.1149897330595483	-0.4195519348268839	0.6260330578512396
2521.514892578125	-0.4808219923488279	-9.575465777526121	-1.972600255039072	0.724636519773261	0.7362503813664076	0.0001161386159314638	0.1149897330595483	-0.4195519348268839	0.6260330578512396
2525.421142578125	-0.5549418354769287	-9.536097860137541	-1.835272150769047	0.3623554458007803	-0.003696764900147988	-0.003660522107009284	0.1149897330595483	-0.4195519348268839	0.6260330578512396
2529.327392578125	-0.7620558010348247	-9.693064709001259	-1.931473298839181	0.3587047118933778	0.003641210253730994	0.3614128686332386	0.1457905544147844	-0.4297352342158859	0.6260330578512396
2533.233642578125	-0.3505517566072391	-9.386678401303008	-1.981608113092032	0.3697684713580345	-1.133838581957961	-0.7449630778324301	0.1457905544147844	-0.4297352342158859	0.6260330578512396
2537.139892578125	-0.5235635125362667	-9.835952202386727	-1.881216248791114	-0.3512173145078241	-1.877426938478248	-1.110152607188609	0.1457905544147844	-0.4297352342158859	0.6260330578512396
2541.046142578125	-0.1784902854087526	-9.987711858948831	-2.050323819708248	0.7211717154366073	-1.115521421396473	0.3465965722813042	0.1375770020533881	-0.4236252545824847	0.615702479338843
2544.952392578125	-0.2841091100366629	-9.778528612245188	-1.863029665444571	0.36239263171493	-0.3755187204834998	-0.007379113521984299	0.1375770020533881	-0.4236252545824847	0.615702479338843
2548.858642578125	-0.3202704013513759	-9.796887429770278	-1.990986621620805	0.3624298176290798	-0.7473406760668516	-0.01109770493695932	0.1375770020533881	-0.4236252545824847	0.615702479338843
2552.764892578125	-0.4612548016980524	-9.715805719215703	-1.958173276731588	-0.3549424202435261	-1.126445052157665	-0.7376420336184115	0.1375770020533881	-0.4236252545824847	0.615702479338843
2556.671142578125	-0.4645496478426171	-9.763537719469113	-2.181678405246097	-0.003613547993252729	-0.3644839804294728	0.3613547993252729	0.1396303901437372	-0.415478615071283	0.6260330578512396
2560.577392578125	-0.3092541960394025	-9.636658856719407	-2.024860132019916	0.358816269635827	-1.111824656496325	0.3502570943883135	0.1396303901437372	-0.415478615071283	0.6260330578512396
2564.483642578125	-0.2544412996109747	-9.568936020207548	-1.851956679634176	-0.3621695162300315	-1.855413013016611	-0.0149324349678658	0.1396303901437372	-0.415478615071283	0.6260330578512396
2568.389892578125	-0.414970020685451	-9.924173640021628	-2.167665977151632	-0.362095144401732	-2.599056924183315	-0.02236961779781583	0.1519507186858316	-0.4236252545824847	0.6425619834710744
2572.296142578125	-0.3050634798086182	-9.695303858471455	-2.164550673046061	-0.362095144401732	-2.599056924183315	-0.02236961779781583	0.1519507186858316	-0.4236252545824847	0.6425619834710744
2576.202392578125	-0.2725077501437257	-9.798110839213139	-1.916408328542479	-0.3620579584875823	-2.970878879766667	-0.02608820921279084	0.1519507186858316	-0.4236252545824847	0.6425619834710744
2580.108642578125	-0.1773475778780024	-9.697342383513888	-2.088414070733254	-0.3657458783091345	-2.591718949029436	0.342703772942432	0.1519507186858316	-0.4236252545824847	0.6425619834710744
2584.014892578125	-0.5143051368212859	-9.766291994238882	-1.856495439290475	-0.3657458783091345	-2.591718949029436	0.342703772942432	0.1519507186858316	-0.4236252545824847	0.6425619834710744
2587.921142578125	-0.3856768038257439	-9.464702166570323	-2.144106539141873	1.083638718979837	-2.234684053046676	0.3317802759293699	0.1519507186858316	-0.4236252545824847	0.6425619834710744
2591.827392578125	-0.3290477200658339	-9.766392096154622	-2.031742664472206	0.0002603013990482511	-2.602753689083463	-0.02603013990482511	0.1519507186858316	-0.4236252545824847	0.6425619834710744
2595.733642578125	-0.2408873214667349	-9.62788690060758	-1.970422617775503	0.0001859295707487508	-1.859109777916759	-0.01859295707487508	0.135523613963039	-0.4175152749490835	0.6177685950413223
2599.639892578125	-0.05385787998968489	-9.757414047863332	-2.204737333677171	-0.362095144401732	-2.599056924183315	-0.02236961779781583	0.135523613963039	-0.4175152749490835	0.6177685950413223
2603.546142578125	-0.1648101283791297	-9.779955274842585	-1.839662387362343	0.7212089013507571	-1.487343376979824	0.3428779808663293	0.135523613963039	-0.4175152749490835	0.6177685950413223
2607.452392578125	-0.0002018862166128743	-9.760065276543372	-1.993270459446238	0.3551283498142748	-0.7326647257590937	0.7190490765435364	0.1314168377823409	-0.4338085539714867	0.615702479338843
2611.358642578125	-0.2685567737951691	-9.69683335686044	-2.04810754016103	0	0	0	0.1314168377823409	-0.4338085539714867	0.615702479338843
2615.264892578125	-0.2342329624988466	-9.645735324541294	-2.192234583371778	-0.3623182598866305	-0.3681251906832038	-5.806930796573191e-05	0.1314168377823409	-0.4338085539714867	0.615702479338843
2619.171142578125	-0.2457538833523522	-9.539460422283927	-1.808203888254928	-1.453146888938823	0.7657689459211745	0.387152661998235	0.1314168377823409	-0.4338085539714867	0.615702479338843
2623.077392578125	-0.3847012833181262	-9.69438674827286	-2.176623889395795	0	0	0	0.1252566735112936	-0.4276985743380855	0.6322314049586777
2626.983642578125	-0.1915174667065182	-9.64859064756844	-1.949417776449395	-0.01460293562960992	0.02935190061551593	1.460293562960991	0.1252566735112936	-0.4276985743380855	0.6322314049586777
2630.889892578125	-0.2236228954742	-9.635638069536657	-2.212570150860001	-3.718591414975016e-05	0.3718219555833518	0.003718591414975016	0.1252566735112936	-0.4276985743380855	0.6322314049586777
2634.796142578125	-0.4945873201260843	-9.796583233507436	-1.847089329130525	-0.003725105735701979	0.7509818863205826	0.3725105735701979	0.1273100616016427	-0.4073319755600814	0.628099173553719
2638.702392578125	-0.2581430726608998	-9.976799593493691	-2.061897577970008	-0.007338653728954708	0.3864979058911098	0.7338653728954707	0.1273100616016427	-0.4073319755600814	0.628099173553719
2642.608642578125	-0.2963555594811209	-9.539154964232228	-1.788148017295971	-0.365968993794033	-0.3607872155293249	0.3650153214322821	0.1273100616016427	-0.4073319755600814	0.628099173553719
2646.514892578125	-0.3035122681364404	-9.958135633364115	-1.882924395451987	-0.7209485999517089	-1.115410312103638	-0.3689081207711543	0.1273100616016427	-0.4073319755600814	0.628099173553719
2650.421142578125	-0.3809561362763507	-9.736509150729354	-1.96812879078831	0.3550167920718256	0.3828011409909618	0.7302048507884614	0.1273100616016427	-0.4073319755600814	0.628099173553719
2654.327392578125	-0.3159085550072908	-9.618810432785692	-1.803048166423641	-0.003576362079102979	-0.7363059360128246	0.3576362079102978	0.1273100616016427	-0.4073319755600814	0.628099173553719
2658.233642578125	-0.2883944604314845	-9.586580875539513	-2.053517985617184	0.3587047118933778	0.003641210253730994	0.3614128686332386	0.1273100616016427	-0.4073319755600814	0.628099173553719
2662.139892578125	-0.1972302157422355	-9.557104436423323	-2.092326141925485	0.3550167920718256	0.3828011409909618	0.7302048507884614	0.1293634496919918	-0.3849287169042769	0.6177685950413223
2666.046142578125	-0.2015573628928403	-9.828503547335352	-1.948087903571993	0.3550167920718256	0.3828011409909618	0.7302048507884614	0.1293634496919918	-0.3849287169042769	0.6177685950413223
2669.952392578125	-0.208337112128078	-9.867362332921413	-2.055429595730737	-0.7209857858658586	-0.7435883565202867	-0.3651895293561793	0.1293634496919918	-0.3849287169042769	0.6177685950413223
2673.858642578125	-0.4013198311411067	-9.696426745402292	-1.956005628629779	-0.003725105735701979	0.7509818863205826	0.3725105735701979	0.1334702258726899	-0.405295315682281	0.6177685950413223
2677.764892578125	-0.2813899550566583	-9.697649418801653	-1.953668164778058	-0.7283988114231127	0.3865534605375267	0.3761130263692414	0.1334702258726899	-0.405295315682281	0.6177685950413223
2681.671142578125	-0.4220391927390361	-9.699792672318955	-1.598693575365465	0.3622810739724808	0.7399471462665556	0.003776660722940747	0.1334702258726899	-0.405295315682281	0.6177685950413223
2685.577392578125	-0.3401672343402146	-9.436654072436669	-1.994425521992848	-0.3623554458007803	0.003696764900147988	0.003660522107009284	0.1334702258726899	-0.405295315682281	0.6177685950413223
2689.483642578125	-0.4781138780212943	-9.767923487226886	-1.729537399290191	0	0	0	0.1252566735112936	-0.4338085539714867	0.6425619834710744
2693.389892578125	-0.3754981108655004	-9.658077722513179	-1.816729637816653	-0.7172606801301565	-1.494570242840869	-0.7377001029263772	0.1252566735112936	-0.4338085539714867	0.6425619834710744
2697.296142578125	-0.2884654360545125	-9.819937157657625	-1.717818798182919	0	0	0	0.1252566735112936	-0.4338085539714867	0.6425619834710744
2701.202392578125	-0.09354429391478669	-9.810245988365782	-1.881856869507111	-0.003725105735701979	0.7509818863205826	0.3725105735701979	0.1252566735112936	-0.415478615071283	0.6342975206611571
2705.108642578125	-0.3692144023734248	-9.709379323434074	-1.692853254219172	0	0	0	0.1252566735112936	-0.415478615071283	0.6342975206611571
2709.014892578125	-0.5994601120941675	-9.593825436243781	-2.017996263527757	-0.3586303400650783	-0.7472851214204346	-0.3688500514631886	0.1252566735112936	-0.415478615071283	0.6342975206611571
2712.921142578125	-0.3095396757675817	-9.656751161831519	-2.015344141080611	0.3660433656223325	-0.3828566956373787	-0.3724525042622321	0.1252566735112936	-0.415478615071283	0.6342975206611571
2716.827392578125	-0.4519167755616735	-9.769453090764941	-1.602774147944217	-0.003576362079102979	-0.7363059360128246	0.3576362079102978	0.1252566735112936	-0.415478615071283	0.6342975206611571
2720.733642578125	-0.4389526837065995	-9.5752613677318	-2.034910543113353	-0.003576362079102979	-0.7363059360128246	0.3576362079102978	0.1252566735112936	-0.415478615071283	0.6342975206611571
2724.639892578125	-0.4061114743135278	-9.657976043361375	-1.796284189549076	-0.3548308625010768	-2.241910918907721	-0.7487978078633365	0.1252566735112936	-0.415478615071283	0.6342975206611571
2728.546142578125	-0.3908154389329683	-9.826363658588326	-1.972818702234391	1.083415603494938	-0.003752319546564981	0.35409182441922	0.1416837782340863	-0.4134419551934826	0.6322314049586777
2732.452392578125	-0.1722207720412826	-9.819018049626679	-1.925974265290581	-0.007338653728954708	0.3864979058911098	0.7338653728954707	0.1416837782340863	-0.4134419551934826	0.6322314049586777
2736.358642578125	-0.1820248714355451	-9.875521375097494	-2.265837618815164	-0.365968993794033	-0.3607872155293249	0.3650153214322821	0.1416837782340863	-0.4134419551934826	0.6322314049586777
2740.264892578125	-0.3267646708584344	-9.815653910244228	-2.107844304718854	-0.3659318078798833	-0.7326091711126765	0.3612967300173071	0.135523613963039	-0.4236252545824847	0.6260330578512396
2744.171142578125	-0.3422263160260591	-9.747319842181758	-1.92578946579803	-0.007264281900655208	-0.3571460052755938	0.7264281900655207	0.135523613963039	-0.4236252545824847	0.6260330578512396
2748.077392578125	-0.1970653945732039	-9.667051144245336	-2.097820180893204	0.3551655357284246	-1.104486681342445	0.7153304851285613	0.135523613963039	-0.4236252545824847	0.6260330578512396
2751.983642578125	-0.2316896693403447	-9.728246326420045	-1.943677688655177	-0.007227095986505457	-0.7289679608589457	0.7227095986505457	0.135523613963039	-0.4236252545824847	0.6260330578512396
2755.889892578125	-0.4127256137617002	-9.596781281782951	-1.909146207943329	-0.007227095986505457	-0.7289679608589457	0.7227095986505457	0.1334702258726899	-0.4093686354378818	0.628099173553719
2759.796142578125	-0.2702996196495224	-9.797396877020013	-1.990012678349254	0.7137958757935028	-0.3572015599220108	1.08418053659175	0.1334702258726899	-0.4093686354378818	0.628099173553719
2763.702392578125	-0.2963460960647172	-9.685818571060926	-2.121796797842761	-1.449310225460672	-1.100678807149464	0.003486314183112089	0.1334702258726899	-0.4093686354378818	0.628099173553719
2767.608642578125	-0.2863913706260287	-9.519266543169083	-1.786954312465711	-0.358667525979228	-0.3754631658370828	-0.3651314600482136	0.1416837782340863	-0.4338085539714867	0.6466942148760331
2771.514892578125	-0.2418541671759825	-9.754866180720235	-2.271527760800584	-1.086954779659892	-1.104375572049612	-0.000174207923897194	0.1416837782340863	-0.4338085539714867	0.6466942148760331
2775.421142578125	-0.1222200228541507	-9.839517807389509	-1.925999238194979	-1.083415603494938	0.003752319546564981	-0.35409182441922	0.1416837782340863	-0.4338085539714867	0.6466942148760331
2779.327392578125	-0.3791636074858779	-9.739262899753768	-1.694546417137406	-0.7210973436083078	0.3718775102297688	-0.3540337551112543	0.1273100616016427	-0.4317718940936863	0.6260330578512396
2783.233642578125	-0.2197421061306378	-9.557716614315574	-2.008596462312076	-0.72478526342986	0.7510374409669995	0.0147582270439686	0.1273100616016427	-0.4317718940936863	0.6260330578512396
2787.139892578125	-0.4416119037160471	-9.696121182201523	-1.946269876131765	-0.7172978660443063	-1.122748287257517	-0.7339815115114022	0.1273100616016427	-0.4317718940936863	0.6260330578512396
2791.046142578125	-0.1814483916529513	-9.698668313301122	-1.951720278234957	-1.438395209652614	-0.7508707770277486	-1.088015266622657	0.1273100616016427	-0.4317718940936863	0.6260330578512396
2794.952392578125	-0.2527899334485241	-9.828402078481689	-1.907002218382529	-0.3660433656223325	0.3828566956373787	0.3724525042622321	0.1519507186858316	-0.4358452138492871	0.6136363636363636
2798.858642578125	-0.3413698768415218	-9.687042926845425	-1.954337438615944	-0.3623182598866305	-0.3681251906832038	-5.806930796573191e-05	0.1519507186858316	-0.4358452138492871	0.6136363636363636
2802.764892578125	-0.3857028282208541	-9.728043914458077	-1.809905725971531	-1.079653311845087	-1.11905152235737	-0.7303209894043929	0.1519507186858316	-0.4358452138492871	0.6136363636363636
2806.671142578125	-0.4108337190989882	-9.80616956917534	-1.972209363367063	-0.3659318078798833	-0.7326091711126765	0.3612967300173071	0.1273100616016427	-0.4073319755600814	0.6033057851239669
2810.577392578125	-0.06214940999541815	-9.700094975898519	-1.928353000152729	-0.003539176164953228	-1.108127891596177	0.3539176164953228	0.1273100616016427	-0.4073319755600814	0.6033057851239669
2814.483642578125	-0.4372516346080293	-9.93804469518993	-1.758278846399025	-0.003539176164953228	-1.108127891596177	0.3539176164953228	0.1273100616016427	-0.4073319755600814	0.6033057851239669
2818.389892578125	-0.2539752263530911	-9.458785323187501	-1.867492454896963	-0.7208370422092596	-2.230876178853694	-0.3800638950160794	0.1273100616016427	-0.4073319755600814	0.6033057851239669
2822.296142578125	-0.3040974227174043	-9.778324833345295	-1.863419242753192	-0.003613547993252729	-0.3644839804294728	0.3613547993252729	0.1273100616016427	-0.415478615071283	0.6466942148760331
2826.202392578125	-0.1720851297394959	-9.698974191949103	-1.93049567535014	-0.007264281900655208	-0.3571460052755938	0.7264281900655207	0.1273100616016427	-0.415478615071283	0.6466942148760331
2830.108642578125	-0.1808474647113146	-9.678474013589993	-1.971751176289515	-0.3622810739724808	-0.7399471462665556	-0.003776660722940747	0.1273100616016427	-0.415478615071283	0.6466942148760331
2834.014892578125	-0.2253957088138317	-9.716211279183138	-2.153476372872276	0	0	0	0.1375770020533881	-0.3910386965376782	0.6177685950413223
2837.921142578125	-0.1602732088315757	-9.64848833752221	-1.990893038947479	-0.01102657355050694	0.7656578366283405	1.102657355050694	0.1375770020533881	-0.3910386965376782	0.6177685950413223
2841.827392578125	-0.154049435310057	-9.659809317416919	-1.8650188229981	0.3587047118933778	0.003641210253730994	0.3614128686332386	0.1375770020533881	-0.3910386965376782	0.6177685950413223
2845.733642578125	-0.3247308249496665	-9.558329633400392	-1.842305835011118	0.3549796061576758	0.7546230965743135	0.7339234422034364	0.1314168377823409	-0.4093686354378818	0.6198347107438017
2849.639892578125	-0.3263088496349882	-9.768839861381981	-1.789705012167062	0.003725105735701979	-0.7509818863205826	-0.3725105735701979	0.1314168377823409	-0.4093686354378818	0.6198347107438017
2853.546142578125	-0.3038119429892251	-9.758232528233183	-1.872935233692496	-0.7247108916015605	0.007393529800295976	0.007321044214018567	0.1314168377823409	-0.4093686354378818	0.6198347107438017
2857.452392578125	-0.1445363359702092	-9.760066748630367	-1.848788800993028	-7.437182829950031e-05	0.7436439111667036	0.007437182829950031	0.1314168377823409	-0.4093686354378818	0.6198347107438017
2861.358642578125	-0.07758581938596626	-9.578419414934796	-2.080472687134459	0.3660433656223325	-0.3828566956373787	-0.3724525042622321	0.1252566735112936	-0.4215885947046843	0.6177685950413223
2865.264892578125	-0.2962506732826463	-9.609121051028055	-1.791644223911792	-0.3550539779859753	-0.01097918540760998	-0.7264862593734864	0.1252566735112936	-0.4215885947046843	0.6177685950413223
2869.171142578125	-0.2288206769339477	-9.747318685541975	-2.039310768868409	-3.718591414975016e-05	0.3718219555833518	0.003718591414975016	0.1252566735112936	-0.4215885947046843	0.6177685950413223
2873.077392578125	-0.1308009756782313	-9.518958982135961	-1.973300810725626	0.003613547993252729	0.3644839804294728	-0.3613547993252729	0.1396303901437372	-0.4276985743380855	0.6363636363636364
2876.983642578125	-0.3629811654355025	-9.867363910157481	-1.900627818816584	0.003539176164953228	1.108127891596177	-0.3539176164953228	0.1396303901437372	-0.4276985743380855	0.6363636363636364
2880.889892578125	-0.4203018672109183	-9.73589760373153	-1.989937759636058	-0.3514032440785728	-0.01831716056148896	-1.091559650113734	0.1396303901437372	-0.4276985743380855	0.6363636363636364
2884.796142578125	-0.4808535370701737	-9.975475976986022	-1.971548764327547	-0.0001115577424492505	1.115465866750055	0.01115577424492505	0.1396303901437372	-0.4276985743380855	0.6363636363636364
2888.702392578125	-0.3219075723892209	-9.757416781739181	-1.936414253692638	0.3622810739724808	0.7399471462665556	0.003776660722940747	0.1396303901437372	-0.4276985743380855	0.6363636363636364
2892.608642578125	-0.3450203897192599	-9.77822325934256	-1.832653676024671	0.3587418978075275	-0.3681807453296208	0.3576942772182636	0.1396303901437372	-0.4276985743380855	0.6363636363636364
2896.514892578125	-0.334800688621267	-9.718252222654211	-1.839977045957767	7.437182829950031e-05	-0.7436439111667036	-0.007437182829950031	0.1396303901437372	-0.4276985743380855	0.6363636363636364
2900.421142578125	-0.5638697802358127	-9.615651228942912	-1.871007325472914	0.3550911639001251	-0.3608427701757418	0.7227676679585114	0.1129363449691992	-0.4073319755600814	0.6198347107438017
2904.327392578125	-0.1757056751319556	-9.810144834959333	-1.809810828934816	-0.003576362079102979	-0.7363059360128246	0.3576362079102978	0.1129363449691992	-0.4073319755600814	0.6198347107438017
2908.233642578125	-0.248268786261643	-9.896940240891265	-2.057707124611901	-0.003613547993252729	-0.3644839804294728	0.3613547993252729	0.1129363449691992	-0.4073319755600814	0.6198347107438017
2912.139892578125	-0.5201834956440683	-9.774859330258248	-1.993883478531057	-0.3585559682367788	-1.490929032587138	-0.3762872342931387	0.1396303901437372	-0.4175152749490835	0.6384297520661157
2916.046142578125	-0.1985069883387052	-9.547517259562847	-2.049767055376496	-0.7209857858658586	-0.7435883565202867	-0.3651895293561793	0.1396303901437372	-0.4175152749490835	0.6384297520661157
2919.952392578125	-0.2534957465886356	-9.778630291396992	-1.883475113712149	-0.007413025557254208	1.130141817057813	0.7413025557254208	0.1396303901437372	-0.4175152749490835	0.6384297520661157
2923.858642578125	-0.2606201219045757	-9.587600506082479	-1.979329269847478	-1.086954779659892	-1.104375572049612	-0.000174207923897194	0.1396303901437372	-0.4175152749490835	0.6384297520661157
2927.764892578125	-0.2785059789076221	-9.726716933180132	-2.049800703079264	0	0	0	0.135523613963039	-0.4256619144602851	0.621900826446281
2931.671142578125	-0.2014169888828516	-9.781791493072122	-1.619433703904947	-0.003650733907402479	0.007337975153878983	0.3650733907402479	0.135523613963039	-0.4256619144602851	0.621900826446281
2935.577392578125	-0.2958295512526804	-9.468984888238365	-1.805681624910656	-0.3623182598866305	-0.3681251906832038	-5.806930796573191e-05	0.135523613963039	-0.4256619144602851	0.621900826446281
2939.483642578125	-0.1591612574041376	-9.548128806560671	-2.027958086528748	-0.003687919821552229	0.3791599307372308	0.3687919821552229	0.1314168377823409	-0.4073319755600814	0.6136363636363636
2943.389892578125	-0.2279342702641318	-9.707032080718735	-2.068857657862272	-0.3623554458007803	0.003696764900147988	0.003660522107009284	0.1314168377823409	-0.4073319755600814	0.6136363636363636
2947.296142578125	-0.2423596713355483	-9.698362960398494	-1.921344288815057	-0.003687919821552229	0.3791599307372308	0.3687919821552229	0.1314168377823409	-0.4073319755600814	0.6136363636363636
2951.202392578125	-0.2004454114654022	-9.728144016373813	-1.985152951153262	-0.3623554458007803	0.003696764900147988	0.003660522107009284	0.1314168377823409	-0.4073319755600814	0.6136363636363636
2955.108642578125	-0.2965266895944216	-9.775876962968864	-2.115777013519279	-0.3587047118933778	-0.003641210253730994	-0.3614128686332386	0.1314168377823409	-0.4073319755600814	0.6136363636363636
2959.014892578125	-0.4393438382512869	-9.735387841034584	-2.021872058290439	-0.358667525979228	-0.3754631658370828	-0.3651314600482136	0.1314168377823409	-0.4073319755600814	0.6136363636363636
2962.921142578125	-0.4312762757671086	-9.432779329164699	-2.290790807763051	-1.086954779659892	-1.104375572049612	-0.000174207923897194	0.1314168377823409	-0.4073319755600814	0.6136363636363636
2966.827392578125	-0.4775933901190893	-9.834421862805172	-2.080220329363693	-1.083341231666639	-0.7398915916201386	-0.36152900724917	0.1498973305954825	-0.4175152749490835	0.6363636363636364
2970.733642578125	-0.4747243977126923	-9.853494221927104	-2.175853409576925	-0.3586303400650783	-0.7472851214204346	-0.3688500514631886	0.1498973305954825	-0.4175152749490835	0.6363636363636364
2974.639892578125	-0.3737008503668257	-9.734163274951941	-2.209971654439144	-1.438246465996015	-2.238158599361156	-1.102889632282557	0.1498973305954825	-0.4175152749490835	0.6363636363636364
2978.546142578125	-0.395131545431102	-9.824425866356057	-2.162281818963267	-1.086880407831592	-1.848019483216315	-0.007611390753847227	0.1334702258726899	-0.4134419551934826	0.6260330578512396
2982.452392578125	-0.3124133998821805	-9.564346999295237	-2.252886670593985	-1.086880407831592	-1.848019483216315	-0.007611390753847227	0.1334702258726899	-0.4134419551934826	0.6260330578512396
2986.358642578125	-0.401866343438422	-9.893270117711756	-2.271121885385935	-1.449161481804073	-2.58796662948287	-0.01138805147678797	0.1334702258726899	-0.4134419551934826	0.6260330578512396
2990.264892578125	-0.2971875515066154	-9.756090641653806	-2.093748283112823	-1.44558511972497	-1.851660693470046	-0.3690242593870858	0.1334702258726899	-0.4134419551934826	0.6260330578512396
2994.171142578125	-0.238168955104764	-9.75700796215054	-2.061034829841201	-0.728212881852364	-1.472556317379232	0.3575200692943664	0.1396303901437372	-0.4134419551934826	0.6301652892561984
2998.077392578125	-0.3005581049824099	-9.96384712061098	-2.314729833919671	-1.815242033340555	-1.83328797826214	0.3647830442004192	0.1396303901437372	-0.4134419551934826	0.6301652892561984
3001.983642578125	-0.2023380947461478	-9.72875598396792	-1.92206350846174	-1.090531141738995	-1.840681508062436	0.3574619999864007	0.1396303901437372	-0.4134419551934826	0.6301652892561984
3005.889892578125	-0.2908431194259492	-9.63737260861439	-1.971896019135028	-0.7354771637530193	-1.829702322654826	1.083948259359887	0.1190965092402464	-0.4012219959266802	0.6115702479338843
3009.796142578125	-0.2230921555375576	-9.638799796957143	-1.896928148748082	-1.452775029797326	-2.952450609912343	0.3499667478484849	0.1190965092402464	-0.4012219959266802	0.6115702479338843
3013.702392578125	-0.3072818623372588	-9.759354468822382	-1.757271255424706	-1.452775029797326	-2.952450609912343	0.3499667478484849	0.1190965092402464	-0.4012219959266802	0.6115702479338843
3017.608642578125	-0.1271457310922912	-9.501110453053174	-1.761808963590294	-1.094144689732247	-2.205165488491909	0.7188167993116735	0.1190965092402464	-0.4012219959266802	0.6115702479338843
3021.514892578125	-0.3348156723639062	-9.708257067397664	-1.839477587869793	-1.090605513567294	-1.097037596895733	0.3648991828163506	0.1190965092402464	-0.4012219959266802	0.6115702479338843
3025.421142578125	-0.1265463813867218	-9.900916663315041	-1.781787287109276	-1.105245635111054	-0.6958637406968647	1.828911337192317	0.1190965092402464	-0.4012219959266802	0.6115702479338843
3029.327392578125	0.06782430536552052	-9.804736807931814	-1.594143512184017	-0.3696197277014355	-0.3534492403754458	0.73008871217253	0.1190965092402464	-0.4012219959266802	0.6115702479338843
3033.233642578125	-0.02461592330216454	-9.614625815201032	-1.512802556594516	0.3549424202435261	1.126445052157665	0.7376420336184115	0.1273100616016427	-0.3991853360488798	0.628099173553719
3037.139892578125	-0.12870798341694	-9.511615581304811	-1.709733886102	0.7172234942160068	1.866392198424221	0.7414186943413522	0.1273100616016427	-0.3991853360488798	0.628099173553719
3041.046142578125	-0.02765604582186224	-9.832275454815736	-1.744798472604592	0.7208370422092596	2.230876178853694	0.3800638950160794	0.1273100616016427	-0.3991853360488798	0.628099173553719
3044.952392578125	0.004750635034671586	-9.625130628005456	-1.491687834489053	0.7208370422092596	2.230876178853694	0.3800638950160794	0.1190965092402464	-0.4195519348268839	0.6177685950413223
3048.858642578125	-0.07533746937204713	-9.534359115096963	-1.488751020931763	0.7244134042883625	2.967182114866518	0.02242768710578156	0.1190965092402464	-0.4195519348268839	0.6177685950413223
3052.764892578125	-0.3263482805366704	-9.60218594404019	-1.455057315444322	0.3657086923949848	2.963540904612787	-0.338985181527457	0.1190965092402464	-0.4195519348268839	0.6177685950413223
3056.671142578125	-0.4222844529474993	-9.676538639786356	-1.923851568416689	0.7207626703809601	2.974520090020397	0.3875010778460294	0.1190965092402464	-0.4195519348268839	0.6177685950413223
3060.577392578125	-0.4285784134740123	-9.688573687023263	-1.714052884199591	1.452775029797326	2.952450609912343	-0.3499667478484849	0.135523613963039	-0.4338085539714867	0.6301652892561984
3064.483642578125	-0.5744001968390613	-9.74905606364463	-1.51999343869796	1.449161481804073	2.58796662948287	0.01138805147678797	0.135523613963039	-0.4338085539714867	0.6301652892561984
3068.389892578125	-0.2231221230228361	-9.61880948644405	-1.895929232572133	0.7354399778388695	2.201524278238178	-1.080229667944912	0.135523613963039	-0.4338085539714867	0.6301652892561984
3072.296142578125	-0.4540097678229648	-9.776796491596091	-1.866341072567843	1.44554793381082	2.223482649053398	0.3727428508020608	0.1396303901437372	-0.4134419551934826	0.6446280991735538
3076.202392578125	-0.1896650029454884	-9.691325017619041	-1.677833235150388	1.086768850089143	2.96348534996637	0.01876716499877227	0.1396303901437372	-0.4134419551934826	0.6446280991735538
3080.108642578125	-0.509377851347078	-9.684698838602221	-2.020738288430737	0.3658574360515838	1.47625308227938	-0.3538595471873571	0.1396303901437372	-0.4134419551934826	0.6446280991735538
3084.014892578125	-0.7731319413173551	-9.813312661025945	-1.895601956088171	0.01080345806560844	1.46527389687177	-1.080345806560844	0.1396303901437372	-0.4134419551934826	0.6446280991735538
3087.921142578125	-0.5938727533257995	-9.742018856908674	-2.204241555806687	0.3877618394959986	1.432225231356106	-2.544299891628844	0.1396303901437372	-0.4134419551934826	0.6446280991735538
3091.827392578125	-0.7124059868726643	-9.830344602422162	-2.253133770911193	0.369545355873136	1.097093151542149	-0.7226515293425799	0.1396303901437372	-0.4134419551934826	0.6446280991735538
3095.733642578125	-0.5187269181359278	-9.904388370197285	-2.04243606213574	0.3696569136155852	-0.01837271520790595	-0.733807303587505	0.1396303901437372	-0.4134419551934826	0.6446280991735538
3099.639892578125	-0.6308699797561752	-9.693981293454497	-1.971000674794164	0.007264281900655208	0.3571460052755938	-0.7264281900655207	0.1457905544147844	-0.4195519348268839	0.6301652892561984
3103.546142578125	-0.5720374972102639	-9.92162545743132	-2.265416759657876	0.7246737056874109	0.3644284257830558	-0.003602452799043552	0.1457905544147844	-0.4195519348268839	0.6301652892561984
3107.452392578125	-0.417688387047422	-9.795052578478666	-2.077053765085934	-0.7136099462227541	-1.501908217994748	-1.102773493666625	0.1457905544147844	-0.4195519348268839	0.6301652892561984
3111.358642578125	-0.5281051637920225	-9.894087336292754	-2.063161206932584	-0.003501990250803478	-1.479949847179528	0.3501990250803478	0.1273100616016427	-0.405295315682281	0.615702479338843
3115.264892578125	-0.435127886243426	-9.740691349885374	-2.495737125219137	-0.724487776116662	-2.223538203699815	-0.01499050427583152	0.1273100616016427	-0.405295315682281	0.615702479338843
3119.171142578125	-0.5541816076924958	-9.762518719820575	-2.193946410250142	-0.3730101602097897	-2.94886495430503	1.069131963007953	0.1273100616016427	-0.405295315682281	0.615702479338843
3123.077392578125	-0.342091462342306	-9.837276239490679	-1.930284588589801	-0.728064138195765	-2.959844139712639	0.3426457036344663	0.1273100616016427	-0.405295315682281	0.615702479338843
3126.983642578125	-0.3680661745164392	-9.282341396426981	-2.397794182785362	-0.7281013241099148	-2.588022184129287	0.3463642950494413	0.135523613963039	-0.4276985743380855	0.6260330578512396
3130.889892578125	-0.1238461532395246	-9.526710256214114	-2.20512822534918	-0.369396612216537	-2.584380973875557	0.7077771636826798	0.135523613963039	-0.4276985743380855	0.6260330578512396
3134.796142578125	-0.07628459963045361	-9.744665353880514	-2.457180012318214	-0.7281385100240645	-2.216200228545936	0.3500828864644163	0.135523613963039	-0.4276985743380855	0.6260330578512396
3138.702392578125	-0.2194124637925746	-9.777610029959598	-2.019584540247516	-0.3694709840448365	-1.840737062708853	0.7152143465126299	0.1375770020533881	-0.4175152749490835	0.6115702479338843
3142.608642578125	-0.0355516895747062	-9.688161712962488	-2.148277014176461	-0.728212881852364	-1.472556317379232	0.3575200692943664	0.1375770020533881	-0.4175152749490835	0.6115702479338843
3146.514892578125	-0.21388425137673	-9.675822574611809	-2.203858287442336	-1.086843221917442	-2.219841438799667	-0.01132998216882224	0.1375770020533881	-0.4175152749490835	0.6115702479338843
3150.421142578125	-0.2602447397205611	-9.627479132509649	-1.991842009314631	-1.090605513567294	-1.097037596895733	0.3648991828163506	0.1129363449691992	-0.4093686354378818	0.6177685950413223
3154.327392578125	-0.02889181028058242	-9.569341685324055	-2.03693965731392	-1.090642699481444	-0.7252156413123806	0.3686177742313257	0.1129363449691992	-0.4093686354378818	0.6177685950413223
3158.233642578125	-0.2627288865265398	-9.794949006643582	-2.242370449115342	-1.086954779659892	-1.104375572049612	-0.000174207923897194	0.1129363449691992	-0.4093686354378818	0.6177685950413223
3162.139892578125	-0.003446260807024385	-9.701114290994273	-1.885124639765854	-1.086991965574041	-0.7325536164662596	0.003544383491077821	0.1129363449691992	-0.4093686354378818	0.6177685950413223
3166.046142578125	0.163535721636761	-9.580456783337448	-2.117857387892032	-1.097944167296249	-0.7105396910046227	1.098764555711821	0.1334702258726899	-0.4317718940936863	0.6322314049586777
3169.952392578125	-0.1673234540523532	-9.717434583476926	-2.089218198254893	-0.7246737056874109	-0.3644284257830558	0.003602452799043552	0.1334702258726899	-0.4317718940936863	0.6322314049586777
3173.858642578125	-0.1908771088631993	-9.795050265199102	-2.304096371226692	-1.087066337402341	0.01109029470044396	0.01098156632102785	0.1334702258726899	-0.4317718940936863	0.6322314049586777
3177.764892578125	-0.04157594273371289	-9.880109554817235	-1.947468575542904	-1.083452789409088	0.3755742751299168	-0.350373233004245	0.1273100616016427	-0.4093686354378818	0.6239669421487604
3181.671142578125	-0.09234165141347955	-9.559857133957026	-1.921944952884016	-0.369694099529735	0.3901946707912577	0.73752589500248	0.1273100616016427	-0.4093686354378818	0.6239669421487604
3185.577392578125	-0.252909803389638	-9.748440836429316	-1.903006553678732	-0.7247480775157102	0.3792154853836477	0.01103963562899358	0.1273100616016427	-0.4093686354378818	0.6239669421487604
3189.483642578125	-0.02059633718468095	-9.909992815689716	-1.980122093843969	-0.003725105735701979	0.7509818863205826	0.3725105735701979	0.1273100616016427	-0.4093686354378818	0.6239669421487604
3193.389892578125	-0.2343181332464802	-9.659096196416362	-1.856062225117327	-0.3660433656223325	0.3828566956373787	0.3724525042622321	0.1273100616016427	-0.4093686354378818	0.6239669421487604
3197.296142578125	-0.2451395499041435	-9.949261787802341	-1.828681669861884	-0.007375839643104458	0.7583198614744615	0.7375839643104457	0.1273100616016427	-0.4093686354378818	0.6239669421487604
3201.202392578125	-0.101450189702068	-9.729468894670335	-1.9516603432644	-0.7284359973372625	0.7583754161208786	0.3798316177842165	0.1273100616016427	-0.4093686354378818	0.6239669421487604
3205.108642578125	-0.07608429064990804	-9.737933920643473	-2.130523645003066	-7.437182829950031e-05	0.7436439111667036	0.007437182829950031	0.135523613963039	-0.405295315682281	0.6260330578512396
3209.014892578125	-0.1293096989766104	-9.741810136002439	-1.689676700779654	-0.7174466097009052	0.3645395350758898	-0.7191071458515021	0.135523613963039	-0.405295315682281	0.6260330578512396
3212.921142578125	-0.2452744035878966	-9.85930539049342	-1.824186547070113	-0.00379947756400148	1.494625797487286	0.3799477564001479	0.135523613963039	-0.405295315682281	0.6260330578512396
3216.827392578125	-0.2162225038464845	-9.659911942910364	-1.792583205117185	0.003427618422503978	2.223593758346232	-0.3427618422503977	0.1334702258726899	-0.4195519348268839	0.6487603305785125
3220.733642578125	-0.4259057869579927	-9.997709537783084	-1.803140434733577	0.003353246594204478	2.967237669512935	-0.3353246594204478	0.1334702258726899	-0.4195519348268839	0.6487603305785125
3224.639892578125	-0.4088211658771286	-9.885518843633605	-2.039294470762381	-0.7176697251858037	2.595471268576001	-0.6967955973616521	0.1334702258726899	-0.4195519348268839	0.6487603305785125
3228.546142578125	-0.4281131288341623	-9.788423244989712	-1.72956237219459	-0.007487397385553709	1.873785728224517	0.7487397385553708	0.1334702258726899	-0.4195519348268839	0.6487603305785125
3232.452392578125	-0.4799458377134495	-9.598515820860683	-1.668472076218356	0.7207998562951099	2.602698134437046	0.3837824864310544	0.1273100616016427	-0.4175152749490835	0.6342975206611571
3236.358642578125	-0.637959655878635	-9.596273622067425	-1.734678137378839	0.724487776116662	2.223538203699815	0.01499050427583152	0.1273100616016427	-0.4175152749490835	0.6342975206611571
3240.264892578125	-0.6545387727999331	-9.764967536538647	-1.848707573335562	-0.3551655357284246	1.104486681342445	-0.7153304851285613	0.1273100616016427	-0.4175152749490835	0.6342975206611571
3244.171142578125	-0.4742985439745246	-9.786689862551762	-1.856715200849184	0.003650733907402479	-0.007337975153878983	-0.3650733907402479	0.1437371663244353	-0.4378818737270875	0.621900826446281
3248.077392578125	-0.7995640519510017	-9.725192376797491	-1.681198268299947	0	0	0	0.1437371663244353	-0.4378818737270875	0.621900826446281
3251.983642578125	-0.5108801687011699	-9.735184587880045	-1.970661043294341	0.3587790837216773	-0.7400027009129726	0.3539756858032885	0.1437371663244353	-0.4378818737270875	0.621900826446281
3255.889892578125	-0.3092991472673202	-9.606673390949767	-2.023361757755993	-0.003501990250803478	-1.479949847179528	0.3501990250803478	0.1437371663244353	-0.4378818737270875	0.621900826446281
3259.796142578125	-0.4623659645074568	-9.606164995190744	-1.921134516418107	-0.3695081699589862	-1.468915107125501	0.7189329379276049	0.1437371663244353	-0.4378818737270875	0.621900826446281
3263.702392578125	-0.5104598352892377	-9.805048680076855	-1.984672157025417	-0.003539176164953228	-1.108127891596177	0.3539176164953228	0.1437371663244353	-0.4378818737270875	0.621900826446281
3267.608642578125	-0.4368060654190204	-9.954567294485482	-2.106464486032654	-0.3585931541509285	-1.119107077003786	-0.3725686428781636	0.1437371663244353	-0.4378818737270875	0.621900826446281
3271.514892578125	-0.1598686477803163	-9.918357529448969	-2.004378407322791	-0.362243888058331	-1.111769101849907	-0.007495252137915762	0.1273100616016427	-0.4093686354378818	0.6177685950413223
3275.421142578125	-0.4694461772135128	-9.65512093063237	-2.018460759549573	-0.3660433656223325	0.3828566956373787	0.3724525042622321	0.1273100616016427	-0.4093686354378818	0.6177685950413223
3279.327392578125	-0.1730464551225079	-9.68928502048961	-1.898451495916404	-0.724636519773261	-0.7362503813664076	-0.0001161386159314638	0.1273100616016427	-0.4093686354378818	0.6177685950413223
3283.233642578125	-0.502702988310315	-9.575873966220335	-1.90990038965617	-0.3696197277014355	-0.3534492403754458	0.73008871217253	0.1457905544147844	-0.4215885947046843	0.6115702479338843
3287.139892578125	-0.4265248521144033	-9.514576368850324	-2.115838262853225	-0.3695825417872857	-0.7252711959587976	0.726370120757555	0.1457905544147844	-0.4215885947046843	0.6115702479338843
3291.046142578125	-0.2691569121187722	-9.50702740158507	-2.02810292937426	-0.003539176164953228	-1.108127891596177	0.3539176164953228	0.1457905544147844	-0.4215885947046843	0.6115702479338843
3294.952392578125	-0.3021448044661016	-9.817693486777372	-1.928506517796612	-0.7282500677665138	-1.10073436179588	0.3612386607093414	0.1457905544147844	-0.4215885947046843	0.6115702479338843
3298.858642578125	-0.2121366738141749	-9.648590857866584	-1.928777539527507	-1.079616125930937	-1.490873477940721	-0.7340395808193679	0.1273100616016427	-0.4093686354378818	0.6177685950413223
3302.764892578125	-0.2900474038300024	-9.747115327238367	-1.998419872333255	-1.086880407831592	-1.848019483216315	-0.007611390753847227	0.1273100616016427	-0.4093686354378818	0.6177685950413223
3306.671142578125	-0.1078190689417771	-9.691528165624508	-1.739364368607429	-0.7245621479449615	-1.479894292533111	-0.007553321445881495	0.1273100616016427	-0.4093686354378818	0.6177685950413223
3310.577392578125	-0.2865924682246079	-9.735998231392625	-2.11358439251307	-0.3621323303158818	-2.227234968599963	-0.01865102638284081	0.1314168377823409	-0.4195519348268839	0.6322314049586777
3314.483642578125	-0.3597360022270573	-9.716314640720082	-2.008799925764756	-0.3622067021441813	-1.483591057433259	-0.01121384355289078	0.1314168377823409	-0.4195519348268839	0.6322314049586777
3318.389892578125	-0.04219106479995522	-9.680308444285318	-1.92696450666816	-1.441934385817567	-1.858998668623925	-0.7340976501273336	0.1314168377823409	-0.4195519348268839	0.6322314049586777
3322.296142578125	-0.06751753295043302	-9.838497335653974	-2.082748901652233	-1.079578940016787	-1.862695433524073	-0.7377581722343429	0.1314168377823409	-0.4195519348268839	0.6322314049586777
3326.202392578125	-0.2641507648412	-9.758742080631988	-1.861641171960002	0.7248596352581596	-1.494681352133703	-0.02219540987391863	0.1314168377823409	-0.4195519348268839	0.6322314049586777
3330.108642578125	-0.0904489681327339	-9.559245166362919	-1.985034395575537	-0.724636519773261	-0.7362503813664076	-0.0001161386159314638	0.1314168377823409	-0.4195519348268839	0.6322314049586777
3334.014892578125	-0.2762473768592656	-9.619319985184497	-1.791754104691147	-0.7209114140375591	-1.48723226768699	-0.3726267121861294	0.1314168377823409	-0.4195519348268839	0.6322314049586777
3337.921142578125	-0.03473941300005286	-9.387899076870017	-2.175352899998239	-0.362243888058331	-1.111769101849907	-0.007495252137915762	0.1273100616016427	-0.4276985743380855	0.6260330578512396
3341.827392578125	-0.01323064475044578	-9.840944575135978	-1.892311841651808	-0.358667525979228	-0.3754631658370828	-0.3651314600482136	0.1273100616016427	-0.4276985743380855	0.6260330578512396
3345.733642578125	-0.1801116840859247	-9.748236111187783	-1.996277197135844	-0.7209857858658586	-0.7435883565202867	-0.3651895293561793	0.1273100616016427	-0.4276985743380855	0.6260330578512396
3349.639892578125	-0.04880599286616128	-9.829113937693393	-2.039800237794624	-1.442120315388316	0.0001111092928339878	-0.7155046930524586	0.1273100616016427	-0.4378818737270875	0.628099173553719
3353.546142578125	-0.1720259833869726	-9.948955067961787	-1.93246722043425	-0.3660061797081828	0.01103474005402697	0.3687339128472572	0.1273100616016427	-0.4378818737270875	0.628099173553719
3357.452392578125	-0.1430490023587566	-9.699585844095997	-1.898366588041449	0.7282500677665138	1.10073436179588	-0.3612386607093414	0.1273100616016427	-0.4378818737270875	0.628099173553719
3361.358642578125	-0.201451688076332	-9.68846937914468	-1.951610397455603	-0.3588534555499768	1.483646612079676	-0.3465385029733385	0.1273100616016427	-0.4378818737270875	0.628099173553719
3365.264892578125	-0.3549585541792418	-9.534769932517955	-2.168048194025272	-0.3552027216425743	1.476308636925797	-0.7116118937135864	0.1232032854209446	-0.4236252545824847	0.628099173553719
3369.171142578125	-0.4305815032794681	-9.755888019393696	-1.980616557351063	0.365820250137434	1.848075037862732	-0.3501409557723821	0.1232032854209446	-0.4236252545824847	0.628099173553719
3373.077392578125	-0.5067809321622883	-10.15385916806581	-2.107302261257062	0.007115538244056207	1.844433827609001	-0.7115538244056206	0.1232032854209446	-0.4236252545824847	0.628099173553719
3376.983642578125	-0.396689066047549	-9.90826279802204	-1.777031131748369	-0.0001115577424492505	1.115465866750055	0.01115577424492505	0.1273100616016427	-0.4338085539714867	0.6012396694214877
3380.889892578125	-0.3898541135499562	-9.836052830047819	-2.004862881668127	-3.718591414975016e-05	0.3718219555833518	0.003718591414975016	0.1273100616016427	-0.4338085539714867	0.6012396694214877
3384.796142578125	-0.4608794195140379	-9.755684345642873	-1.97068601619874	0	0	0	0.1273100616016427	-0.4338085539714867	0.6012396694214877
3388.702392578125	-0.4284940313444124	-9.885213070134693	-2.050198955186255	0.3587418978075275	-0.3681807453296208	0.3576942772182636	0.1273100616016427	-0.4338085539714867	0.6012396694214877
3392.608642578125	-0.3549743265399147	-9.734775032247908	-2.167522448669509	-0.365968993794033	-0.3607872155293249	0.3650153214322821	0.1273100616016427	-0.4338085539714867	0.6012396694214877
3396.514892578125	-0.3285674516833447	-9.876236809377616	-2.047751610555179	0.3624298176290798	-0.7473406760668516	-0.01109770493695932	0.1273100616016427	-0.4338085539714867	0.6012396694214877
3400.421142578125	-0.2545067549077672	-9.665623850753512	-2.183108169741094	3.718591414975016e-05	-0.3718219555833518	-0.003718591414975016	0.1273100616016427	-0.4338085539714867	0.6012396694214877
3404.327392578125	-0.4602469478510554	-9.335479846471841	-1.991768404964824	0.3550539779859753	0.01097918540760998	0.7264862593734864	0.1211498973305955	-0.415478615071283	0.621900826446281
3408.233642578125	-0.09608758707328866	-9.727734986487031	-2.130413764223712	3.718591414975016e-05	-0.3718219555833518	-0.003718591414975016	0.1211498973305955	-0.415478615071283	0.621900826446281
3412.139892578125	-0.2656522935772582	-9.599227574923313	-1.811590214091395	-0.7209857858658586	-0.7435883565202867	-0.3651895293561793	0.1211498973305955	-0.415478615071283	0.621900826446281
3416.046142578125	-0.3053891790565132	-9.758742501228273	-1.820360698116228	-0.3731960897805385	-1.08975517638827	1.087724920082828	0.1396303901437372	-0.4236252545824847	0.6136363636363636
3419.952392578125	-0.2725724168224845	-9.684798414772605	-2.247586105917185	1.083452789409088	-0.3755742751299168	0.350373233004245	0.1396303901437372	-0.4236252545824847	0.6136363636363636
3423.858642578125	0.02038735340576526	-9.740074755732136	-2.012911780192176	-0.3623554458007803	0.003696764900147988	0.003660522107009284	0.1396303901437372	-0.4236252545824847	0.6136363636363636
3427.764892578125	-0.1973658580440223	-9.677148294100899	-2.087804731865925	-0.3623182598866305	-0.3681251906832038	-5.806930796573191e-05	0.1396303901437372	-0.4236252545824847	0.6136363636363636
3431.671142578125	-0.002033845908767937	-9.590657610177169	-1.932205136374402	-0.003762291649851729	1.122803841903934	0.3762291649851729	0.1211498973305955	-0.4195519348268839	0.621900826446281
3435.577392578125	-0.142859734030682	-9.966191314003254	-2.238008865643934	-0.3624670035432295	1.119162631650203	0.01481629635193433	0.1211498973305955	-0.4195519348268839	0.621900826446281
3439.483642578125	0.007313643644014655	-9.790968588555103	-1.910454788133822	-0.0001115577424492505	1.115465866750055	0.01115577424492505	0.1211498973305955	-0.4195519348268839	0.621900826446281
3443.389892578125	-0.02881689156738624	-9.619317461606789	-2.039436947753792	-0.00379947756400148	1.494625797487286	0.3799477564001479	0.1540041067761807	-0.415478615071283	0.609504132231405
3447.296142578125	-0.2641405128067626	-9.695405432474187	-2.195316239774582	-0.0002603013990482511	2.602753689083463	0.02603013990482511	0.1540041067761807	-0.415478615071283	0.609504132231405
3451.202392578125	-0.3877808367395061	-9.745382470545772	-2.073972108683131	-0.00379947756400148	1.494625797487286	0.3799477564001479	0.1540041067761807	-0.415478615071283	0.609504132231405
3455.108642578125	-0.4022062378109226	-9.736713350225532	-1.926458739635916	-0.7174094237867555	-0.007282420507461989	-0.7228257372664771	0.1334702258726899	-0.4399185336048879	0.621900826446281
3459.014892578125	-0.3707514189209971	-9.666542958784458	-1.974952702633432	-0.7283988114231127	0.3865534605375267	0.3761130263692414	0.1334702258726899	-0.4399185336048879	0.621900826446281
3462.921142578125	-0.4429052372912233	-10.09653936005749	-1.903158756959226	-0.7209857858658586	-0.7435883565202867	-0.3651895293561793	0.1334702258726899	-0.4399185336048879	0.621900826446281
3466.827392578125	0.005181220481041214	-9.631658072044464	-1.839374016034708	-0.7209857858658586	-0.7435883565202867	-0.3651895293561793	0.1334702258726899	-0.4399185336048879	0.621900826446281
3470.733642578125	-0.3674715565190715	-9.608815803274501	-1.750948116030948	-0.3623182598866305	-0.3681251906832038	-5.806930796573191e-05	0.1416837782340863	-0.4236252545824847	0.640495867768595
3474.639892578125	-0.4381270006253741	-9.704994396868869	-2.06243331248753	-0.3659318078798833	-0.7326091711126765	0.3612967300173071	0.1416837782340863	-0.4236252545824847	0.640495867768595
3478.546142578125	-0.3994579039636731	-9.885824722281587	-2.018069867877563	7.437182829950031e-05	-0.7436439111667036	-0.007437182829950031	0.1416837782340863	-0.4236252545824847	0.640495867768595
3482.452392578125	-0.249349981585769	-9.8072898273794	-2.021667280474369	0.3587418978075275	-0.3681807453296208	0.3576942772182636	0.1190965092402464	-0.4256619144602851	0.6260330578512396
3486.358642578125	-0.1808174972260361	-9.698464324103087	-1.972750092465464	-1.44949615503142	0.7584309707672955	0.02207927125798716	0.1190965092402464	-0.4256619144602851	0.6260330578512396
3490.264892578125	-0.4496983930330329	-9.705402480414012	-2.010053565565572	0.003650733907402479	-0.007337975153878983	-0.3650733907402479	0.1190965092402464	-0.4256619144602851	0.6260330578512396
3494.171142578125	-0.1915781902951088	-9.818610281528752	-1.947393656829708	-0.3660433656223325	0.3828566956373787	0.3724525042622321	0.1190965092402464	-0.4256619144602851	0.6260330578512396
3498.077392578125	-0.3647382064144614	-9.74793202007401	-1.842059786184621	-3.718591414975016e-05	0.3718219555833518	0.003718591414975016	0.1375770020533881	-0.4175152749490835	0.615702479338843
3501.983642578125	-0.3343803552093347	-9.788116314851019	-1.853988159688843	0.3622810739724808	0.7399471462665556	0.003776660722940747	0.1375770020533881	-0.4175152749490835	0.615702479338843
3505.889892578125	-0.4462237419767973	-9.777612343239165	-1.792541934106757	0.3623182598866305	0.3681251906832038	5.806930796573191e-05	0.1375770020533881	-0.4175152749490835	0.615702479338843
3509.796142578125	-0.4836917733732585	-9.766393673390686	-1.876940887558052	-0.3587047118933778	-0.003641210253730994	-0.3614128686332386	0.1190965092402464	-0.415478615071283	0.621900826446281
3513.702392578125	-0.2413533947246186	-9.738037597627628	-1.954886842512716	0.724636519773261	0.7362503813664076	0.0001161386159314638	0.1190965092402464	-0.415478615071283	0.621900826446281
3517.608642578125	-0.4731716088044473	-9.696325486846773	-1.894279706518427	-0.3624670035432295	1.119162631650203	0.01481629635193433	0.1190965092402464	-0.415478615071283	0.621900826446281
3521.514892578125	-0.2228374319126906	-9.808717436318437	-1.905418936243649	-3.718591414975016e-05	0.3718219555833518	0.003718591414975016	0.135523613963039	-0.415478615071283	0.6384297520661157
3525.421142578125	-0.3424668445263206	-9.797397613063511	-1.917771849122649	0.3585931541509285	1.119107077003786	0.3725686428781636	0.135523613963039	-0.415478615071283	0.6384297520661157
3529.327392578125	-0.4595119558436991	-9.61524219905613	-2.016268138543365	-0.0001487436565990006	1.487287822333407	0.01487436565990006	0.135523613963039	-0.415478615071283	0.6384297520661157
3533.233642578125	-0.3279673133597416	-10.06604276465298	-2.067756221341949	0.7245993338591113	1.108072336949759	0.003834730030906479	0.135523613963039	-0.415478615071283	0.6384297520661157
3537.139892578125	-0.3829686894982103	-9.657159876271088	-1.901043683392992	0.7209485999517089	1.115410312103638	0.3689081207711543	0.1416837782340863	-0.4276985743380855	0.6053719008264463
3541.046142578125	-0.4161647770064218	-9.407893277898744	-1.794507433119276	0.3549796061576758	0.7546230965743135	0.7339234422034364	0.1416837782340863	-0.4276985743380855	0.6053719008264463
3544.952392578125	-0.5310782537788605	-9.595048635388499	-1.964058207371318	0.3623554458007803	-0.003696764900147988	-0.003660522107009284	0.1416837782340863	-0.4276985743380855	0.6053719008264463
3548.858642578125	-0.2896112980573973	-9.616974319705225	-2.012956731420093	-3.718591414975016e-05	0.3718219555833518	0.003718591414975016	0.1581108829568789	-0.4317718940936863	0.609504132231405
3552.764892578125	-0.307392268861969	-9.826056833598704	-2.086924371267701	0.3550911639001251	-0.3608427701757418	0.7227676679585114	0.1581108829568789	-0.4317718940936863	0.609504132231405
3556.671142578125	-0.3174156040695845	-9.595964378649166	-2.08614653101385	0.36239263171493	-0.3755187204834998	-0.007379113521984299	0.1581108829568789	-0.4317718940936863	0.609504132231405
3560.577392578125	-0.3301691349096756	-9.720088020287461	-1.661028836344145	-0.362243888058331	-1.111769101849907	-0.007495252137915762	0.1581108829568789	-0.4317718940936863	0.609504132231405
3564.483642578125	-0.3662444668587215	-9.515085710950988	-2.125184438042619	7.437182829950031e-05	-0.7436439111667036	-0.007437182829950031	0.1581108829568789	-0.4317718940936863	0.609504132231405
3568.389892578125	-0.5385945722575217	-9.774145578363264	-2.046847591415945	-0.7209857858658586	-0.7435883565202867	-0.3651895293561793	0.1581108829568789	-0.4317718940936863	0.609504132231405
3572.296142578125	-0.1450670759068516	-9.756905021209883	-2.164430803104947	7.437182829950031e-05	-0.7436439111667036	-0.007437182829950031	0.1581108829568789	-0.4317718940936863	0.609504132231405
3576.202392578125	-0.2132044626317288	-9.988936109584261	-1.893184578942374	-0.003613547993252729	-0.3644839804294728	0.3613547993252729	0.1498973305954825	-0.4317718940936863	0.6322314049586777
3580.108642578125	-0.3080231632888842	-9.826260822796739	-2.065894557037193	-0.728361625508963	0.01473150495417496	0.3723944349542664	0.1498973305954825	-0.4317718940936863	0.6322314049586777
3584.014892578125	-0.2295115063314199	-9.707542053713825	-2.016283122286004	-0.3585931541509285	-1.119107077003786	-0.3725686428781636	0.1498973305954825	-0.4317718940936863	0.6322314049586777
3587.921142578125	-0.3025501541353947	-9.757824549837112	-1.914994862153511	-0.007227095986505457	-0.7289679608589457	0.7227095986505457	0.1457905544147844	-0.4134419551934826	0.6301652892561984
3591.827392578125	-0.3322968263644472	-9.634109307191171	-2.256772454518426	-0.7247108916015605	0.007393529800295976	0.007321044214018567	0.1457905544147844	-0.4134419551934826	0.6301652892561984
3595.733642578125	-0.0573727505656363	-9.728550522682889	-2.087574981145457	-0.728361625508963	0.01473150495417496	0.3723944349542664	0.1457905544147844	-0.4134419551934826	0.6301652892561984
3599.639892578125	-0.3584891971158661	-9.705911507067464	-2.050360096137795	-1.090754257223893	0.3902502254376747	0.3797735484762507	0.1457905544147844	-0.4134419551934826	0.6301652892561984
3603.546142578125	-0.1955788495797849	-9.816570494697462	-2.147371680673837	-1.079727683673386	-0.3754076111906658	-0.7228838065744428	0.1232032854209446	-0.4256619144602851	0.6425619834710744
3607.452392578125	-0.181493342880869	-9.668682847531482	-1.950221903971033	-0.3623182598866305	-0.3681251906832038	-5.806930796573191e-05	0.1232032854209446	-0.4256619144602851	0.6425619834710744
3611.358642578125	-0.2087117056940589	-9.617483451507747	-2.042943143531374	-0.3660061797081828	0.01103474005402697	0.3687339128472572	0.1232032854209446	-0.4256619144602851	0.6425619834710744
3615.264892578125	-0.2993806982581794	-9.766799759103479	-2.020643391394021	-0.3587047118933778	-0.003641210253730994	-0.3614128686332386	0.1314168377823409	-0.4256619144602851	0.6260330578512396
3619.171142578125	-0.3575893839394783	-10.09562056747376	-2.080353868684057	-0.7247480775157102	0.3792154853836477	0.01103963562899358	0.1314168377823409	-0.4256619144602851	0.6260330578512396
3623.077392578125	-0.135382846453703	-9.620440453686697	-1.820571784876567	-1.08717789514479	1.126556161450499	0.0221373405659529	0.1314168377823409	-0.4256619144602851	0.6260330578512396
3626.983642578125	-0.1829357252644039	-9.759149217835491	-1.902142491186536	-0.3625041894573793	1.490984587233555	0.01853488776690934	0.1314168377823409	-0.4256619144602851	0.6260330578512396
3630.889892578125	-0.4482709943921372	-9.604940954853456	-2.057633520262094	-0.003762291649851729	1.122803841903934	0.3762291649851729	0.1314168377823409	-0.4256619144602851	0.6260330578512396
3634.796142578125	-0.3506889761450931	-9.92672276895358	-1.977034128496897	-0.003762291649851729	1.122803841903934	0.3762291649851729	0.1314168377823409	-0.4256619144602851	0.6260330578512396
3638.702392578125	-0.4912372707191645	-9.715500050865863	-1.958757642694519	-0.3624670035432295	1.119162631650203	0.01481629635193433	0.1314168377823409	-0.4256619144602851	0.6260330578512396
3642.608642578125	-0.345064552329144	-9.538237538586424	-1.831181589028536	-0.7247480775157102	0.3792154853836477	0.01103963562899358	0.1252566735112936	-0.4195519348268839	0.621900826446281
3646.514892578125	-0.230472831714432	-9.697852882254333	-1.984238942852268	-0.3587047118933778	-0.003641210253730994	-0.3614128686332386	0.1252566735112936	-0.4195519348268839	0.621900826446281
3650.421142578125	-0.3200756126970658	-9.926824448105384	-1.997479576764474	-0.003687919821552229	0.3791599307372308	0.3687919821552229	0.1252566735112936	-0.4195519348268839	0.621900826446281
3654.327392578125	-0.3689943779420382	-9.785974848867927	-2.033520735265395	-0.003725105735701979	0.7509818863205826	0.3725105735701979	0.1437371663244353	-0.4134419551934826	0.628099173553719
3658.233642578125	-0.1940710118994576	-9.629416293847491	-1.864299603351416	0.358667525979228	0.3754631658370828	0.3651314600482136	0.1437371663244353	-0.4134419551934826	0.628099173553719
3662.139892578125	-0.2912035178673245	-9.607489137443768	-1.959882737755851	-0.7211345295224576	0.7436994658131205	-0.3503151636962792	0.1437371663244353	-0.4134419551934826	0.628099173553719
3666.046142578125	-0.3499666020262752	-9.566489201321827	-2.001113265790827	-0.728361625508963	0.01473150495417496	0.3723944349542664	0.1437371663244353	-0.4134419551934826	0.628099173553719
3669.952392578125	-0.3734406064157232	-9.767412462741085	-1.885313119475895	-0.007375839643104458	0.7583198614744615	0.7375839643104457	0.1314168377823409	-0.4317718940936863	0.628099173553719
3673.858642578125	-0.2139244708964458	-9.719168912256517	-1.869184303451807	-0.3697684713580345	1.133838581957961	0.7449630778324301	0.1314168377823409	-0.4317718940936863	0.628099173553719
3677.764892578125	-0.1636082744958562	-9.739566675420328	-1.87972418347146	0.003613547993252729	0.3644839804294728	-0.3613547993252729	0.1314168377823409	-0.4317718940936863	0.628099173553719
3681.671142578125	-0.3486606505625607	-9.806066943681895	-2.044644981247977	-0.007375839643104458	0.7583198614744615	0.7375839643104457	0.1334702258726899	-0.4195519348268839	0.6198347107438017
3685.577392578125	-0.280413645931007	-9.717333745517692	-1.986211802299768	-0.3624298176290798	0.7473406760668516	0.01109770493695932	0.1334702258726899	-0.4195519348268839	0.6198347107438017
3689.483642578125	-0.1680087631235899	-9.540989500076627	-1.733041229213671	0.3585931541509285	1.119107077003786	0.3725686428781636	0.1334702258726899	-0.4195519348268839	0.6198347107438017
3693.389892578125	-0.3998474812722933	-9.625950685611375	-2.005083957590225	-0.3624298176290798	0.7473406760668516	0.01109770493695932	0.1334702258726899	-0.4195519348268839	0.6198347107438017
3697.296142578125	-0.3153833353968839	-9.758640611778326	-1.820555486770538	-0.003725105735701979	0.7509818863205826	0.3725105735701979	0.1334702258726899	-0.4195519348268839	0.6198347107438017
3701.202392578125	-0.2216505617720564	-9.758333681639632	-1.944981274264791	-0.7355887214954685	-0.7142364559047707	1.095104033604812	0.1334702258726899	-0.4195519348268839	0.6198347107438017
3705.108642578125	-0.3406041287308534	-9.77679533495631	-1.979862375638222	-0.7209857858658586	-0.7435883565202867	-0.3651895293561793	0.1334702258726899	-0.4195519348268839	0.6198347107438017
3709.014892578125	-0.2937720468029031	-9.578319628466271	-1.874265106569898	0.369694099529735	-0.3901946707912577	-0.73752589500248	0.1334702258726899	-0.4073319755600814	0.6466942148760331
3712.921142578125	-0.2482672090255757	-9.47693973091827	-2.057759699147478	-0.007264281900655208	-0.3571460052755938	0.7264281900655207	0.1334702258726899	-0.4073319755600814	0.6466942148760331
3716.827392578125	-0.4319040157218891	-9.926315631750077	-1.936532809270363	0	0	0	0.1334702258726899	-0.4073319755600814	0.6466942148760331
3720.733642578125	-0.4188594848273834	-9.645431233427519	-2.038017172420555	-3.718591414975016e-05	0.3718219555833518	0.003718591414975016	0.1211498973305955	-0.4236252545824847	0.621900826446281
3724.639892578125	-0.09459552175363417	-9.740585885367009	-1.846815941545528	0.3586303400650783	0.7472851214204346	0.3688500514631886	0.1211498973305955	-0.4236252545824847	0.621900826446281
3728.546142578125	-0.2040052332692713	-9.669295025423731	-1.866492224357625	0.3549796061576758	0.7546230965743135	0.7339234422034364	0.1211498973305955	-0.4236252545824847	0.621900826446281
3732.452392578125	-0.239280906532202	-9.857367493112079	-2.023969782259932	0.3549796061576758	0.7546230965743135	0.7339234422034364	0.1211498973305955	-0.4236252545824847	0.621900826446281
3736.358642578125	-0.230158173119008	-9.907751142641812	-1.994727562699734	0.7209114140375591	1.48723226768699	0.3726267121861294	0.1478439425051335	-0.4093686354378818	0.6363636363636364
3740.264892578125	-0.3081130657447196	-9.766289891257459	-2.062897808509346	-0.3587790837216773	0.7400027009129726	-0.3539756858032885	0.1478439425051335	-0.4093686354378818	0.6363636363636364
3744.171142578125	-0.2521740227642482	-9.818202934027106	-1.927532574525061	0.7209857858658586	0.7435883565202867	0.3651895293561793	0.1478439425051335	-0.4093686354378818	0.6363636363636364
3748.077392578125	-0.3962584806011794	-9.914790242061049	-2.124717313294023	-0.0001859295707487508	1.859109777916759	0.01859295707487508	0.135523613963039	-0.4012219959266802	0.640495867768595
3751.983642578125	-0.2193225613367392	-9.83758096149888	-2.022581288775363	-0.0001487436565990006	1.487287822333407	0.01487436565990006	0.135523613963039	-0.4012219959266802	0.640495867768595
3755.889892578125	-0.2065193475605284	-9.816774589044572	-2.116021747982387	0.003576362079102979	0.7363059360128246	-0.3576362079102978	0.135523613963039	-0.4012219959266802	0.640495867768595
3759.796142578125	-0.3953271227034458	-9.904489103007448	-2.15576257655181	-0.3623554458007803	0.003696764900147988	0.003660522107009284	0.135523613963039	-0.4012219959266802	0.640495867768595
3763.702392578125	-0.4095261903992064	-9.625746801562411	-2.015793653359789	-0.3696569136155852	0.01837271520790595	0.733807303587505	0.135523613963039	-0.4012219959266802	0.640495867768595
3767.608642578125	-0.5209192762694582	-9.705097232660458	-1.969357457684728	0.3660061797081828	-0.01103474005402697	-0.3687339128472572	0.135523613963039	-0.4012219959266802	0.640495867768595
3771.514892578125	-0.4817383665039223	-9.595762071836269	-1.94205444986926	-0.3585931541509285	-1.119107077003786	-0.3725686428781636	0.135523613963039	-0.4012219959266802	0.640495867768595
3775.421142578125	-0.5442182074554373	-9.952630553743925	-2.192726418152094	0.358816269635827	-1.111824656496325	0.3502570943883135	0.1437371663244353	-0.4256619144602851	0.621900826446281
3779.327392578125	-0.1859245876119148	-9.660115616661187	-1.802513746269508	-0.7245993338591113	-1.108072336949759	-0.003834730030906479	0.1437371663244353	-0.4256619144602851	0.621900826446281
3783.233642578125	-0.3633108077735657	-9.647470494513454	-1.889639740881144	0.0001487436565990006	-1.487287822333407	-0.01487436565990006	0.1437371663244353	-0.4256619144602851	0.621900826446281
3787.139892578125	-0.4545547028842128	-9.553639353932564	-2.181509903859575	-0.3658574360515838	-1.47625308227938	0.3538595471873571	0.1293634496919918	-0.4175152749490835	0.6239669421487604
3791.046142578125	-0.4156458663402839	-9.894392163450025	-2.145137788657201	-0.003501990250803478	-1.479949847179528	0.3501990250803478	0.1293634496919918	-0.4175152749490835	0.6239669421487604
3794.952392578125	-0.1425979128435122	-9.579439991819401	-1.913402905216261	-0.003539176164953228	-1.108127891596177	0.3539176164953228	0.1293634496919918	-0.4175152749490835	0.6239669421487604
3798.858642578125	-0.1600784201772656	-9.778425355857316	-1.997385994091148	0.003762291649851729	-1.122803841903934	-0.3762291649851729	0.1293634496919918	-0.4175152749490835	0.6239669421487604
3802.764892578125	-0.1999793382075186	-9.617993319353763	-2.000688726416049	-0.3768840096020907	-0.7105952456510396	1.456516902238051	0.1293634496919918	-0.4215885947046843	0.640495867768595
3806.671142578125	-0.2515328763028956	-9.754662296671269	-2.282237456570148	-0.007301467814804958	0.01467595030775797	0.7301467814804957	0.1293634496919918	-0.4215885947046843	0.640495867768595
3810.577392578125	0.01178983960297813	-9.829521285195037	-2.059661320099271	-0.3660061797081828	0.01103474005402697	0.3687339128472572	0.1293634496919918	-0.4215885947046843	0.640495867768595
3814.483642578125	-0.2246701802228793	-9.849310024938731	-1.844327325904026	-0.003650733907402479	0.007337975153878983	0.3650733907402479	0.1519507186858316	-0.4297352342158859	0.6177685950413223
3818.389892578125	-0.2809546379020868	-9.777508666255008	-1.968178736597108	-0.7137586898793531	-0.01462039566134097	-1.087899128006725	0.1519507186858316	-0.4297352342158859	0.6177685950413223
3822.296142578125	-0.2264769041379577	-9.626560865671273	-2.117436528734744	-7.437182829950031e-05	0.7436439111667036	0.007437182829950031	0.1519507186858316	-0.4297352342158859	0.6177685950413223
3826.202392578125	-0.2223264074268893	-9.728552205068027	-1.92245308577036	-0.3733820193512872	0.7693546015284886	1.106317877157703	0.135523613963039	-0.4317718940936863	0.6239669421487604
3830.108642578125	-0.08228834872058557	-9.809939899419657	-1.923721709313815	-0.7212460872649068	1.859165332563176	-0.3391593894513542	0.135523613963039	-0.4317718940936863	0.6239669421487604
3834.014892578125	-0.3050279919971042	-9.578625717412399	-1.832400266763194	-0.3587790837216773	0.7400027009129726	-0.3539756858032885	0.135523613963039	-0.4317718940936863	0.6239669421487604
3837.921142578125	-0.3014437230341921	-9.794133470447722	-2.285209232193596	-0.3660433656223325	0.3828566956373787	0.3724525042622321	0.135523613963039	-0.4317718940936863	0.6239669421487604
3841.827392578125	-0.161490835075522	-9.888882036674419	-1.9503054974826	-3.718591414975016e-05	0.3718219555833518	0.003718591414975016	0.1416837782340863	-0.4297352342158859	0.6342975206611571
3845.733642578125	0.006293171908479291	-9.531298541082927	-1.876439063615977	-7.437182829950031e-05	0.7436439111667036	0.007437182829950031	0.1416837782340863	-0.4297352342158859	0.6342975206611571
3849.639892578125	-0.4741179504448201	-9.696631470643826	-1.862734985172667	0.3622810739724808	0.7399471462665556	0.003776660722940747	0.1416837782340863	-0.4297352342158859	0.6342975206611571
3853.546142578125	-0.2010013871791212	-9.778323781854581	-1.966620427362627	-0.003762291649851729	1.122803841903934	0.3762291649851729	0.1314168377823409	-0.4093686354378818	0.6301652892561984
3857.452392578125	-0.03980312939408113	-9.799536345170752	-2.00656235353063	0.362243888058331	1.111769101849907	0.007495252137915762	0.1314168377823409	-0.4093686354378818	0.6301652892561984
3861.358642578125	-0.1563932081060471	-9.780567137287623	-1.786893063131765	0.369545355873136	1.097093151542149	-0.7226515293425799	0.1314168377823409	-0.4093686354378818	0.6301652892561984
3865.264892578125	-0.2786266374667696	-9.856755946114255	-2.045778751107679	-0.3587790837216773	0.7400027009129726	-0.3539756858032885	0.1314168377823409	-0.4093686354378818	0.6301652892561984
3869.171142578125	-0.4102619710245963	-9.55598470396462	-1.99126763251346	0.362243888058331	1.111769101849907	0.007495252137915762	0.1293634496919918	-0.4276985743380855	0.6260330578512396
3873.077392578125	-0.2470314445668555	-9.739873500409951	-1.76561851443815	-0.0001115577424492505	1.115465866750055	0.01115577424492505	0.1293634496919918	-0.4276985743380855	0.6260330578512396
3876.983642578125	-0.5308377252785991	-9.544970864506748	-1.972075824046699	0.003576362079102979	0.7363059360128246	-0.3576362079102978	0.1293634496919918	-0.4276985743380855	0.6260330578512396
3880.889892578125	-0.3849717793036661	-9.724474208641519	-2.167607356544465	-0.7138330617076526	0.7290235155053626	-1.080461945176775	0.1478439425051335	-0.4073319755600814	0.6115702479338843
3884.796142578125	-0.3199249866526398	-9.816775745684353	-2.002500444912007	-0.7211345295224576	0.7436994658131205	-0.3503151636962792	0.1478439425051335	-0.4073319755600814	0.6115702479338843
3888.702392578125	-0.2015266067895281	-9.638493602861946	-1.94911310701573	-0.7357374651520675	0.7730513664286365	1.109978399264712	0.1478439425051335	-0.4073319755600814	0.6115702479338843
3892.608642578125	-0.3358676888207874	-9.848597219385388	-1.804410372640422	0.3731960897805385	1.08975517638827	-1.087724920082828	0.1273100616016427	-0.4175152749490835	0.6301652892561984
3896.514892578125	-0.4845174564544838	-9.636660644253615	-1.849418118183876	0.003687919821552229	-0.3791599307372308	-0.3687919821552229	0.1273100616016427	-0.4175152749490835	0.6301652892561984
3900.421142578125	-0.4588313784806643	-9.718355479042081	-1.705620717311191	0.3623554458007803	-0.003696764900147988	-0.003660522107009284	0.1273100616016427	-0.4175152749490835	0.6301652892561984
3904.327392578125	-0.3837651937121908	-9.757417412633608	-1.874493542926977	-1.083341231666639	-0.7398915916201386	-0.36152900724917	0.1273100616016427	-0.4175152749490835	0.6301652892561984
3908.233642578125	-0.4052708074896633	-9.797704227754991	-1.824306417011227	-0.7245993338591113	-1.108072336949759	-0.003834730030906479	0.1232032854209446	-0.4297352342158859	0.6260330578512396
3912.139892578125	-0.30402723571241	-9.754968806213679	-2.199092142919669	-0.7282872536806635	-0.7289124062125286	0.3649572521243164	0.1232032854209446	-0.4297352342158859	0.6260330578512396
3916.046142578125	-0.1771173014121784	-9.710601260789936	-1.762756619594056	-1.079578940016787	-1.862695433524073	-0.7377581722343429	0.1232032854209446	-0.4297352342158859	0.6260330578512396
3919.952392578125	-0.4095963774042007	-9.649102828694025	-1.680120753193312	-0.7172234942160068	-1.866392198424221	-0.7414186943413522	0.135523613963039	-0.4358452138492871	0.6260330578512396
3923.858642578125	-0.2726268314668059	-9.508149342174267	-1.912438951106471	0.007450211471403958	-1.501963772641165	-0.7450211471403958	0.135523613963039	-0.4358452138492871	0.6260330578512396
3927.764892578125	-0.1154103061336345	-9.82064933231654	-1.819656462212184	-0.3622067021441813	-1.483591057433259	-0.01121384355289078	0.135523613963039	-0.4358452138492871	0.6260330578512396
3931.671142578125	-0.275466645005958	-9.719067548551926	-1.817778499801399	0.3624298176290798	-0.7473406760668516	-0.01109770493695932	0.135523613963039	-0.4358452138492871	0.6260330578512396
3935.577392578125	-0.3060650247113461	-9.72896102465667	-1.797832509621797	-0.3585931541509285	-1.119107077003786	-0.3725686428781636	0.135523613963039	-0.4358452138492871	0.6260330578512396
3939.483642578125	-0.09276277344344547	-9.699993296746715	-1.907907551885152	3.718591414975016e-05	-0.3718219555833518	-0.003718591414975016	0.135523613963039	-0.4358452138492871	0.6260330578512396
3943.389892578125	-0.424793046912521	-9.687349751835049	-1.840231769582634	-0.7136471321369039	-1.130086262411396	-1.09905490225165	0.135523613963039	-0.4358452138492871	0.6260330578512396
3947.296142578125	-0.2689266356529482	-9.52028627886112	-1.702445478235062	-0.3549052343293763	-1.498267007741017	-0.7413606250333865	0.1457905544147844	-0.415478615071283	0.6260330578512396
3951.202392578125	-0.4019806930533004	-9.676640424087234	-1.933976898223322	-0.007189910072355707	-1.100789916442297	0.7189910072355706	0.1457905544147844	-0.415478615071283	0.6260330578512396
3955.108642578125	-0.2218910902723178	-9.808411452521383	-1.93696365758941	-0.3513660581644231	-0.3901391161448408	-1.095278241528709	0.1457905544147844	-0.415478615071283	0.6260330578512396
3959.014892578125	-0.4241479573610002	-9.907141172880056	-1.861734754633328	-0.7209857858658586	-0.7435883565202867	-0.3651895293561793	0.1314168377823409	-0.4317718940936863	0.609504132231405
3962.921142578125	-0.1020810841289832	-9.729672883868371	-1.930630529033893	-0.7173722378726058	-0.3791043760908138	-0.7265443286814521	0.1314168377823409	-0.4317718940936863	0.609504132231405
3966.827392578125	-0.580134238561687	-9.994243403801613	-1.995525381277104	-0.358667525979228	-0.3754631658370828	-0.3651314600482136	0.1314168377823409	-0.4317718940936863	0.609504132231405
3970.733642578125	-0.4122902966071287	-9.676640529236304	-1.923656779762379	-0.3587047118933778	-0.003641210253730994	-0.3614128686332386	0.1314168377823409	-0.4317718940936863	0.609504132231405
3974.639892578125	-0.2617028944647689	-9.917950602543607	-1.943236851174371	3.718591414975016e-05	-0.3718219555833518	-0.003718591414975016	0.135523613963039	-0.4317718940936863	0.6198347107438017
3978.546142578125	-0.5724381151713549	-9.935088323905404	-1.918729494288171	-1.083266859838339	-1.483535502786842	-0.3689661900791201	0.135523613963039	-0.4317718940936863	0.6198347107438017
3982.452392578125	-0.3434936252061251	-9.88439627214998	-2.216879159795832	-0.3658946219657335	-1.104431126696028	0.3575781386023321	0.135523613963039	-0.4317718940936863	0.6198347107438017
3986.358642578125	-0.3190535637254632	-9.766493985604567	-2.031547875817895	-0.3549052343293763	-1.498267007741017	-0.7413606250333865	0.1478439425051335	-0.405295315682281	0.6198347107438017
3990.264892578125	-0.1390530747822823	-9.628293827512937	-2.031564173923924	-0.724487776116662	-2.223538203699815	-0.01499050427583152	0.1478439425051335	-0.405295315682281	0.6198347107438017
3994.171142578125	-0.3785532171278374	-9.865732206871334	-2.048226095738755	-1.090531141738995	-1.840681508062436	0.3574619999864007	0.1478439425051335	-0.405295315682281	0.6198347107438017
3998.077392578125	-0.2708705791058807	-9.837581487244236	-1.970980696470645	-0.3622067021441813	-1.483591057433259	-0.01121384355289078	0.1478439425051335	-0.405295315682281	0.6198347107438017
4001.983642578125	-0.2043703634188485	-9.56607975083876	-2.187654552705052	-0.7245249620308118	-1.851716248116463	-0.01127191286085651	0.1478439425051335	-0.405295315682281	0.6198347107438017
4005.889892578125	-0.4142586872191042	-9.837276975534177	-1.858043759363196	-0.724487776116662	-2.223538203699815	-0.01499050427583152	0.1478439425051335	-0.405295315682281	0.6198347107438017
4009.796142578125	-0.1817386030893323	-9.645428814998883	-2.275379897022257	-1.804178273875898	-2.970767770473832	-0.7415929022652494	0.1478439425051335	-0.405295315682281	0.6198347107438017
4013.702392578125	-0.1100477035048552	-9.818915424133236	-1.998409883171496	-0.003539176164953228	-1.108127891596177	0.3539176164953228	0.1252566735112936	-0.4175152749490835	0.6342975206611571
4017.608642578125	-0.05424272559010317	-9.570871814607466	-1.858575813663228	-0.3549796061576758	-0.7546230965743135	-0.7339234422034364	0.1252566735112936	-0.4175152749490835	0.6342975206611571
4021.514892578125	-0.2637004639439892	-9.848596483341888	-1.876651201867027	-0.3586303400650783	-0.7472851214204346	-0.3688500514631886	0.1252566735112936	-0.4175152749490835	0.6342975206611571
4025.421142578125	-0.2349040764454778	-9.689285651384038	-1.836530785150743	-0.358667525979228	-0.3754631658370828	-0.3651314600482136	0.1375770020533881	-0.4134419551934826	0.6260330578512396
4029.327392578125	-0.0905995941771599	-9.669293868783949	-1.980013527428004	-0.3587418978075275	0.3681807453296208	-0.3576942772182636	0.1375770020533881	-0.4134419551934826	0.6260330578512396
4033.233642578125	-0.3005376009135352	-9.837173824295379	-1.982079969548829	0.3659318078798833	0.7326091711126765	-0.3612967300173071	0.1375770020533881	-0.4134419551934826	0.6260330578512396
4037.139892578125	-0.166227274985588	-9.817080152245339	-2.1257575004804	-0.3551283498142748	0.7326647257590937	-0.7190490765435364	0.1375770020533881	-0.4134419551934826	0.6260330578512396
4041.046142578125	-0.1239928361937824	-9.92009101703599	-1.866905460207254	-0.3551655357284246	1.104486681342445	-0.7153304851285613	0.1108829568788501	-0.4093686354378818	0.6446280991735538
4044.952392578125	-0.3686434429170666	-9.669194713209853	-1.711885236097781	-0.0001487436565990006	1.487287822333407	0.01487436565990006	0.1108829568788501	-0.4093686354378818	0.6446280991735538
4048.858642578125	-0.3331934850687005	-9.737732560172216	-1.893550497709985	0.007189910072355707	1.100789916442297	-0.7189910072355706	0.1108829568788501	-0.4093686354378818	0.6446280991735538
4052.764892578125	-0.311282521621935	-9.757314681991092	-1.957249279268835	-7.437182829950031e-05	0.7436439111667036	0.007437182829950031	0.1437371663244353	-0.4195519348268839	0.621900826446281
4056.671142578125	-0.2401972806872964	-9.877663787422227	-1.99342397709012	-0.3624670035432295	1.119162631650203	0.01481629635193433	0.1437371663244353	-0.4195519348268839	0.621900826446281
4060.577392578125	-0.6566309764431908	-9.562310682383298	-2.112300785226976	0.365968993794033	0.3607872155293249	-0.3650153214322821	0.1437371663244353	-0.4195519348268839	0.621900826446281
4064.483642578125	-0.3556351884521084	-9.714988710932849	-2.145493718263053	0.3623182598866305	0.3681251906832038	5.806930796573191e-05	0.1437371663244353	-0.4195519348268839	0.621900826446281
4068.389892578125	-0.311282521621935	-9.757314681991092	-1.957249279268835	0.3623182598866305	0.3681251906832038	5.806930796573191e-05	0.1437371663244353	-0.4195519348268839	0.621900826446281
4072.296142578125	-0.3887721296077966	-9.715702988573186	-2.040929013073447	0.7210229717800084	0.3717664009369348	0.3614709379412043	0.1437371663244353	-0.4195519348268839	0.621900826446281
4076.202392578125	-0.2672902532331368	-9.769757181878715	-1.75699155889544	-0.3549796061576758	-0.7546230965743135	-0.7339234422034364	0.1437371663244353	-0.4195519348268839	0.621900826446281
4080.108642578125	-0.6467677306964051	-9.755788232925171	-1.774408976786502	0.7319751735022159	0.3497524754752979	-0.7337492342795393	0.1396303901437372	-0.4114052953156823	0.6239669421487604
4084.014892578125	-0.2578867717999655	-9.726716722881989	-2.070440940001151	-0.3587047118933778	-0.003641210253730994	-0.3614128686332386	0.1396303901437372	-0.4114052953156823	0.6239669421487604
4087.921142578125	-0.6578430823609016	-9.666035929963359	-1.738563921303281	-0.717335051958456	-0.7509263316741656	-0.7302629200964272	0.1396303901437372	-0.4114052953156823	0.6239669421487604
4091.827392578125	-0.2626389840707044	-9.854919938182862	-2.245367197643189	0.003687919821552229	-0.3791599307372308	-0.3687919821552229	0.1314168377823409	-0.4256619144602851	0.6115702479338843
4095.733642578125	-0.4016952133251213	-9.656548118975124	-1.943492889162627	0.3624298176290798	-0.7473406760668516	-0.01109770493695932	0.1314168377823409	-0.4256619144602851	0.6115702479338843
4099.639892578125	-0.313566359447368	-9.918053122887981	-1.881121351754399	0.3661549233647818	-1.498322562387434	-0.3836082785071572	0.1314168377823409	-0.4256619144602851	0.6115702479338843
4103.546142578125	-0.3799041198194696	-9.596168998741629	-2.003196006017681	-0.3548308625010768	-2.241910918907721	-0.7487978078633365	0.1314168377823409	-0.4256619144602851	0.6115702479338843
4107.452392578125	-0.2014966393042497	-9.65848391337504	-1.950112023191679	-0.3585931541509285	-1.119107077003786	-0.3725686428781636	0.1396303901437372	-0.4297352342158859	0.6342975206611571
4111.358642578125	-0.3256377356883571	-9.725289534539236	-2.145408810388097	0.003725105735701979	-0.7509818863205826	-0.3725105735701979	0.1396303901437372	-0.4297352342158859	0.6342975206611571
4115.264892578125	-0.660777530064091	-9.743651401387389	-1.974082331196967	-0.7172978660443063	-1.122748287257517	-0.7339815115114022	0.1396303901437372	-0.4297352342158859	0.6342975206611571
4119.171142578125	-0.1575248749843262	-9.797599709578266	-2.082504167189126	-0.3623182598866305	-0.3681251906832038	-5.806930796573191e-05	0.1457905544147844	-0.415478615071283	0.6363636363636364
4123.077392578125	-0.2910544690589658	-9.917440944995731	-1.964851031367808	-0.3587047118933778	-0.003641210253730994	-0.3614128686332386	0.1457905544147844	-0.415478615071283	0.6363636363636364
4126.983642578125	-0.3330184118652315	-9.784342619836425	-2.232719604492284	-0.003613547993252729	-0.3644839804294728	0.3613547993252729	0.1457905544147844	-0.415478615071283	0.6363636363636364
4130.889892578125	-0.2817503534980336	-9.667765947631032	-1.94165488339888	-0.365968993794033	-0.3607872155293249	0.3650153214322821	0.1457905544147844	-0.415478615071283	0.6363636363636364
4134.796142578125	-0.3431568853057591	-9.547620726248862	-1.894770489808032	-0.3696197277014355	-0.3534492403754458	0.73008871217253	0.1457905544147844	-0.415478615071283	0.6363636363636364
4138.702392578125	-0.6093643659787027	-9.653694478333115	-2.021187800709914	0.3550539779859753	0.01097918540760998	0.7264862593734864	0.1457905544147844	-0.415478615071283	0.6363636363636364
4142.608642578125	-0.2093583724816469	-9.817692540435733	-2.021387583945104	-0.3622810739724808	-0.7399471462665556	-0.003776660722940747	0.1457905544147844	-0.415478615071283	0.6363636363636364
4146.514892578125	-0.2039358348823106	-9.855939253278613	-2.202138837256314	-0.365968993794033	-0.3607872155293249	0.3650153214322821	0.1273100616016427	-0.4195519348268839	0.6260330578512396
4150.421142578125	-0.3807613476220407	-9.86644616906446	-1.974621745931979	-0.7283244395948133	-0.3570904506291769	0.3686758435392914	0.1273100616016427	-0.4195519348268839	0.6260330578512396
4154.327392578125	-0.1448872709951808	-9.876846884288444	-2.170424300160641	-1.083378417580789	-0.3680696360367868	-0.357810415834195	0.1273100616016427	-0.4195519348268839	0.6260330578512396
4158.233642578125	-0.1778128625178524	-9.597492825547441	-2.072904582738255	-0.7247108916015605	0.007393529800295976	0.007321044214018567	0.1334702258726899	-0.4195519348268839	0.6115702479338843
4162.139892578125	-0.4080798649255032	-9.818612489659246	-1.730671169149893	-0.3550539779859753	-0.01097918540760998	-0.7264862593734864	0.1334702258726899	-0.4195519348268839	0.6115702479338843
4166.046142578125	-0.365403800034857	-9.654813895344605	-2.153206665504769	0.003613547993252729	0.3644839804294728	-0.3613547993252729	0.1334702258726899	-0.4195519348268839	0.6115702479338843
4169.952392578125	-0.3300689804194029	-9.716722303668941	-1.997700652686572	-0.3623554458007803	0.003696764900147988	0.003660522107009284	0.1334702258726899	-0.4195519348268839	0.6115702479338843
4173.858642578125	-0.2607407804637232	-9.717639519016604	-1.975307317875894	0	0	0	0.1375770020533881	-0.4195519348268839	0.6177685950413223
4177.764892578125	-0.3122130909016349	-9.557615566058196	-1.926230303278837	-0.3586303400650783	-0.7472851214204346	-0.3688500514631886	0.1375770020533881	-0.4195519348268839	0.6177685950413223
4181.671142578125	-0.3984965785806611	-9.89551389374108	-2.050114047311299	-0.3695825417872857	-0.7252711959587976	0.726370120757555	0.1375770020533881	-0.4195519348268839	0.6177685950413223
4185.577392578125	-0.2639701713114955	-9.66868368872405	-1.867660956283485	0	0	0	0.1457905544147844	-0.3991853360488798	0.615702479338843
4189.483642578125	-0.3665260034967324	-9.818510074463944	-1.782466550108921	-0.7282872536806635	-0.7289124062125286	0.3649572521243164	0.1457905544147844	-0.3991853360488798	0.615702479338843
4193.389892578125	-0.4088148569328595	-9.538850137074958	-1.706171435571352	-0.003613547993252729	-0.3644839804294728	0.3613547993252729	0.1457905544147844	-0.3991853360488798	0.615702479338843
4197.296142578125	-0.3515446267115969	-9.776999429303416	-1.948512442946771	-1.079616125930937	-1.490873477940721	-0.7340395808193679	0.1293634496919918	-0.4236252545824847	0.6342975206611571
4201.202392578125	-0.1233162019209158	-9.739872238621098	-1.889459935969473	-0.3623554458007803	0.003696764900147988	0.003660522107009284	0.1293634496919918	-0.4236252545824847	0.6342975206611571
4205.108642578125	-0.1353378952257853	-9.650425919456337	-1.82207015914049	-0.003650733907402479	0.007337975153878983	0.3650733907402479	0.1293634496919918	-0.4236252545824847	0.6342975206611571
4209.014892578125	-0.1223398927952645	-9.759556565337135	-1.922003573491183	-0.7173722378726058	-0.3791043760908138	-0.7265443286814521	0.1293634496919918	-0.4236252545824847	0.6342975206611571
4212.921142578125	-0.07436668057263135	-9.690711893385151	-1.854443980912289	0.3586303400650783	0.7472851214204346	0.3688500514631886	0.1108829568788501	-0.4236252545824847	0.640495867768595
4216.827392578125	-0.1225149659987335	-9.712946505672923	-1.582834466708884	0.3622810739724808	0.7399471462665556	0.003776660722940747	0.1108829568788501	-0.4236252545824847	0.640495867768595
4220.733642578125	-0.124171063869386	-9.380148643984436	-1.860964537687136	0.3695825417872857	0.7252711959587976	-0.726370120757555	0.1108829568788501	-0.4236252545824847	0.640495867768595
4224.639892578125	-0.2199976183735385	-9.597799229940778	-2.00007938754872	0.7245621479449615	1.479894292533111	0.007553321445881495	0.1396303901437372	-0.4317718940936863	0.6239669421487604
4228.546142578125	-0.4527188001018895	-10.00637907869961	-1.909373329937018	-0.3514776159068723	0.7253267506052147	-1.084122467283784	0.1396303901437372	-0.4317718940936863	0.6239669421487604
4232.452392578125	-0.2757071735062195	-9.769145319433679	-1.809760883126019	-0.3588534555499768	1.483646612079676	-0.3465385029733385	0.1396303901437372	-0.4317718940936863	0.6239669421487604
4236.358642578125	-0.4868012942799169	-9.797399085150506	-1.773290190669439	0.003539176164953228	1.108127891596177	-0.3539176164953228	0.1396303901437372	-0.4317718940936863	0.6239669421487604
4240.264892578125	-0.4085948325014728	-9.61544566250881	-2.046838916617575	-0.3551283498142748	0.7326647257590937	-0.7190490765435364	0.1396303901437372	-0.4317718940936863	0.6239669421487604
4244.171142578125	-0.4603242324183525	-9.915504835148601	-1.989192252721586	-0.3696569136155852	0.01837271520790595	0.733807303587505	0.1396303901437372	-0.4317718940936863	0.6239669421487604
4248.077392578125	-0.4783733333543632	-9.524674044451244	-2.054222221521228	0.3733076475229877	-0.02571069036178494	-1.098880694327753	0.1396303901437372	-0.4317718940936863	0.6239669421487604
4251.983642578125	-0.4823842446734767	-9.585970905777756	-1.920525177550778	-0.003650733907402479	0.007337975153878983	0.3650733907402479	0.1190965092402464	-0.4175152749490835	0.6260330578512396
4255.889892578125	-0.3486898294298056	-9.576076378182304	-2.043672352339816	-0.003539176164953228	-1.108127891596177	0.3539176164953228	0.1190965092402464	-0.4175152749490835	0.6260330578512396
4259.796142578125	-0.4122603291218502	-9.696630839749398	-1.924655695938328	-0.3731589038663887	-1.461577131971622	1.084006328667853	0.1190965092402464	-0.4175152749490835	0.6260330578512396
4263.702392578125	-0.5296965949839162	-9.674601899044799	-2.010113500536129	-0.7244505902025123	-2.595360159283167	-0.01870909569080654	0.1396303901437372	-0.4195519348268839	0.6446280991735538
4267.608642578125	-0.3971433100349279	-9.535076336911294	-2.095222998835737	-0.7318264298456169	-1.837040297808705	0.7188748686196392	0.1396303901437372	-0.4195519348268839	0.6446280991735538
4271.514892578125	-0.5107595101420224	-9.60514557494592	-1.974682995265926	-1.101408971632903	-2.562311493767503	1.445244989377194	0.1396303901437372	-0.4195519348268839	0.6446280991735538
4275.421142578125	-0.3112068142907051	-9.597290203287329	-1.959772856976496	-1.086731664174993	-3.335307305549722	-0.02248575641374729	0.1396303901437372	-0.4195519348268839	0.6446280991735538
4279.327392578125	-0.146328864760682	-9.757312999605954	-2.122371174643932	-1.090456769910695	-2.58432541922914	0.3500248171564506	0.1293634496919918	-0.4175152749490835	0.621900826446281
4283.233642578125	-0.07196928175035353	-9.956603401099281	-2.26769060832155	-0.3694337981306867	-2.212559018292205	0.7114957550976549	0.1293634496919918	-0.4175152749490835	0.621900826446281
4287.139892578125	0.0891398621968848	-9.707844777889672	-2.304662073229493	-1.08322967392419	-1.855357458370194	-0.3726847814940951	0.1293634496919918	-0.4175152749490835	0.621900826446281
4291.046142578125	-0.1192910954771967	-9.898570787537627	-2.02363015076011	-1.083304045752489	-1.11171354720349	-0.3652475986641451	0.1375770020533881	-0.4317718940936863	0.6239669421487604
4294.952392578125	0.1001757829596993	-9.630943163509698	-2.005859431989975	-0.3587047118933778	-0.003641210253730994	-0.3614128686332386	0.1375770020533881	-0.4317718940936863	0.6239669421487604
4298.858642578125	-0.1409765141663401	-9.818915739580449	-1.967449527788665	-0.3624298176290798	0.7473406760668516	0.01109770493695932	0.1375770020533881	-0.4317718940936863	0.6239669421487604
4302.764892578125	-0.3223783773553064	-9.794235675344884	-2.254054088156455	-0.7174466097009052	0.3645395350758898	-0.7191071458515021	0.1375770020533881	-0.4317718940936863	0.6239669421487604
4306.671142578125	-0.1830563838235515	-9.889188230769616	-1.898120539214952	-0.7283988114231127	0.3865534605375267	0.3761130263692414	0.1375770020533881	-0.4317718940936863	0.6239669421487604
4310.577392578125	-0.2678509606550577	-9.746605143945136	-2.07163464483141	-0.3551283498142748	0.7326647257590937	-0.7190490765435364	0.1375770020533881	-0.4317718940936863	0.6239669421487604
4314.483642578125	-0.3955069276151166	-9.784547239928887	-2.149769079496115	-0.7211345295224576	0.7436994658131205	-0.3503151636962792	0.1375770020533881	-0.4317718940936863	0.6239669421487604
4318.389892578125	0.04401040660357197	-9.849103301864846	-2.133680220119066	-0.3587790837216773	0.7400027009129726	-0.3539756858032885	0.1314168377823409	-0.4276985743380855	0.6322314049586777
4322.296142578125	-0.3569119610485781	-9.705401534072374	-2.102934631714064	-0.3587418978075275	0.3681807453296208	-0.3576942772182636	0.1314168377823409	-0.4276985743380855	0.6322314049586777
4326.202392578125	-0.5364621490945483	-9.933456094873904	-2.11792836351506	-1.072389029944431	-0.7619055170817756	-1.456749179469914	0.1314168377823409	-0.4276985743380855	0.6322314049586777
4330.108642578125	-0.3649834666229247	-9.724677987541414	-2.167217779235845	0.3696197277014355	0.3534492403754458	-0.73008871217253	0.135523613963039	-0.415478615071283	0.6053719008264463
4334.014892578125	-0.4074986534347076	-9.715091231277222	-2.083378218843082	-1.083341231666639	-0.7398915916201386	-0.36152900724917	0.135523613963039	-0.415478615071283	0.6053719008264463
4337.921142578125	-0.3876444058196857	-9.415338357881698	-2.078519806010478	-0.7209485999517089	-1.115410312103638	-0.3689081207711543	0.135523613963039	-0.415478615071283	0.6053719008264463
4341.827392578125	-0.4726463891940403	-9.836155665839406	-1.911787026865325	-1.086954779659892	-1.104375572049612	-0.000174207923897194	0.135523613963039	-0.415478615071283	0.6053719008264463
4345.733642578125	-0.4851499281174663	-10.05686514342465	-1.828335729417792	-1.086954779659892	-1.104375572049612	-0.000174207923897194	0.135523613963039	-0.415478615071283	0.628099173553719
4349.639892578125	-0.2487593066785696	-9.850432175826072	-1.708023110714349	-1.086954779659892	-1.104375572049612	-0.000174207923897194	0.135523613963039	-0.415478615071283	0.628099173553719
4353.546142578125	-0.3284775492275093	-9.936207740916895	-2.050748359083026	-0.728212881852364	-1.472556317379232	0.3575200692943664	0.135523613963039	-0.415478615071283	0.628099173553719
4357.452392578125	-0.2924960628244671	-9.797907060313245	-1.916797905851099	-1.086954779659892	-1.104375572049612	-0.000174207923897194	0.135523613963039	-0.405295315682281	0.6177685950413223
4361.358642578125	-0.1943281013784255	-10.08949941944569	-1.855729954052485	-0.3695825417872857	-0.7252711959587976	0.726370120757555	0.135523613963039	-0.405295315682281	0.6177685950413223
4365.264892578125	-0.2769689623600499	-9.76955329782975	-1.767701254665004	-0.7245621479449615	-1.479894292533111	-0.007553321445881495	0.135523613963039	-0.405295315682281	0.6177685950413223
4369.171142578125	-0.1765006021098687	-9.490401861348857	-1.783313263004377	-1.445696677467419	-0.7361948267199907	-0.3578684851421607	0.135523613963039	-0.405295315682281	0.6177685950413223
4373.077392578125	-0.1877581245401371	-9.910708460267978	-1.741395848662096	3.718591414975016e-05	-0.3718219555833518	-0.003718591414975016	0.135523613963039	-0.405295315682281	0.6177685950413223
