Time Stamp	Accelerometer X	Accelerometer Y	Accelerometer Z	Gyroscope X	Gyroscope Y	Gyroscope Z	Magnetometer X	Magnetometer Y	Magnetometer Z
1790.069580078125	-2.414164053055067	-5.170579710487806	8.47213510183556	-32.51073640643084	9.794616381871855	-9.795924574306754	0.2217659137577002	-0.3788187372708757	0.6962809917355373
1793.975830078125	0.1642849087687228	-10.08021454616478	-2.142830292290759	-9.756851950016458	-11.84985575244041	-2.575674563571685	0.2299794661190965	-0.3747454175152749	0.6859504132231405
1797.882080078125	0.07841544555735974	-9.501312339269786	-1.947181518578658	-12.25314481172634	-12.2765180804154	-6.569576798380321	0.2299794661190965	-0.3747454175152749	0.6859504132231405
1801.788330078125	0.3073638786127578	-9.733952345915208	-1.912129287091926	-28.60734313184068	-4.578330871241277	-1.584527395642181	0.2299794661190965	-0.3747454175152749	0.6859504132231405
1805.694580078125	0.1386358958424846	-9.461841060344264	-1.954529861416153	-49.98001698595396	5.664295108310195	-1.998301404604804	0.2299794661190965	-0.3747454175152749	0.6859504132231405
1809.600830078125	0.1619584855694729	-9.580966756332538	-2.065282852315764	-64.12361247810374	13.63874393212799	-0.6822304504962227	0.2361396303901437	-0.3930753564154786	0.7004132231404959
1813.507080078125	0.03962411310044391	-9.870521536764191	-1.987470436681464	7.628238634151495	-5.319829316839428	-1.954298197758084	0.2361396303901437	-0.3930753564154786	0.7004132231404959
1817.413330078125	0.03119772941095753	-9.723246067490457	-1.706590980365251	7.98332979805162	-5.68067208701517	-1.231530529799573	0.2361396303901437	-0.3930753564154786	0.7004132231404959
1821.319580078125	-0.01759170247649723	-9.80902131713407	-2.080276584116759	6.167939021054465	-6.026672242943903	-0.8518731199392537	0.2361396303901437	-0.3767820773930753	0.7066115702479339
1825.225830078125	-0.1087102073197949	-9.6584829670334	-2.042993089340171	3.997419894243037	-5.640007673113542	-1.191264786622471	0.2361396303901437	-0.3767820773930753	0.7066115702479339
1829.132080078125	0.003453358369327164	-9.742216747460587	-1.781778612310906	2.544198633475914	-4.130594816025664	-0.7966749417942859	0.2361396303901437	-0.3767820773930753	0.7066115702479339
1833.038330078125	-0.1462634094638896	-9.66062516905999	-1.791219684537014	0.3663036670213808	-2.985610384720841	-0.3984826441670573	0.2361396303901437	-0.3767820773930753	0.7066115702479339
1836.944580078125	0.1107755979499086	-9.684182556662863	-1.692519931663619	-1.086880407831592	-1.848019483216315	-0.007611390753847227	0.2361396303901437	-0.3767820773930753	0.7066115702479339
1840.850830078125	0.2493515588218362	-9.772709662647607	-1.978385294061207	-2.174021117062233	-1.093285277349167	0.01080735839713066	0.2361396303901437	-0.3767820773930753	0.7066115702479339
1844.757080078125	0.2616942196663988	-9.725385535641196	-1.723140655546627	-2.540064482684565	-0.7104285817117887	0.3832598626593628	0.2361396303901437	-0.3767820773930753	0.7066115702479339
1848.663330078125	0.1647714860954811	-9.843390552829128	-1.825716203182705	-2.181434142619487	0.03685653970864589	0.7521099141225515	0.2238193018480493	-0.3747454175152749	0.6714876033057852
1852.569580078125	0.1709006254529625	-9.721408797770207	-2.030020848432083	-1.815390776997154	-0.3460001559287329	0.3796574098603193	0.2238193018480493	-0.3747454175152749	0.6714876033057852
1856.475830078125	0.3743033545445298	-9.825641915363935	-1.81011181815099	-1.090605513567294	-1.097037596895733	0.3648991828163506	0.2238193018480493	-0.3747454175152749	0.6714876033057852
1860.382080078125	0.3856949420405177	-9.705291968740232	-1.856498068017254	-0.3659318078798833	-0.7326091711126765	0.3612967300173071	0.2238193018480493	-0.3727087576374745	0.6921487603305785
1864.288330078125	0.3872721781078057	-9.704781995745142	-1.909072603593522	7.437182829950031e-05	-0.7436439111667036	-0.007437182829950031	0.2238193018480493	-0.3727087576374745	0.6921487603305785
1868.194580078125	0.3915725122452666	-9.906724887707364	-1.719083741508884	-0.3623554458007803	0.003696764900147988	0.003660522107009284	0.2238193018480493	-0.3727087576374745	0.6921487603305785
1872.100830078125	0.3595877420367323	-9.763733296741457	-1.986258067891075	0.003539176164953228	1.108127891596177	-0.3539176164953228	0.2238193018480493	-0.3727087576374745	0.6921487603305785
1876.007080078125	0.2876768180208685	-9.513651162173254	-1.922560600695614	0.365820250137434	1.848075037862732	-0.3501409557723821	0.2197125256673511	-0.3849287169042769	0.7148760330578513
1879.913330078125	0.2019051434456773	-9.561384003619231	-2.063504781522574	0.3657458783091345	2.591718949029436	-0.342703772942432	0.2197125256673511	-0.3849287169042769	0.7148760330578513
1883.819580078125	0.09981459590029029	-9.811059947325575	-1.99381986334301	-0.3479756256560689	2.205276597784743	-1.434321492364132	0.2197125256673511	-0.3849287169042769	0.7148760330578513
1887.725830078125	0.03669439710545636	-10.02146881160257	-1.889813236848546	0.003464804336653728	1.85177180276288	-0.3464804336653728	0.2073921971252567	-0.3910386965376782	0.6942148760330579
1891.632080078125	0.08699639838144034	-9.821871164523333	-1.899879946048012	0.365820250137434	1.848075037862732	-0.3501409557723821	0.2073921971252567	-0.3910386965376782	0.6942148760330579
1895.538330078125	0.0590122874575822	-9.680919360388716	-1.967076248586074	-0.3551283498142748	0.7326647257590937	-0.7190490765435364	0.2073921971252567	-0.3910386965376782	0.6942148760330579
1899.444580078125	0.1850760346077138	-9.633492082143507	-1.835867820257126	-0.3587790837216773	0.7400027009129726	-0.3539756858032885	0.2258726899383984	-0.360488798370672	0.6818181818181819
1903.350830078125	0.1149820865413658	-9.542822458684958	-1.832736218045526	-3.718591414975016e-05	0.3718219555833518	0.003718591414975016	0.2258726899383984	-0.360488798370672	0.6818181818181819
1907.257080078125	0.07919617741066733	-9.601059902637218	-1.973205913688911	-3.718591414975016e-05	0.3718219555833518	0.003718591414975016	0.2258726899383984	-0.360488798370672	0.6818181818181819
1911.163330078125	0.1666941368615053	-9.862768895748113	-1.889804562050176	0.003650733907402479	-0.007337975153878983	-0.3650733907402479	0.2258726899383984	-0.360488798370672	0.6818181818181819
1915.069580078125	0.1978642646412853	-9.602690554432652	-1.928808821376175	-0.7173722378726058	-0.3791043760908138	-0.7265443286814521	0.2279260780287475	-0.3686354378818737	0.6880165289256198
1918.975830078125	0.1987199152077891	-9.752413894082814	-1.957330506926301	0.003613547993252729	0.3644839804294728	-0.3613547993252729	0.2279260780287475	-0.3686354378818737	0.6880165289256198
1922.882080078125	0.1984951590682005	-9.602486565234615	-1.949838635606682	-0.7211345295224576	0.7436994658131205	-0.3503151636962792	0.2279260780287475	-0.3686354378818737	0.6880165289256198
1926.788330078125	-8.201627549898443e-05	-9.840026518595746	-1.997266124150034	-0.36239263171493	0.3755187204834998	0.007379113521984299	0.2135523613963039	-0.3747454175152749	0.6838842975206612
1930.694580078125	0.03724642972900718	-9.687956987720955	-2.241547657633573	-0.7210601576941581	5.555464641699391e-05	-0.3577523465262293	0.2135523613963039	-0.3747454175152749	0.6838842975206612
1934.600830078125	-0.07926951888779624	-9.928963811107055	-2.024349370406793	-1.083378417580789	-0.3680696360367868	-0.357810415834195	0.2135523613963039	-0.3747454175152749	0.6838842975206612
1938.507080078125	0.174610284683224	-9.880209341285758	-2.153676156107466	-0.7245993338591113	-1.108072336949759	-0.003834730030906479	0.2135523613963039	-0.3747454175152749	0.6838842975206612
1942.413330078125	0.2025202655119196	-9.761185114151145	-2.084008850397319	-0.724487776116662	-2.223538203699815	-0.01499050427583152	0.2073921971252567	-0.3747454175152749	0.6983471074380165
1946.319580078125	0.1416839045425188	-9.810855537531252	-2.056130151417291	-0.358518782322629	-1.86275098817049	-0.3800058257081136	0.2073921971252567	-0.3747454175152749	0.6983471074380165
1950.225830078125	0.1602306234577589	-9.691525431748659	-2.007687448591962	-0.7172234942160068	-1.866392198424221	-0.7414186943413522	0.2073921971252567	-0.3747454175152749	0.6983471074380165
1954.132080078125	-0.1692461048183774	-9.698056240557943	-2.025129839387422	-1.442008757645867	-1.115354757457222	-0.7266604672973836	0.2238193018480493	-0.3727087576374745	0.6983471074380165
1958.038330078125	0.332859899640469	-9.759041965782917	-2.428663321348968	-1.076039763851834	-0.7545675419278965	-1.091675788729666	0.2238193018480493	-0.3727087576374745	0.6983471074380165
1961.944580078125	0.5103407539661573	-9.904989822884277	-2.011358465538575	-1.438358023738464	-1.1226927326111	-1.091733858037631	0.2238193018480493	-0.3727087576374745	0.6983471074380165
1965.850830078125	0.06723363045832115	-9.761594459485144	-1.907787681944038	-0.7136471321369039	-1.130086262411396	-1.09905490225165	0.2176591375770021	-0.3788187372708757	0.6921487603305785
1969.757080078125	0.1902438485821831	-9.501821155625095	-2.008128286072769	0.007375839643104458	-0.7583198614744615	-0.7375839643104457	0.2176591375770021	-0.3788187372708757	0.6921487603305785
1973.663330078125	0.1604561682153811	-9.631452505610362	-2.015205607179368	3.718591414975016e-05	-0.3718219555833518	-0.003718591414975016	0.2176591375770021	-0.3788187372708757	0.6921487603305785
1977.569580078125	0.3132375057273385	-9.652053206481494	-2.107916857577949	-0.7209485999517089	-1.115410312103638	-0.3689081207711543	0.2176591375770021	-0.3788187372708757	0.6921487603305785
1981.475830078125	0.1179559651462374	-9.631860904602718	-1.931865504874579	-0.3622810739724808	-0.7399471462665556	-0.003776660722940747	0.2135523613963039	-0.3808553971486761	0.7004132231404959
1985.382080078125	0.230204701582993	-9.702233813154834	-2.006823386099766	-0.3658946219657335	-1.104431126696028	0.3575781386023321	0.2135523613963039	-0.3808553971486761	0.7004132231404959
1989.288330078125	0.1659733399787546	-9.803001953406868	-1.865777999291821	-0.3622067021441813	-1.483591057433259	-0.01121384355289078	0.2135523613963039	-0.3808553971486761	0.7004132231404959
1993.194580078125	0.5748181643968926	-9.617475460178337	-1.827272146563084	-0.369545355873136	-1.097093151542149	0.7226515293425799	0.2340862422997947	-0.3747454175152749	0.7066115702479339
1997.100830078125	0.05546192907011682	-9.768733976267329	-2.182064302337227	-0.01076627215145869	-1.837095852455122	1.076627215145868	0.2340862422997947	-0.3747454175152749	0.7066115702479339
2001.007080078125	0.06688821575958506	-9.741706143571069	-1.896273858652835	-0.007189910072355707	-1.100789916442297	0.7189910072355706	0.2340862422997947	-0.3747454175152749	0.7066115702479339
2004.913330078125	0.1564294845355947	-9.892754466666824	-1.880982817853156	-0.3658574360515838	-1.47625308227938	0.3538595471873571	0.2340862422997947	-0.3747454175152749	0.7066115702479339
2008.819580078125	0.1523444431213186	-9.694075296724108	-1.744814770710621	-1.083266859838339	-1.483535502786842	-0.3689661900791201	0.2340862422997947	-0.3747454175152749	0.7066115702479339
2012.725830078125	0.521506796704523	-9.84471280239887	-2.050226556817432	-0.7172978660443063	-1.122748287257517	-0.7339815115114022	0.2340862422997947	-0.3747454175152749	0.7066115702479339
2016.632080078125	0.4763331785013261	-9.745985605617905	-1.877772616710869	-0.7173722378726058	-0.3791043760908138	-0.7265443286814521	0.2340862422997947	-0.3747454175152749	0.7066115702479339
2020.538330078125	0.2190733580381076	-9.855832947567679	-1.635778601270253	-0.3514776159068723	0.7253267506052147	-1.084122467283784	0.2279260780287475	-0.3828920570264766	0.6756198347107438
2024.444580078125	0.3410426003575595	-9.463062892551056	-2.034753345251981	-0.7102938855426993	1.837151407101539	-1.434379561672098	0.2279260780287475	-0.3828920570264766	0.6756198347107438
2028.350830078125	0.1624229815912893	-9.890816569285484	-2.080766053042975	-0.7066431516352969	1.82981343194766	-1.799452952412346	0.2279260780287475	-0.3828920570264766	0.6756198347107438
2032.257080078125	0.1824412617573091	-9.911010658698471	-2.081375391910303	0.007003980501606956	2.959899694359057	-0.7003980501606956	0.2320328542094456	-0.3869653767820774	0.6756198347107438
2036.163330078125	-0.1068127923308474	-9.731202802853641	-1.772906922305088	0.3657830642232843	2.219896993446084	-0.346422364357407	0.2320328542094456	-0.3869653767820774	0.6756198347107438
2040.069580078125	0.07159547680240623	-9.583517462500554	-1.719849226746874	0.01087782989390794	0.7216299857050666	-1.087782989390794	0.2320328542094456	-0.3869653767820774	0.6756198347107438
2043.975830078125	-0.1330848135036644	-9.679697423032851	-1.897172883211189	-0.3550911639001251	0.3608427701757418	-0.7227676679585114	0.2320328542094456	-0.3869653767820774	0.6756198347107438
2047.882080078125	0.09846842491685996	-9.614828542610214	-1.615614163895331	-0.3660433656223325	0.3828566956373787	0.3724525042622321	0.2217659137577002	-0.3686354378818737	0.6900826446280992
2051.788330078125	0.01008327017817246	-9.603406409309057	-1.669442339272416	0	0	0	0.2217659137577002	-0.3686354378818737	0.6900826446280992
2055.694580078125	-0.04968687920974166	-9.732732090944483	-1.677104026341945	-0.3622810739724808	-0.7399471462665556	-0.003776660722940747	0.2217659137577002	-0.3686354378818737	0.6900826446280992
2059.600830078125	-0.01333631956695408	-9.980978743326649	-1.888789347768198	-1.083304045752489	-1.11171354720349	-0.3652475986641451	0.2238193018480493	-0.3564154786150712	0.6818181818181819
2063.507080078125	0.2697901723997884	-9.862767844257402	-1.993005746659611	-0.365968993794033	-0.3607872155293249	0.3650153214322821	0.2238193018480493	-0.3564154786150712	0.6818181818181819
2067.413330078125	-0.06637088232951459	-9.831459918619878	-1.787637255682847	-0.003576362079102979	-0.7363059360128246	0.3576362079102978	0.2238193018480493	-0.3564154786150712	0.6818181818181819
2071.319580078125	0.01267624627279401	-9.789234680371797	-2.089208209093134	-0.7245993338591113	-1.108072336949759	-0.003834730030906479	0.2238193018480493	-0.3564154786150712	0.6818181818181819
2075.225830078125	0.2450851352598221	-9.874089139599326	-1.836171175327401	-0.362243888058331	-1.111769101849907	-0.007495252137915762	0.2238193018480493	-0.3564154786150712	0.6818181818181819
2079.132080078125	0.1352858464355648	-9.542924242985833	-1.842861547852159	-0.3658574360515838	-1.47625308227938	0.3538595471873571	0.2238193018480493	-0.3564154786150712	0.6818181818181819
2083.038330078125	0.1689937470476112	-9.502025355121271	-1.966458234920375	-0.7209114140375591	-1.48723226768699	-0.3726267121861294	0.2238193018480493	-0.3564154786150712	0.6818181818181819
2086.944580078125	0.1939574509026128	-9.943953757541488	-1.798581696753759	0.003725105735701979	-0.7509818863205826	-0.3725105735701979	0.2340862422997947	-0.3747454175152749	0.6942148760330579
2090.850830078125	0.2673273182807181	-9.693564167089233	-1.910910609357268	-0.717335051958456	-0.7509263316741656	-0.7302629200964272	0.2340862422997947	-0.3747454175152749	0.6942148760330579
2094.757080078125	0.2760746695098976	-9.704069190191801	-1.869155650329918	-0.3550911639001251	0.3608427701757418	-0.7227676679585114	0.2340862422997947	-0.3747454175152749	0.6942148760330579
2098.663330078125	0.0864364795775531	-9.588718871603257	-2.21454931925177	0.003464804336653728	1.85177180276288	-0.3464804336653728	0.2217659137577002	-0.3971486761710794	0.7066115702479339
2102.569580078125	0.162558623893076	-9.770772711607906	-2.085287463102534	0.01080345806560844	1.46527389687177	-1.080345806560844	0.2217659137577002	-0.3971486761710794	0.7066115702479339
2106.475830078125	0.1013318969970214	-9.770569353304298	-2.04439656656738	0.3731589038663887	1.461577131971622	-1.084006328667853	0.2217659137577002	-0.3971486761710794	0.7066115702479339
2110.382080078125	-0.06127798706824149	-9.649813215818732	-1.957400431058617	0.3658574360515838	1.47625308227938	-0.3538595471873571	0.2217659137577002	-0.3971486761710794	0.7066115702479339
2114.288330078125	0.1123473136909611	-9.820341035239922	-2.078243789698703	0.3658574360515838	1.47625308227938	-0.3538595471873571	0.2258726899383984	-0.360488798370672	0.6962809917355373
2118.194580078125	-0.05372223768789812	-9.637370190185754	-2.20925874373673	-0.0001487436565990006	1.487287822333407	0.01487436565990006	0.2258726899383984	-0.360488798370672	0.6962809917355373
2122.100830078125	-0.04930124499128973	-9.709274069213851	-2.023291833623676	-0.7211345295224576	0.7436994658131205	-0.3503151636962792	0.2258726899383984	-0.360488798370672	0.6962809917355373
2126.007080078125	-0.05390204259956896	-9.517428327107195	-2.203265246681035	-0.3623554458007803	0.003696764900147988	0.003660522107009284	0.2258726899383984	-0.3706720977596741	0.6797520661157025
2129.913330078125	-0.05801862873519076	-9.718759356624378	-2.066045708826975	-1.086954779659892	-1.104375572049612	-0.000174207923897194	0.2258726899383984	-0.3706720977596741	0.6797520661157025
2133.819580078125	0.1076897355842595	-10.08184698549442	-1.922991186141983	-0.7208370422092596	-2.230876178853694	-0.3800638950160794	0.2258726899383984	-0.3706720977596741	0.6797520661157025
2137.725830078125	0.2155095931440703	-9.51365189821675	-1.850319771469009	-1.08311811618174	-2.97082332512025	-0.3838405557390202	0.2258726899383984	-0.3706720977596741	0.6797520661157025
2141.632080078125	0.07548494094433855	-9.862259869094663	-1.849498031477952	-0.3657458783091345	-2.591718949029436	0.342703772942432	0.2258726899383984	-0.3706720977596741	0.6797520661157025
2145.538330078125	0.4063441166334528	-9.725282068955185	-1.87813722111509	-0.7281013241099148	-2.588022184129287	0.3463642950494413	0.2258726899383984	-0.3706720977596741	0.6797520661157025
2149.444580078125	0.4132989390721594	-9.733033343033336	-2.109964635738645	-1.090493955824845	-2.212503463645788	0.3537434085714256	0.2258726899383984	-0.3706720977596741	0.6797520661157025
2153.350830078125	0.08896400037538219	-9.87123497321196	-1.965466679179406	-1.086880407831592	-1.848019483216315	-0.007611390753847227	0.2361396303901437	-0.395112016293279	0.6859504132231405
2157.257080078125	0.4008860912226025	-9.803713497171358	-2.029536374086748	-0.3658946219657335	-1.104431126696028	0.3575781386023321	0.2361396303901437	-0.395112016293279	0.6859504132231405
2161.163330078125	0.2599766095891222	-9.772607562899518	-1.999220319637404	-0.7282872536806635	-0.7289124062125286	0.3649572521243164	0.2361396303901437	-0.395112016293279	0.6859504132231405
2165.069580078125	0.5522455504198998	-9.788107272030899	-1.741518347329989	-0.3622810739724808	-0.7399471462665556	-0.003776660722940747	0.2094455852156057	-0.3890020366598778	0.7004132231404959
2168.975830078125	0.3033387721690388	-9.575253796998677	-1.77795907230129	-0.3586303400650783	-0.7472851214204346	-0.3688500514631886	0.2094455852156057	-0.3890020366598778	0.7004132231404959
2172.882080078125	0.08042799877921929	-9.580661613728052	-2.014266625973976	0	0	0	0.2094455852156057	-0.3890020366598778	0.7004132231404959
2176.788330078125	0.06215177584951906	-9.66990425914199	-2.071725861650635	-3.718591414975016e-05	0.3718219555833518	0.003718591414975016	0.2094455852156057	-0.3890020366598778	0.7004132231404959
2180.694580078125	0.2355270846920565	-9.743846242616236	-1.85090282306855	0.003576362079102979	0.7363059360128246	-0.3576362079102978	0.2381930184804928	-0.3849287169042769	0.7004132231404959
2184.600830078125	0.241917256618674	-9.445113420359963	-1.730575220622467	0.003539176164953228	1.108127891596177	-0.3539176164953228	0.2381930184804928	-0.3849287169042769	0.7004132231404959
2188.507080078125	0.2174014878067823	-9.72304018560914	-1.913382926892742	0.007227095986505457	0.7289679608589457	-0.7227095986505457	0.2381930184804928	-0.3849287169042769	0.7004132231404959
2192.413330078125	0.09681074981014021	-9.702031190894722	-1.893691660338007	0.3658574360515838	1.47625308227938	-0.3538595471873571	0.2073921971252567	-0.3665987780040733	0.6818181818181819
2196.319580078125	0.009387709072498437	-9.490297974066561	-1.979590302416615	-0.3551283498142748	0.7326647257590937	-0.7190490765435364	0.2073921971252567	-0.3665987780040733	0.6818181818181819
2200.225830078125	-0.02490613473854553	-9.561386316898798	-1.836462175381816	-0.3551283498142748	0.7326647257590937	-0.7190490765435364	0.2073921971252567	-0.3665987780040733	0.6818181818181819
2204.132080078125	0.05728048225569993	-9.50814597740399	-2.242682741856664	-0.7175209815292047	1.108183446242593	-0.7116699630215522	0.2443531827515401	-0.3767820773930753	0.6921487603305785
2208.038330078125	0.007043147658474753	-9.82105604892376	-1.901438255282492	-0.3587418978075275	0.3681807453296208	-0.3576942772182636	0.2443531827515401	-0.3767820773930753	0.6921487603305785
2211.944580078125	0.03265430691909803	-9.852775107429492	-1.755143563969935	-0.7210601576941581	5.555464641699391e-05	-0.3577523465262293	0.2443531827515401	-0.3767820773930753	0.6921487603305785
2215.850830078125	0.1616887782019667	-9.401053961714698	-2.056292606732222	-1.438395209652614	-0.7508707770277486	-1.088015266622657	0.2443531827515401	-0.3767820773930753	0.6921487603305785
2219.757080078125	0.2667114075964421	-9.703763311543817	-1.890380253214736	-0.7247480775157102	0.3792154853836477	0.01103963562899358	0.2238193018480493	-0.3828920570264766	0.6797520661157025
2223.663330078125	0.3123361153148834	-9.682344656048187	-2.077870510496111	-0.3660433656223325	0.3828566956373787	0.3724525042622321	0.2238193018480493	-0.3828920570264766	0.6797520661157025
2227.569580078125	0.1260866170731073	-9.862565327146362	-1.869553902436909	-0.7210229717800084	-0.3717664009369348	-0.3614709379412043	0.2238193018480493	-0.3828920570264766	0.6797520661157025
2231.475830078125	0.09689592055777377	-9.688670319019653	-2.229864018592459	-0.7246737056874109	-0.3644284257830558	0.003602452799043552	0.2238193018480493	-0.3828920570264766	0.6859504132231405
2235.382080078125	0.028279054068441	-9.600856439184538	-1.9426351356147	-1.087029151488191	-0.3607316608829078	0.007262974906052836	0.2238193018480493	-0.3828920570264766	0.6859504132231405
2239.288330078125	-0.1356541310572766	-9.860528169041853	-1.811528964757449	-1.086954779659892	-1.104375572049612	-0.000174207923897194	0.2238193018480493	-0.3828920570264766	0.6859504132231405
2243.194580078125	-0.05182403408091695	-9.500089771019496	-1.939198863969435	-1.44558511972497	-1.851660693470046	-0.3690242593870858	0.2238193018480493	-0.3828920570264766	0.6859504132231405
2247.100830078125	-0.1482065642987885	-9.767920122456609	-2.059781190040385	-1.445436376068371	-3.338948515803453	-0.3838986250469859	0.215605749486653	-0.3788187372708757	0.6900826446280992
2251.007080078125	0.06215098723148541	-9.879904514128487	-2.071699574382847	-1.449049924061624	-3.703432496232926	-0.02254382572171302	0.215605749486653	-0.3788187372708757	0.6900826446280992
2254.913330078125	0.3247836623579207	-9.704986615837607	-1.826122078597353	-1.452700657969026	-3.696094521079047	0.3425295650185348	0.215605749486653	-0.3788187372708757	0.6900826446280992
2258.819580078125	0.2535619905034617	-9.91468162307055	-1.785399683448721	-1.449049924061624	-3.703432496232926	-0.02254382572171302	0.2238193018480493	-0.3788187372708757	0.6983471074380165
2262.725830078125	0.3646964096586783	-9.382081494210361	-2.156546988622607	-1.807754635955001	-3.707073706486657	-0.3839566943549516	0.2238193018480493	-0.3788187372708757	0.6983471074380165
2266.632080078125	0.5051279887637703	-10.00667528363305	-1.837599625459008	-1.445436376068371	-3.338948515803453	-0.3838986250469859	0.2238193018480493	-0.3788187372708757	0.6983471074380165
2270.538330078125	0.3898099509400722	-9.923961449196042	-1.993665031335738	-1.079504568188488	-2.606339344690777	-0.745195355064293	0.2217659137577002	-0.3747454175152749	0.6880165289256198
2274.444580078125	0.6384036478315764	-9.50691615386779	-1.946788261052547	-1.079616125930937	-1.490873477940721	-0.7340395808193679	0.2217659137577002	-0.3747454175152749	0.6880165289256198
2278.350830078125	0.3915685691550984	-9.623392829306518	-2.052285638503276	-0.3587418978075275	0.3681807453296208	-0.3576942772182636	0.2217659137577002	-0.3747454175152749	0.6880165289256198
2282.257080078125	0.3790650302316724	-9.844102306891761	-1.968834341055744	-1.434856033487661	0.3572571145684278	-1.441932883117979	0.2217659137577002	-0.3747454175152749	0.6880165289256198
2286.163330078125	0.2877052082700796	-9.953641982659342	-1.923506942335987	-0.3625041894573793	1.490984587233555	0.01853488776690934	0.2340862422997947	-0.3849287169042769	0.6983471074380165
2290.069580078125	0.1952649796023946	-9.763530989928558	-1.842165986746485	-0.7212460872649068	1.859165332563176	-0.3391593894513542	0.2340862422997947	-0.3849287169042769	0.6983471074380165
2293.975830078125	0.03612422626713174	-9.851653166840293	-1.870807542237725	-0.3552027216425743	1.476308636925797	-0.7116118937135864	0.2340862422997947	-0.3849287169042769	0.6983471074380165
2297.882080078125	0.03740021024556776	-10.07124059868727	-1.913340341518925	-0.00383666347815123	1.866447753070638	0.3836663478151229	0.2320328542094456	-0.3849287169042769	0.6818181818181819
2301.788330078125	0.4859219851724038	-9.686218558127589	-1.864066172413458	0.362243888058331	1.111769101849907	0.007495252137915762	0.2320328542094456	-0.3849287169042769	0.6818181818181819
2305.694580078125	-0.001488910847519929	-9.8138147478407	-1.617036305082669	-7.437182829950031e-05	0.7436439111667036	0.007437182829950031	0.2320328542094456	-0.3849287169042769	0.6818181818181819
2309.600830078125	-0.1582858913867927	-9.78117910488173	-1.723803620440243	-0.358667525979228	-0.3754631658370828	-0.3651314600482136	0.2320328542094456	-0.3849287169042769	0.6818181818181819
2313.507080078125	0.002246772777851815	-9.709273543468495	-2.074892425928394	-0.003650733907402479	0.007337975153878983	0.3650733907402479	0.2320328542094456	-0.3849287169042769	0.6818181818181819
2317.413330078125	-0.06387806072516584	-10.02065390630114	-1.870731309161139	0.3659318078798833	0.7326091711126765	-0.3612967300173071	0.2320328542094456	-0.3849287169042769	0.6818181818181819
2321.319580078125	0.08806339858096071	-9.691526167792157	-1.935446619365357	0.0001115577424492505	-1.115465866750055	-0.01115577424492505	0.2320328542094456	-0.3849287169042769	0.6818181818181819
2325.225830078125	0.01675103565263267	-10.05125049847232	-1.891701188421089	-0.003539176164953228	-1.108127891596177	0.3539176164953228	0.2094455852156057	-0.3686354378818737	0.7024793388429752
2329.132080078125	0.2885624360726507	-9.68336481233651	-1.952081202421688	-0.003501990250803478	-1.479949847179528	0.3501990250803478	0.2094455852156057	-0.3686354378818737	0.7024793388429752
2333.038330078125	0.2275304978309061	-9.813098472368008	-1.917683261030203	-0.3695081699589862	-1.468915107125501	0.7189329379276049	0.2094455852156057	-0.3686354378818737	0.7024793388429752
2336.944580078125	-0.002545659012602912	-9.880823096414076	-1.915144699579903	0.0001487436565990006	-1.487287822333407	-0.01487436565990006	0.2258726899383984	-0.3828920570264766	0.6942148760330579
2340.850830078125	0.378148656076578	-9.864398601201907	-1.938288535885932	-0.3621695162300315	-1.855413013016611	-0.0149324349678658	0.2258726899383984	-0.3828920570264766	0.6942148760330579
2344.757080078125	0.3700929228629043	-9.683669954940994	-2.003097428763476	0.0001115577424492505	-1.115465866750055	-0.01115577424492505	0.2258726899383984	-0.3828920570264766	0.6942148760330579
2348.663330078125	0.1780407731295755	-9.71243348335477	-1.934692437652515	0	0	0	0.2258726899383984	-0.3828920570264766	0.6942148760330579
2352.569580078125	0.2895836964262197	-9.733034604822191	-1.986123214207322	-0.3586303400650783	-0.7472851214204346	-0.3688500514631886	0.215605749486653	-0.3788187372708757	0.6900826446280992
2356.475830078125	0.07887994157917606	-9.811162152222733	-1.962664719305869	-0.7136843180510536	-0.7582643068280446	-1.095336310836675	0.215605749486653	-0.3788187372708757	0.6900826446280992
2360.382080078125	0.3374315183815035	-9.72089714238998	-2.247717279383448	-0.3549796061576758	-0.7546230965743135	-0.7339234422034364	0.215605749486653	-0.3788187372708757	0.6900826446280992
2364.288330078125	0.2077669412897533	-9.962822022316312	-1.925564709658442	0.003650733907402479	-0.007337975153878983	-0.3650733907402479	0.2073921971252567	-0.395112016293279	0.6921487603305785
2368.194580078125	0.2237750987546933	-9.834312718069317	-1.792503291823109	0.007301467814804958	-0.01467595030775797	-0.7301467814804957	0.2073921971252567	-0.395112016293279	0.6921487603305785
2372.100830078125	0.3168477990853609	-9.604219211629069	-1.894926636178693	-0.3550167920718256	-0.3828011409909618	-0.7302048507884614	0.2073921971252567	-0.395112016293279	0.6921487603305785
2376.007080078125	-0.07391559105738697	-9.570566041108554	-1.869480298087102	0.007301467814804958	-0.01467595030775797	-0.7301467814804957	0.2073921971252567	-0.395112016293279	0.6921487603305785
2379.913330078125	0.2694755138043644	-9.652869583869922	-1.982517126812146	0.3587418978075275	-0.3681807453296208	0.3576942772182636	0.2073921971252567	-0.395112016293279	0.6921487603305785
2383.819580078125	0.08836859375998095	-9.75476082135094	-1.612286458666031	-0.365820250137434	-1.848075037862732	0.3501409557723821	0.2073921971252567	-0.395112016293279	0.6921487603305785
2387.725830078125	0.2952767300110959	-9.741193857296414	-2.175891000369862	-0.3620579584875823	-2.970878879766667	-0.02608820921279084	0.2073921971252567	-0.395112016293279	0.6921487603305785
2391.632080078125	0.3675086215666529	-9.854505545693447	-1.91695405222176	-0.3657458783091345	-2.591718949029436	0.342703772942432	0.2176591375770021	-0.3991853360488798	0.6942148760330579
2395.538330078125	0.2969186327571428	-9.853996308741856	-1.897287758571424	-0.007115538244056207	-1.844433827609001	0.7115538244056206	0.2176591375770021	-0.3991853360488798	0.6942148760330579
2399.444580078125	0.440338285591712	-9.454290620992014	-2.011276186390398	-0.3658574360515838	-1.47625308227938	0.3538595471873571	0.2176591375770021	-0.3991853360488798	0.6942148760330579
2403.350830078125	0.3139275465067771	-9.901830093296143	-2.130918216892566	-0.3622810739724808	-0.7399471462665556	-0.003776660722940747	0.2197125256673511	-0.3686354378818737	0.6818181818181819
2407.257080078125	0.4106996540332687	-9.893873778529244	-2.023321801108954	-0.003725105735701979	0.7509818863205826	0.3725105735701979	0.2197125256673511	-0.3686354378818737	0.6818181818181819
2411.163330078125	0.4211748673741623	-9.793820126215687	-2.039162245805406	-0.00387384939230098	2.23826970865399	0.387384939230098	0.2197125256673511	-0.3686354378818737	0.6818181818181819
2415.069580078125	0.2756543360979653	-9.634205097994991	-1.855144536598843	0.003464804336653728	1.85177180276288	-0.3464804336653728	0.2197125256673511	-0.3686354378818737	0.6818181818181819
2418.975830078125	0.1226592830988903	-9.190340165131358	-2.088642769963011	-0.3589278273782763	2.22729052324638	-0.3391013201433885	0.2053388090349076	-0.3767820773930753	0.7024793388429752
2422.882080078125	0.1672816572965701	-9.412578930807442	-1.909388576552336	-0.3552770934708738	2.219952548092501	-0.7041747108836364	0.2053388090349076	-0.3767820773930753	0.7024793388429752
2426.788330078125	-0.09419017208434113	-9.800454822307271	-1.860327597188629	-0.7139446194501018	1.844489382255418	-1.06930617093185	0.2053388090349076	-0.3767820773930753	0.7024793388429752
2430.694580078125	0.3102328710191548	-9.75302470503714	-2.007762367305158	-0.7139074335359521	1.472667426672066	-1.073024762346825	0.2279260780287475	-0.3706720977596741	0.6756198347107438
2434.600830078125	0.009641644079331808	-9.87021586841435	-1.988054802644394	-1.068849853779478	0.3462223745144009	-1.810666795965236	0.2279260780287475	-0.3706720977596741	0.6756198347107438
2438.507080078125	-0.05449823783300383	-9.610954430232672	-1.850058738899873	-0.3551283498142748	0.7326647257590937	-0.7190490765435364	0.2279260780287475	-0.3706720977596741	0.6756198347107438
2442.413330078125	-0.369814540697028	-9.519573368158706	-1.672848643432402	-0.3550911639001251	0.3608427701757418	-0.7227676679585114	0.2279260780287475	-0.3706720977596741	0.6756198347107438
2446.319580078125	-0.2135341049697921	-9.769042693940234	-1.882196501006934	-0.7209857858658586	-0.7435883565202867	-0.3651895293561793	0.2279260780287475	-0.3706720977596741	0.6756198347107438
2450.225830078125	0.02252529689497421	-9.762716820670626	-1.750843229832474	-0.7282500677665138	-1.10073436179588	0.3612386607093414	0.2279260780287475	-0.3706720977596741	0.6756198347107438
2454.132080078125	-0.08893324427207008	-9.938755082314637	-2.035558524264331	-0.3584444104943295	-2.606394899337194	-0.3874430085380637	0.2279260780287475	-0.3706720977596741	0.6756198347107438
2458.038330078125	-0.1046346293219226	-9.71049853014742	-1.845512355935915	-0.724339032460063	-3.710826026033222	-0.02986486993573159	0.2320328542094456	-0.3767820773930753	0.6714876033057852
2461.944580078125	0.06709956539260166	-9.461637807189726	-1.903318846420055	-0.7280269522816153	-3.331666095295991	0.3389271122194913	0.2320328542094456	-0.3767820773930753	0.6714876033057852
2465.850830078125	0.01437808398939781	-9.942017752843428	-1.812602799646594	-1.448975552233324	-4.44707640739963	-0.02998100855166305	0.2320328542094456	-0.3767820773930753	0.6714876033057852
2469.757080078125	0.1653534862043105	-9.529869039460607	-2.178449540143681	-0.728064138195765	-2.959844139712639	0.3426457036344663	0.2361396303901437	-0.3686354378818737	0.6900826446280992
2473.663330078125	0.2520155105394857	-9.725181651592234	-1.73385035131619	-0.3730845320380892	-2.205221043138326	1.076569145837903	0.2361396303901437	-0.3686354378818737	0.6900826446280992
2477.569580078125	0.4642965014538175	-9.646544131196599	-1.809883381793912	-1.086768850089143	-2.96348534996637	-0.01876716499877227	0.2361396303901437	-0.3686354378818737	0.6900826446280992
2481.475830078125	0.3286439476326082	-9.753738456932123	-1.95479825442027	-1.086843221917442	-2.219841438799667	-0.01132998216882224	0.2361396303901437	-0.3686354378818737	0.6900826446280992
2485.382080078125	0.2612084309576742	-9.752209273990353	-2.040281031922469	-0.7245621479449615	-1.479894292533111	-0.007553321445881495	0.2238193018480493	-0.3869653767820774	0.6880165289256198
2489.288330078125	0.3610608805235793	-9.483256981964042	-2.035362684119309	-0.7209857858658586	-0.7435883565202867	-0.3651895293561793	0.2238193018480493	-0.3869653767820774	0.6880165289256198
2493.194580078125	0.4165030941428551	-9.835330666227144	-1.8834364714285	-1.072426215858581	-0.3900835614984237	-1.453030588054939	0.2238193018480493	-0.3869653767820774	0.6880165289256198
2497.100830078125	0.2133755927450295	-9.774341891679109	-1.779186424834318	-1.434856033487661	0.3572571145684278	-1.441932883117979	0.2217659137577002	-0.3727087576374745	0.6900826446280992
2501.007080078125	0.3533994563267276	-9.635734175787691	-1.779981877557587	-0.7175581674433545	1.480005401825945	-0.7079513716065771	0.2217659137577002	-0.3727087576374745	0.6900826446280992
2504.913330078125	0.1029596046184627	-9.663376394506697	-1.765320153948755	-0.7139446194501018	1.844489382255418	-1.06930617093185	0.2217659137577002	-0.3727087576374745	0.6900826446280992
2508.819580078125	0.1942736867341041	-9.733851507955972	-1.809122891136801	-0.7102195137143998	1.093507495934836	-1.441816744502048	0.2217659137577002	-0.3727087576374745	0.6900826446280992
2512.725830078125	-0.2262174488048889	-9.869810308446915	-1.792751706503707	-0.7137958757935028	0.3572015599220108	-1.08418053659175	0.2217659137577002	-0.3727087576374745	0.6900826446280992
2516.632080078125	0.04597879721554744	-9.688466855566974	-2.199293240518248	-0.3623554458007803	0.003696764900147988	0.003660522107009284	0.2217659137577002	-0.3727087576374745	0.6900826446280992
2520.538330078125	-0.06545450817442024	-9.81116362430973	-1.818183060852659	-0.7209857858658586	-0.7435883565202867	-0.3651895293561793	0.2217659137577002	-0.3727087576374745	0.6900826446280992
2524.444580078125	-0.1411523759878427	-9.982305934902737	-1.628254133738578	-0.7245621479449615	-1.479894292533111	-0.007553321445881495	0.2279260780287475	-0.3828920570264766	0.6797520661157025
2528.350830078125	0.1816313510367567	-9.581272529831448	-2.05437836789189	-1.08322967392419	-1.855357458370194	-0.3726847814940951	0.2279260780287475	-0.3828920570264766	0.6797520661157025
2532.257080078125	0.1655632586012598	-9.66980121305226	-2.185441953375324	-1.090493955824845	-2.212503463645788	0.3537434085714256	0.2279260780287475	-0.3828920570264766	0.6797520661157025
2536.163330078125	0.2985108525670701	-9.863481491003313	-1.950361752235666	-0.01449137788716067	-1.08611396613454	1.449137788716066	0.2340862422997947	-0.3727087576374745	0.6900826446280992
2540.069580078125	0.2374047842301629	-9.73323911976558	-1.913492807672097	-0.3657830642232843	-2.219896993446084	0.346422364357407	0.2340862422997947	-0.3727087576374745	0.6900826446280992
2543.975830078125	0.3430243974761069	-9.732422111482727	-2.100813249203561	-0.3694709840448365	-1.840737062708853	0.7152143465126299	0.2340862422997947	-0.3727087576374745	0.6900826446280992
2547.882080078125	0.397852277647174	-9.674694430227415	-1.928409254905796	-0.7281756959382143	-1.844378272962584	0.3538014778793914	0.2340862422997947	-0.3727087576374745	0.6900826446280992
2551.788330078125	0.4254460226443783	-9.765772452678318	-1.848200754812607	-0.7282500677665138	-1.10073436179588	0.3612386607093414	0.2135523613963039	-0.3625254582484725	0.6921487603305785
2555.694580078125	0.4119921989904113	-9.703455855659769	-2.066406633013707	-0.7247108916015605	0.007393529800295976	0.007321044214018567	0.2135523613963039	-0.3625254582484725	0.6921487603305785
2559.600830078125	0.4360064067329054	-9.652357928489694	-2.200213557763511	-1.438469581480914	-0.007226865861044995	-1.080578083792706	0.2135523613963039	-0.3625254582484725	0.6921487603305785
2563.507080078125	0.3157153435890481	-9.831252038906207	-2.190511452968266	-0.7211345295224576	0.7436994658131205	-0.3503151636962792	0.2197125256673511	-0.3767820773930753	0.7045454545454546
2567.413330078125	0.358611432911081	-9.744048970025418	-1.953714430369365	0.003501990250803478	1.479949847179528	-0.3501990250803478	0.2197125256673511	-0.3767820773930753	0.7045454545454546
2571.319580078125	0.1249904380063421	-9.762919758377951	-1.833014600211402	-0.7138330617076526	0.7290235155053626	-1.080461945176775	0.2197125256673511	-0.3767820773930753	0.7045454545454546
2575.225830078125	0.2465432900040299	-9.583617669565363	-1.884776333467661	-0.3552027216425743	1.476308636925797	-0.7116118937135864	0.2073921971252567	-0.3971486761710794	0.6983471074380165
2579.132080078125	-0.06483859749014426	-9.800964479855148	-1.838713416995192	-0.3551655357284246	1.104486681342445	-0.7153304851285613	0.2073921971252567	-0.3971486761710794	0.6983471074380165
2583.038330078125	0.02076746729798169	-9.853285185573652	-1.692248909932723	-0.358816269635827	1.111824656496325	-0.3502570943883135	0.2073921971252567	-0.3971486761710794	0.6983471074380165
2586.944580078125	0.1253358527050782	-9.782808074292024	-1.844528423502605	-0.7173722378726058	-0.3791043760908138	-0.7265443286814521	0.2073921971252567	-0.3971486761710794	0.6983471074380165
2590.850830078125	-0.1997648341023674	-9.831257296359766	-1.674505529921088	-1.083304045752489	-1.11171354720349	-0.3652475986641451	0.2197125256673511	-0.3828920570264766	0.6962809917355373
2594.757080078125	0.05555735185218774	-9.69203645623446	-1.851911728406258	-0.3658574360515838	-1.47625308227938	0.3538595471873571	0.2197125256673511	-0.3828920570264766	0.6962809917355373
2598.663330078125	0.007823879511782336	-9.92080361229119	-1.927462650392745	-0.3695081699589862	-1.468915107125501	0.7189329379276049	0.2197125256673511	-0.3828920570264766	0.6962809917355373
2602.569580078125	-0.02131634544939795	-9.640225618361972	-1.956121818353402	-0.003464804336653728	-1.85177180276288	0.3464804336653728	0.188911704312115	-0.3788187372708757	0.7004132231404959
2606.475830078125	0.1235031043948895	-9.82340066291232	-1.783436813162981	-0.7317520580173174	-2.580684208975409	0.7114376857896891	0.188911704312115	-0.3788187372708757	0.7004132231404959
2610.382080078125	0.1545809638647331	-10.13335215501707	-1.819365462157769	-0.7354399778388695	-2.201524278238178	1.080229667944912	0.188911704312115	-0.3788187372708757	0.7004132231404959
2614.288330078125	0.6964908863356942	-9.518134613418125	-1.88302954452314	-0.01072908623730894	-2.208917808038474	1.072908623730894	0.188911704312115	-0.3788187372708757	0.7004132231404959
2618.194580078125	0.2934794695124212	-9.66510830485765	-1.782648983747371	0.3552770934708738	-2.219952548092501	0.7041747108836364	0.188911704312115	-0.3788187372708757	0.7004132231404959
2622.100830078125	0.454257393885529	-9.616456775977012	-1.808579796184298	-0.3621695162300315	-1.855413013016611	-0.0149324349678658	0.188911704312115	-0.3788187372708757	0.7004132231404959
2626.007080078125	0.6115748623270069	-9.715590794514267	-2.052495410900226	0.3624298176290798	-0.7473406760668516	-0.01109770493695932	0.188911704312115	-0.3788187372708757	0.7004132231404959
2629.913330078125	0.5758835873603456	-9.907130973420154	-1.862786245344853	-0.0001115577424492505	1.115465866750055	0.01115577424492505	0.2073921971252567	-0.3890020366598778	0.7086776859504132
2633.819580078125	0.4564048007911417	-9.785762447744197	-1.880160026371387	-0.7176697251858037	2.595471268576001	-0.6967955973616521	0.2073921971252567	-0.3890020366598778	0.7086776859504132
2637.725830078125	0.3464233412011126	-9.96465645301164	-1.880778040037086	-0.7104054432851487	2.952617273851594	-1.423223787427173	0.2073921971252567	-0.3890020366598778	0.7086776859504132
2641.632080078125	0.636224696204618	-9.737620681560507	-1.874156540153933	0.01054315666656019	4.068027585955233	-1.054315666656019	0.215605749486653	-0.395112016293279	0.6900826446280992
2645.538330078125	0.1484045074252331	-9.522015875932508	-1.946816914174436	0.7352912341822705	3.688812100571585	-1.065355302285012	0.215605749486653	-0.395112016293279	0.6900826446280992
2649.444580078125	-0.1138930050369034	-9.780158738295263	-1.870233165436554	0.01065471440900943	2.952561719205177	-1.065471440900943	0.215605749486653	-0.395112016293279	0.6900826446280992
2653.350830078125	0.07582562393487277	-9.808816381594392	-2.194187464495759	0.3730845320380892	2.205221043138326	-1.076569145837903	0.215605749486653	-0.395112016293279	0.6900826446280992
2657.257080078125	0.138063359150059	-9.922026180541479	-1.935445305001968	0.7207998562951099	2.602698134437046	0.3837824864310544	0.2443531827515401	-0.3869653767820774	0.7004132231404959
2661.163330078125	-0.123947096347831	-9.740076227819133	-1.868430121738966	0.35837003866603	3.350038810503897	0.3948801913680137	0.2443531827515401	-0.3869653767820774	0.7004132231404959
2665.069580078125	-0.3642177185122563	-9.814430395652296	-2.192742716258123	-7.437182829950031e-05	0.7436439111667036	0.007437182829950031	0.2443531827515401	-0.3869653767820774	0.7004132231404959
2668.975830078125	0.04268947139721822	-9.599530404248235	-2.089649046573941	0.7174466097009052	-0.3645395350758898	0.7191071458515021	0.2238193018480493	-0.3808553971486761	0.7024793388429752
2672.882080078125	0.1829373025004712	-9.820850272191514	-2.09791008334904	0.3551283498142748	-0.7326647257590937	0.7190490765435364	0.2238193018480493	-0.3808553971486761	0.7024793388429752
2676.788330078125	-0.1299003738838098	-9.698667787555765	-2.003320870539675	-0.007264281900655208	-0.3571460052755938	0.7264281900655207	0.2238193018480493	-0.3808553971486761	0.7024793388429752
2680.694580078125	0.2312811651989171	-9.718552423252349	-2.376038839963902	-0.3696197277014355	-0.3534492403754458	0.73008871217253	0.2238193018480493	-0.3808553971486761	0.7024793388429752
2684.600830078125	0.315369928890312	-9.811363722992134	-2.178997629677063	-0.3659318078798833	-0.7326091711126765	0.3612967300173071	0.2238193018480493	-0.3808553971486761	0.7024793388429752
2688.507080078125	0.2911609324935078	-9.732524631827101	-2.03869774978359	-0.007301467814804958	0.01467595030775797	0.7301467814804957	0.2238193018480493	-0.3808553971486761	0.7024793388429752
2692.413330078125	0.353409708361165	-9.57239752762989	-2.113656945372166	-0.003613547993252729	-0.3644839804294728	0.3613547993252729	0.2238193018480493	-0.3808553971486761	0.7024793388429752
2696.319580078125	0.1383638226208774	-9.911929030685917	-1.945460754029247	-0.7247108916015605	0.007393529800295976	0.007321044214018567	0.2197125256673511	-0.3767820773930753	0.7004132231404959
2700.225830078125	0.5830797269173473	-9.654804221630057	-2.102657563911577	-0.7174094237867555	-0.007282420507461989	-0.7228257372664771	0.2197125256673511	-0.3767820773930753	0.7004132231404959
2704.132080078125	0.2832100854783087	-9.621762072362014	-2.107002849276955	-1.076114135680133	-0.01092363076119298	-1.084238605899716	0.2197125256673511	-0.3767820773930753	0.7004132231404959
2708.038330078125	0.337286412663313	-9.694277393238862	-1.909547088777098	-0.717483795615055	0.7363614906592416	-0.7153885544365272	0.2299794661190965	-0.3665987780040733	0.7004132231404959
2711.944580078125	0.3431048365155386	-9.64572943619331	-1.770161217184618	-1.076188507508433	0.7327202804055106	-1.076801423069766	0.2299794661190965	-0.3665987780040733	0.7004132231404959
2715.850830078125	-0.004193082084885282	-9.90468909654078	-1.526897263837158	-1.072500587686881	0.3535603496682799	-1.445593405224989	0.2299794661190965	-0.3665987780040733	0.7004132231404959
2719.757080078125	0.1148913954674967	-9.692851782132177	-1.82971318224989	-0.717483795615055	0.7363614906592416	-0.7153885544365272	0.2299794661190965	-0.3665987780040733	0.7004132231404959
2723.663330078125	-0.005535309978147405	-9.991789750226269	-1.815489667395087	0.003539176164953228	1.108127891596177	-0.3539176164953228	0.2217659137577002	-0.3645621181262729	0.6942148760330579
2727.569580078125	0.2799357434026187	-9.54282077629982	-1.997858113420623	-1.079802055501686	0.3682362999760378	-0.7154466237444929	0.2217659137577002	-0.3645621181262729	0.6942148760330579
2731.475830078125	-0.02779089950561537	-9.742319057506817	-1.740303349812821	-0.3587047118933778	-0.003641210253730994	-0.3614128686332386	0.2217659137577002	-0.3645621181262729	0.6942148760330579
2735.382080078125	0.1578316473994137	-9.845634434007522	-1.594388246647125	-0.007301467814804958	0.01467595030775797	0.7301467814804957	0.215605749486653	-0.3788187372708757	0.6921487603305785
2739.288330078125	0.08576615424895567	-9.422268943459505	-1.858871808298522	-0.3696197277014355	-0.3534492403754458	0.73008871217253	0.215605749486653	-0.3788187372708757	0.6921487603305785
2743.194580078125	-0.1282434873951237	-9.821465394257757	-1.725217086829211	-0.3696197277014355	-0.3534492403754458	0.73008871217253	0.215605749486653	-0.3788187372708757	0.6921487603305785
2747.100830078125	0.1055872799065645	-9.942526779496877	-1.852909330218818	-0.728212881852364	-1.472556317379232	0.3575200692943664	0.215605749486653	-0.3788187372708757	0.6921487603305785
2751.007080078125	0.4775042762812875	-9.895606950669048	-1.916809209376248	-0.01084064397975819	-1.093451941288418	1.084064397975818	0.215605749486653	-0.3788187372708757	0.6921487603305785
2754.913330078125	0.1550785818439625	-9.623191258537119	-1.835952728132082	0.7102195137143998	-1.093507495934836	1.441816744502048	0.215605749486653	-0.3788187372708757	0.6921487603305785
2758.819580078125	0.3604291974786304	-9.693461226148576	-2.014306582621014	-0.3622067021441813	-1.483591057433259	-0.01121384355289078	0.215605749486653	-0.3788187372708757	0.6921487603305785
2762.725830078125	0.2931932011662084	-9.895200864956259	-1.773106705540278	-0.3659318078798833	-0.7326091711126765	0.3612967300173071	0.2053388090349076	-0.3910386965376782	0.6797520661157025
2766.632080078125	0.3539956515601625	-9.542208072662214	-2.133188385338749	-0.003576362079102979	-0.7363059360128246	0.3576362079102978	0.2053388090349076	-0.3910386965376782	0.6797520661157025
2770.538330078125	0.4228885343612707	-9.463266040556523	-2.096284478709022	0	0	0	0.2053388090349076	-0.3910386965376782	0.6797520661157025
2774.444580078125	0.5514088266862034	-9.931711146038127	-2.380294222873445	-0.3624298176290798	0.7473406760668516	0.01109770493695932	0.2217659137577002	-0.3808553971486761	0.7086776859504132
2778.350830078125	0.3384732828039473	-9.643893638560057	-1.94910942679824	-0.7137586898793531	-0.01462039566134097	-1.087899128006725	0.2217659137577002	-0.3808553971486761	0.7086776859504132
2782.257080078125	0.3231867108397915	-9.622169630161801	-2.106223694659715	0.01084064397975819	1.093451941288418	-1.084064397975818	0.2217659137577002	-0.3808553971486761	0.7086776859504132
2786.163330078125	0.07462455866963293	-9.639204726030153	-2.154151955654431	-0.3551655357284246	1.104486681342445	-0.7153304851285613	0.2217659137577002	-0.3808553971486761	0.7086776859504132
2790.069580078125	0.04648982170134877	-9.608301624316564	-2.216327390044959	-0.3551655357284246	1.104486681342445	-0.7153304851285613	0.2197125256673511	-0.3849287169042769	0.6880165289256198
2793.975830078125	0.139760465158461	-10.00147744959876	-1.992015505282032	-0.7174466097009052	0.3645395350758898	-0.7191071458515021	0.2197125256673511	-0.3849287169042769	0.6880165289256198
2797.882080078125	0.3598590266403058	-9.523645581386301	-1.995300888010193	-0.7210229717800084	-0.3717664009369348	-0.3614709379412043	0.2197125256673511	-0.3849287169042769	0.6880165289256198
2801.788330078125	0.1273192270596929	-9.6321667832507	-1.910640901989762	-0.7210601576941581	5.555464641699391e-05	-0.3577523465262293	0.2340862422997947	-0.3645621181262729	0.6921487603305785
2805.694580078125	-0.1438754740580155	-9.779853069945423	-1.870817531399484	-0.7209485999517089	-1.115410312103638	-0.3689081207711543	0.2340862422997947	-0.3645621181262729	0.6921487603305785
2809.600830078125	0.1848907093698074	-9.650218670637095	-2.163023645660248	-1.800601911796796	-2.234461834461008	-1.099229110175547	0.2340862422997947	-0.3645621181262729	0.6921487603305785
2813.507080078125	0.07778376251241087	-9.711516583454319	-1.926125417080363	-0.7245249620308118	-1.851716248116463	-0.01127191286085651	0.2340862422997947	-0.3645621181262729	0.6921487603305785
2817.413330078125	0.2552606737479309	-9.574132382154836	-1.842022458264362	-0.3658946219657335	-1.104431126696028	0.3575781386023321	0.2340862422997947	-0.3645621181262729	0.6921487603305785
2821.319580078125	0.2782828000041008	-9.703355227998674	-1.942760000136694	-0.3622810739724808	-0.7399471462665556	-0.003776660722940747	0.2340862422997947	-0.3645621181262729	0.6921487603305785
2825.225830078125	0.0551212460795826	-9.822177463767602	-1.83737486931942	-0.7209857858658586	-0.7435883565202867	-0.3651895293561793	0.2340862422997947	-0.3645621181262729	0.6921487603305785
2829.132080078125	0.4865473592730835	-9.822683020501701	-2.218245309102781	-0.003650733907402479	0.007337975153878983	0.3650733907402479	0.2361396303901437	-0.3767820773930753	0.6880165289256198
2833.038330078125	0.2583386499332435	-9.94313716985492	-1.944621664441449	0.3623554458007803	-0.003696764900147988	-0.003660522107009284	0.2361396303901437	-0.3767820773930753	0.6880165289256198
2836.944580078125	-0.05019790369554299	-9.812897322194893	-1.660069876815234	3.718591414975016e-05	-0.3718219555833518	-0.003718591414975016	0.2361396303901437	-0.3767820773930753	0.6880165289256198
2840.850830078125	0.227696896236005	-9.503044670217026	-1.923229874533499	7.437182829950031e-05	-0.7436439111667036	-0.007437182829950031	0.2258726899383984	-0.3890020366598778	0.6859504132231405
2844.757080078125	0.1199535346254577	-9.701215023804435	-1.998451154181923	-0.003613547993252729	-0.3644839804294728	0.3613547993252729	0.2258726899383984	-0.3890020366598778	0.6859504132231405
2848.663330078125	0.3216386536397483	-9.852670168656481	-2.054621787991608	0.7210601576941581	-5.555464641699391e-05	0.3577523465262293	0.2258726899383984	-0.3890020366598778	0.6859504132231405
2852.569580078125	0.2500573719619477	-9.822481449732303	-2.001912398731587	-0.3587047118933778	-0.003641210253730994	-0.3614128686332386	0.2258726899383984	-0.3890020366598778	0.6859504132231405
2856.475830078125	0.1762379923046652	-9.773016382488159	-1.874599743488841	-0.36239263171493	0.3755187204834998	0.007379113521984299	0.2484599589322382	-0.3890020366598778	0.6900826446280992
2860.382080078125	0.2565823975723183	-9.61370502478495	-1.886079919077275	0.3622810739724808	0.7399471462665556	0.003776660722940747	0.2484599589322382	-0.3890020366598778	0.6900826446280992
2864.288330078125	0.07620652644512282	-9.712026556449409	-1.873550881504094	-0.3623554458007803	0.003696764900147988	0.003660522107009284	0.2484599589322382	-0.3890020366598778	0.6900826446280992
2868.194580078125	-0.01900332875672003	-9.709477742964673	-2.033222374775999	-0.7210601576941581	5.555464641699391e-05	-0.3577523465262293	0.2197125256673511	-0.3686354378818737	0.6962809917355373
2872.100830078125	0.2742821407194247	-9.701315441167386	-2.142738023980823	-0.7209857858658586	-0.7435883565202867	-0.3651895293561793	0.2197125256673511	-0.3686354378818737	0.6962809917355373
2876.007080078125	0.03725116143720904	-9.761288791135303	-1.908372047906968	-0.7245993338591113	-1.108072336949759	-0.003834730030906479	0.2197125256673511	-0.3686354378818737	0.6962809917355373
2879.913330078125	0.07836970571140839	-9.681327128486643	-1.945656857046946	-0.003539176164953228	-1.108127891596177	0.3539176164953228	0.2320328542094456	-0.3849287169042769	0.6983471074380165
2883.819580078125	0.1545975248434396	-9.723346800300622	-1.81991749478132	-0.3622067021441813	-1.483591057433259	-0.01121384355289078	0.2320328542094456	-0.3849287169042769	0.6983471074380165
2887.725830078125	0.1749020733556723	-9.513448329614999	-1.830069111855742	-0.3621695162300315	-1.855413013016611	-0.0149324349678658	0.2320328542094456	-0.3849287169042769	0.6983471074380165
2891.632080078125	0.1275289994566422	-9.772098956842353	-1.917633315221406	-0.7245621479449615	-1.479894292533111	-0.007553321445881495	0.2320328542094456	-0.3849287169042769	0.6983471074380165
2895.538330078125	0.1159568184309498	-9.982507295373994	-1.865227281031659	-0.3658946219657335	-1.104431126696028	0.3575781386023321	0.2197125256673511	-0.3828920570264766	0.6735537190082644
2899.444580078125	0.3745147041775464	-9.545573578982594	-1.81715680591821	-0.724636519773261	-0.7362503813664076	-0.0001161386159314638	0.2197125256673511	-0.3828920570264766	0.6735537190082644
2903.350830078125	0.2256228308075212	-9.80371528470557	-1.854094360250707	-0.7209114140375591	-1.48723226768699	-0.3726267121861294	0.2197125256673511	-0.3828920570264766	0.6735537190082644
2907.257080078125	0.09941003484903091	-9.541190755398814	-1.980334494967697	-0.362243888058331	-1.111769101849907	-0.007495252137915762	0.2238193018480493	-0.3890020366598778	0.6859504132231405
2911.163330078125	0.1270936823020707	-9.692239709388998	-1.903122743402356	-0.003650733907402479	0.007337975153878983	0.3650733907402479	0.2238193018480493	-0.3890020366598778	0.6859504132231405
2915.069580078125	0.0724960785968277	-9.763226267920359	-1.749869286560923	-0.36239263171493	0.3755187204834998	0.007379113521984299	0.2238193018480493	-0.3890020366598778	0.6859504132231405
2918.975830078125	0.1432666609360423	-9.673677112964015	-1.775555364534743	-0.7210601576941581	5.555464641699391e-05	-0.3577523465262293	0.2238193018480493	-0.3890020366598778	0.6859504132231405
2922.882080078125	0.1463454257393886	-9.832681645677598	-1.878180857979618	-0.003687919821552229	0.3791599307372308	0.3687919821552229	0.2258726899383984	-0.3890020366598778	0.7004132231404959
2926.788330078125	0.310283342573308	-9.646341719234631	-1.676111419110265	0.7210601576941581	-5.555464641699391e-05	0.3577523465262293	0.2258726899383984	-0.3890020366598778	0.7004132231404959
2930.694580078125	0.1658542586556744	-9.513040456367998	-1.861808621855813	-7.437182829950031e-05	0.7436439111667036	0.007437182829950031	0.2258726899383984	-0.3890020366598778	0.7004132231404959
2934.600830078125	0.1970228091993871	-9.672962625025532	-1.900760306646236	-1.083452789409088	0.3755742751299168	-0.350373233004245	0.2443531827515401	-0.3890020366598778	0.6776859504132231
2938.507080078125	0.2897792736985634	-9.652971368170798	-1.992642456618779	-1.079839241415835	0.7400582555593896	-0.7117280323295179	0.2443531827515401	-0.3890020366598778	0.6776859504132231
2942.413330078125	0.3972963019334549	-9.724874195708182	-1.909876731115161	-0.3588534555499768	1.483646612079676	-0.3465385029733385	0.2443531827515401	-0.3890020366598778	0.6776859504132231
2946.319580078125	0.3768876558407813	-9.654806324611481	-1.896255194692706	-0.358816269635827	1.111824656496325	-0.3502570943883135	0.2217659137577002	-0.3910386965376782	0.6838842975206612
2950.225830078125	0.1561597771680884	-9.712841672048985	-1.871992572269614	-0.3551655357284246	1.104486681342445	-0.7153304851285613	0.2217659137577002	-0.3910386965376782	0.6838842975206612
2954.132080078125	0.02405285002614268	-9.658889578491547	-2.135095000871423	-0.0002231154848985009	2.230931733500111	0.02231154848985009	0.2217659137577002	-0.3910386965376782	0.6838842975206612
2958.038330078125	0.2620451546913704	-9.608605399983123	-2.401505156379013	0.003427618422503978	2.223593758346232	-0.3427618422503977	0.2217659137577002	-0.3910386965376782	0.6838842975206612
2961.944580078125	0.2291526851261119	-9.842573965142559	-1.971756170870395	-0.362541375371529	1.862806542816907	0.02225347918188436	0.2299794661190965	-0.3869653767820774	0.6694214876033058
2965.850830078125	0.1083064348865691	-9.861647586053342	-1.943547829552304	0.003576362079102979	0.7363059360128246	-0.3576362079102978	0.2299794661190965	-0.3869653767820774	0.6694214876033058
2969.757080078125	0.1198036971990653	-9.601263471238969	-1.993456573302178	-0.3623554458007803	0.003696764900147988	0.003660522107009284	0.2299794661190965	-0.3869653767820774	0.6694214876033058
2973.663330078125	-0.006516350812000579	-9.898773620095881	-2.116121639599981	-0.007301467814804958	0.01467595030775797	0.7301467814804957	0.2279260780287475	-0.3767820773930753	0.6942148760330579
2977.569580078125	0.2935946077453332	-9.671737743495678	-2.119820258177772	-1.086991965574041	-0.7325536164662596	0.003544383491077821	0.2279260780287475	-0.3767820773930753	0.6942148760330579
2981.475830078125	-0.08678426013039012	-9.688060244108827	-2.107191328986997	-1.086991965574041	-0.7325536164662596	0.003544383491077821	0.2279260780287475	-0.3767820773930753	0.6942148760330579
2985.382080078125	0.2728350266276879	-9.718450008057049	-2.42783422092293	-1.083341231666639	-0.7398915916201386	-0.36152900724917	0.2279260780287475	-0.3767820773930753	0.6942148760330579
2989.288330078125	0.3829402992489991	-9.902849303242824	-2.098009974966635	-0.3550167920718256	-0.3828011409909618	-0.7302048507884614	0.2279260780287475	-0.3767820773930753	0.6942148760330579
2993.194580078125	0.1638850794256653	-9.883677157652368	-1.796169314188842	-1.079764869587536	-0.003585655607314001	-0.7191652151594679	0.2279260780287475	-0.3767820773930753	0.6942148760330579
2997.100830078125	0.2227940579208401	-9.74129658793893	-2.093135264028003	-1.079653311845087	-1.11905152235737	-0.7303209894043929	0.2279260780287475	-0.3767820773930753	0.6942148760330579
3001.007080078125	-0.1079752153124387	-9.938245319617687	-2.067492822918712	-0.7245993338591113	-1.108072336949759	-0.003834730030906479	0.2238193018480493	-0.3706720977596741	0.6962809917355373
3004.913330078125	0.1350744968025482	-9.822992579367176	-1.835816560084939	1.090828629052193	-1.133894136604378	-0.3872107313062008	0.2238193018480493	-0.3706720977596741	0.6962809917355373
3008.819580078125	0.04457190264352651	-9.662255084811926	-1.819063421450884	-1.08322967392419	-1.855357458370194	-0.3726847814940951	0.2238193018480493	-0.3706720977596741	0.6962809917355373
3012.725830078125	0.02204423989445136	-9.862872362434127	-1.734807996481712	-0.7209114140375591	-1.48723226768699	-0.3726267121861294	0.215605749486653	-0.3706720977596741	0.6838842975206612
3016.632080078125	0.20836786823139	-9.942627722605184	-1.945595607713	-0.7245621479449615	-1.479894292533111	-0.007553321445881495	0.215605749486653	-0.3706720977596741	0.6838842975206612
3020.538330078125	-0.08288927566222232	-9.830134199130786	-1.903690811259257	-0.7281756959382143	-1.844378272962584	0.3538014778793914	0.215605749486653	-0.3706720977596741	0.6838842975206612
3024.444580078125	0.1417485712212775	-9.924167961971786	-1.724952374042585	-1.086768850089143	-2.96348534996637	-0.01876716499877227	0.215605749486653	-0.3706720977596741	0.6838842975206612
3028.350830078125	0.4332470322331849	-9.776583459577939	-1.774901074439496	-1.08311811618174	-2.97082332512025	-0.3838405557390202	0.2197125256673511	-0.3747454175152749	0.6942148760330579
3032.257080078125	0.2079325510768185	-9.862768475151828	-1.93108503589395	-1.086917593745742	-1.476197527632963	-0.00389279933887221	0.2197125256673511	-0.3747454175152749	0.6942148760330579
3036.163330078125	0.2265999285512062	-9.61339935643511	-1.886664285040205	-0.7209857858658586	-0.7435883565202867	-0.3651895293561793	0.2197125256673511	-0.3747454175152749	0.6942148760330579
3040.069580078125	0.2493113393021204	-9.816056000292317	-1.643711310070678	-0.7209485999517089	-1.115410312103638	-0.3689081207711543	0.2012320328542095	-0.3828920570264766	0.6818181818181819
3043.975830078125	0.2408155572256733	-9.482136303163699	-2.027185240855777	-0.7209485999517089	-1.115410312103638	-0.3689081207711543	0.2012320328542095	-0.3828920570264766	0.6818181818181819
3047.882080078125	0.1014572872643708	-9.713862143784519	-1.71524290881236	-0.3623182598866305	-0.3681251906832038	-5.806930796573191e-05	0.2012320328542095	-0.3828920570264766	0.6818181818181819
3051.788330078125	0.1919748651660317	-9.884594793596316	-1.73249550553439	-0.7210229717800084	-0.3717664009369348	-0.3614709379412043	0.2012320328542095	-0.3828920570264766	0.6818181818181819
3055.694580078125	0.4304229910547057	-9.787496566225645	-1.680766368490188	-0.3587047118933778	-0.003641210253730994	-0.3614128686332386	0.2012320328542095	-0.3828920570264766	0.6818181818181819
3059.600830078125	0.2534271368197086	-9.824725225761629	-1.78090456065695	-0.717335051958456	-0.7509263316741656	-0.7302629200964272	0.2012320328542095	-0.3828920570264766	0.6818181818181819
3063.507080078125	0.2365333613029863	-9.783520879845367	-1.884445376766209	-0.3550167920718256	-0.3828011409909618	-0.7302048507884614	0.2012320328542095	-0.3828920570264766	0.6818181818181819
3067.413330078125	0.2174164715494215	-9.733035340865687	-1.913882384980717	-7.437182829950031e-05	0.7436439111667036	0.007437182829950031	0.2217659137577002	-0.3727087576374745	0.6962809917355373
3071.319580078125	0.2450811921696538	-9.590757081198479	-2.169373072321794	0.007227095986505457	0.7289679608589457	-0.7227095986505457	0.2217659137577002	-0.3727087576374745	0.6962809917355373
3075.225830078125	0.2810074753103409	-9.485807582982991	-1.700249177011364	0.01084064397975819	1.093451941288418	-1.084064397975818	0.2217659137577002	-0.3727087576374745	0.6962809917355373
3079.132080078125	0.1370862614063741	-10.11234210881194	-1.902875380212469	-0.0002231154848985009	2.230931733500111	0.02231154848985009	0.2217659137577002	-0.3767820773930753	0.6756198347107438
3083.038330078125	0.4246960468943828	-9.476014944837482	-1.823201563146092	-0.0001859295707487508	1.859109777916759	0.01859295707487508	0.2217659137577002	-0.3767820773930753	0.6756198347107438
3086.944580078125	-0.005083431844869375	-9.661643642963176	-1.830552271837688	-0.0001487436565990006	1.487287822333407	0.01487436565990006	0.2217659137577002	-0.3767820773930753	0.6756198347107438
3090.850830078125	-0.1217239821109885	-9.749357420882554	-1.942533929633716	-0.3587047118933778	-0.003641210253730994	-0.3614128686332386	0.2217659137577002	-0.3767820773930753	0.6756198347107438
3094.757080078125	0.03368581930710442	-9.83910825175737	-2.122860643570147	-0.365968993794033	-0.3607872155293249	0.3650153214322821	0.2135523613963039	-0.3828920570264766	0.7004132231404959
3098.663330078125	0.1885002141097961	-9.812384930771167	-1.950007136993204	-0.007189910072355707	-1.100789916442297	0.7189910072355706	0.2135523613963039	-0.3828920570264766	0.7004132231404959
3102.569580078125	0.1980748256562682	-9.532622473037806	-1.935827521875607	-0.7245993338591113	-1.108072336949759	-0.003834730030906479	0.2135523613963039	-0.3828920570264766	0.7004132231404959
3106.475830078125	0.2222230984644818	-9.781481198163151	-2.074103282149394	-0.7209114140375591	-1.48723226768699	-0.3726267121861294	0.2114989733059548	-0.3808553971486761	0.6942148760330579
3110.382080078125	0.3929652116926819	-9.712941248219366	-2.098840389756062	-0.7245993338591113	-1.108072336949759	-0.003834730030906479	0.2114989733059548	-0.3808553971486761	0.6942148760330579
3114.288330078125	0.4441827985057266	-9.703047561816483	-2.139426616857552	-0.7209485999517089	-1.115410312103638	-0.3689081207711543	0.2114989733059548	-0.3808553971486761	0.6942148760330579
3118.194580078125	0.0420727720949086	-9.819729803689313	-2.06909240316362	-1.076039763851834	-0.7545675419278965	-1.091675788729666	0.2114989733059548	-0.3808553971486761	0.6942148760330579
3122.100830078125	0.2850877850164151	-9.611154949511359	-2.169592833880503	-1.079727683673386	-0.3754076111906658	-0.7228838065744428	0.2114989733059548	-0.3808553971486761	0.6942148760330579
3126.007080078125	0.3896601135136799	-9.824009896630576	-1.988670450455992	-0.3550911639001251	0.3608427701757418	-0.7227676679585114	0.2114989733059548	-0.3808553971486761	0.6942148760330579
3129.913330078125	0.2226442204944478	-9.641345035373462	-2.088140683148258	-0.3550539779859753	-0.01097918540760998	-0.7264862593734864	0.2114989733059548	-0.3808553971486761	0.6942148760330579
3133.819580078125	0.2260439528374872	-9.66357912191588	-1.86813176124957	-1.076114135680133	-0.01092363076119298	-1.084238605899716	0.2299794661190965	-0.3706720977596741	0.6962809917355373
3137.725830078125	0.1970677604273048	-9.702948090795172	-1.90225868091016	-0.7173722378726058	-0.3791043760908138	-0.7265443286814521	0.2299794661190965	-0.3706720977596741	0.6962809917355373
3141.632080078125	0.2786731659307546	-9.753229009682389	-1.95577219769182	-0.7174094237867555	-0.007282420507461989	-0.7228257372664771	0.2299794661190965	-0.3706720977596741	0.6962809917355373
3145.538330078125	0.1794074481818806	-9.781991591754524	-1.980248272729352	-1.079764869587536	-0.003585655607314001	-0.7191652151594679	0.2279260780287475	-0.3849287169042769	0.6776859504132231
3149.444580078125	0.1518286869273154	-9.700908724560168	-2.060956230910515	-0.717335051958456	-0.7509263316741656	-0.7302629200964272	0.2279260780287475	-0.3849287169042769	0.6776859504132231
3153.350830078125	0.2743617911408228	-9.824623020864466	-1.812059704694091	-1.079616125930937	-1.490873477940721	-0.7340395808193679	0.2279260780287475	-0.3849287169042769	0.6776859504132231
3157.257080078125	0.4372429598096592	-9.705291442994877	-1.908098660321972	-0.3622810739724808	-0.7399471462665556	-0.003776660722940747	0.2279260780287475	-0.3849287169042769	0.6776859504132231
3161.163330078125	0.01090422155119589	-9.659807635031781	-2.030140718373197	-0.365968993794033	-0.3607872155293249	0.3650153214322821	0.2320328542094456	-0.3869653767820774	0.6900826446280992
3165.069580078125	-0.04492599214063269	-9.961192737458804	-1.835800261978911	-0.3622810739724808	-0.7399471462665556	-0.003776660722940747	0.2320328542094456	-0.3869653767820774	0.6900826446280992
3168.975830078125	0.4468010103774248	-9.835534339977965	-1.893367012580824	-0.362243888058331	-1.111769101849907	-0.007495252137915762	0.2320328542094456	-0.3869653767820774	0.6900826446280992
3172.882080078125	0.282839435002496	-9.655215249349194	-1.761314500083199	-0.007301467814804958	0.01467595030775797	0.7301467814804957	0.215605749486653	-0.3767820773930753	0.6921487603305785
3176.788330078125	0.296618957904358	-9.654093203610923	-1.887298596811933	-0.007227095986505457	-0.7289679608589457	0.7227095986505457	0.215605749486653	-0.3767820773930753	0.6921487603305785
3180.694580078125	0.3875584464540185	-9.474689435646534	-1.918614881800615	-0.7282500677665138	-1.10073436179588	0.3612386607093414	0.215605749486653	-0.3767820773930753	0.6921487603305785
3184.600830078125	0.2400482318789377	-9.81238440502581	-2.001607729297922	-0.3585931541509285	-1.119107077003786	-0.3725686428781636	0.215605749486653	-0.3767820773930753	0.6921487603305785
3188.507080078125	0.2091501773207649	-9.622374775999619	-1.971672577358829	0.358667525979228	0.3754631658370828	0.3651314600482136	0.215605749486653	-0.3767820773930753	0.6921487603305785
3192.413330078125	0.2494264775350324	-9.822685438930339	-1.980882584501079	0.3585559682367788	1.490929032587138	0.3762872342931387	0.215605749486653	-0.3767820773930753	0.6921487603305785
3196.319580078125	0.4998663292432974	-9.795043220211333	-1.995544308109911	0.003539176164953228	1.108127891596177	-0.3539176164953228	0.215605749486653	-0.3767820773930753	0.6921487603305785
3200.225830078125	0.2458217045032456	-9.733850982210617	-1.860723483441518	0.003501990250803478	1.479949847179528	-0.3501990250803478	0.242299794661191	-0.3930753564154786	0.6859504132231405
3204.132080078125	0.1601249486412506	-9.831559599939329	-2.004164954708352	-0.3625041894573793	1.490984587233555	0.01853488776690934	0.242299794661191	-0.3930753564154786	0.6859504132231405
3208.038330078125	0.3311832977009419	-9.552917400410028	-2.039443256698061	0.362243888058331	1.111769101849907	0.007495252137915762	0.242299794661191	-0.3930753564154786	0.6859504132231405
3211.944580078125	0.06259182471229242	-9.823095310009693	-1.753060823743081	-0.358816269635827	1.111824656496325	-0.3502570943883135	0.2176591375770021	-0.3808553971486761	0.6838842975206612
3215.850830078125	9.85772542054968e-05	-9.749968126687806	-2.003285908473517	-0.3550911639001251	0.3608427701757418	-0.7227676679585114	0.2176591375770021	-0.3808553971486761	0.6838842975206612
3219.757080078125	0.205720477492447	-9.580150378944108	-2.190682583081567	0.003576362079102979	0.7363059360128246	-0.3576362079102978	0.2176591375770021	-0.3808553971486761	0.6838842975206612
3223.663330078125	0.2726449696815798	-9.661844793136289	-2.088165656052657	-0.3587790837216773	0.7400027009129726	-0.3539756858032885	0.2176591375770021	-0.3808553971486761	0.6838842975206612
3227.569580078125	0.3600538152946159	-9.653582599721407	-2.001793843153862	0.003576362079102979	0.7363059360128246	-0.3576362079102978	0.2299794661190965	-0.3706720977596741	0.6983471074380165
3231.475830078125	0.08029235647743251	-9.70070547140563	-2.009745215914417	-0.7174466097009052	0.3645395350758898	-0.7191071458515021	0.2299794661190965	-0.3706720977596741	0.6983471074380165
3235.382080078125	0.185161993973381	-9.410130955281939	-2.172066465779366	-1.079876427329985	1.111880211142741	-0.7080094409145429	0.2299794661190965	-0.3706720977596741	0.6983471074380165
3239.288330078125	-0.04265713805783885	-9.790459141305368	-1.911428731405372	-0.358816269635827	1.111824656496325	-0.3502570943883135	0.2238193018480493	-0.3808553971486761	0.6880165289256198
3243.194580078125	0.05833565318471563	-9.861138138803609	-1.944521772823854	-0.3587418978075275	0.3681807453296208	-0.3576942772182636	0.2238193018480493	-0.3808553971486761	0.6880165289256198
3247.100830078125	0.2807764102264833	-9.682548960693437	-2.025880340882773	-0.7210229717800084	-0.3717664009369348	-0.3614709379412043	0.2238193018480493	-0.3808553971486761	0.6880165289256198
3251.007080078125	-0.01761693825357383	-9.862362810035322	-1.746102058214206	-0.3623554458007803	0.003696764900147988	0.003660522107009284	0.2032854209445585	-0.3808553971486761	0.6921487603305785
3254.913330078125	0.08261089349634594	-9.633289144436182	-1.753696449878198	-0.007338653728954708	0.3864979058911098	0.7338653728954707	0.2032854209445585	-0.3808553971486761	0.6921487603305785
3258.819580078125	-0.007127529788074681	-9.982304567964812	-1.762415673730844	3.718591414975016e-05	-0.3718219555833518	-0.003718591414975016	0.2032854209445585	-0.3808553971486761	0.6921487603305785
3262.725830078125	-0.1537489718392387	-9.649712167561354	-1.875034272025379	-0.7245621479449615	-1.479894292533111	-0.007553321445881495	0.2032854209445585	-0.3808553971486761	0.6921487603305785
3266.632080078125	0.03514791714148044	-9.831968840124256	-1.838263904716015	-0.7282500677665138	-1.10073436179588	0.3612386607093414	0.242299794661191	-0.3665987780040733	0.7045454545454546
3270.538330078125	0.05497062003515659	-9.932226166188633	-1.832354001171886	-0.003464804336653728	-1.85177180276288	0.3464804336653728	0.242299794661191	-0.3665987780040733	0.7045454545454546
3274.444580078125	-0.09979251459534826	-9.642266246385828	-1.673582846821725	-0.007078352329906457	-2.216255783192353	0.7078352329906457	0.242299794661191	-0.3665987780040733	0.7045454545454546
3278.350830078125	0.2735810592875152	-9.724875457497037	-1.786035309583838	-0.3621695162300315	-1.855413013016611	-0.0149324349678658	0.2320328542094456	-0.3849287169042769	0.6859504132231405
3282.257080078125	0.1984202403550043	-9.552510788951881	-1.94734134516681	-0.003650733907402479	0.007337975153878983	0.3650733907402479	0.2320328542094456	-0.3849287169042769	0.6859504132231405
3286.163330078125	0.2579940238525411	-9.713248598954346	-1.933134128418035	-0.007338653728954708	0.3864979058911098	0.7338653728954707	0.2320328542094456	-0.3849287169042769	0.6859504132231405
3290.069580078125	0.2887572247269607	-9.813301830671618	-1.958574157565357	-0.358667525979228	-0.3754631658370828	-0.3651314600482136	0.2320328542094456	-0.3849287169042769	0.6859504132231405
3293.975830078125	0.3385631852597827	-9.703864570099338	-1.952106175326087	-0.36239263171493	0.3755187204834998	0.007379113521984299	0.2320328542094456	-0.3849287169042769	0.6859504132231405
3297.882080078125	0.3997433836918523	-10.0940829726063	-1.991446123061741	-0.7247480775157102	0.3792154853836477	0.01103963562899358	0.2320328542094456	-0.3849287169042769	0.6859504132231405
3301.788330078125	0.4325814386127894	-9.683465334848531	-2.086047953759644	0	0	0	0.2320328542094456	-0.3849287169042769	0.6859504132231405
3305.694580078125	0.3490691547039883	-9.413800973312378	-1.968971823466276	0.003613547993252729	0.3644839804294728	-0.3613547993252729	0.2073921971252567	-0.3808553971486761	0.6756198347107438
3309.600830078125	0.1998618341205056	-9.672044673634369	-1.995394470683519	-0.3550911639001251	0.3608427701757418	-0.7227676679585114	0.2073921971252567	-0.3808553971486761	0.6756198347107438
3313.507080078125	0.3434912593520242	-9.412271159476179	-2.116375311734137	-0.3552027216425743	1.476308636925797	-0.7116118937135864	0.2073921971252567	-0.3808553971486761	0.6756198347107438
3317.413330078125	0.2860980047175131	-9.934161645141337	-1.869933490583769	-0.3589278273782763	2.22729052324638	-0.3391013201433885	0.2238193018480493	-0.3849287169042769	0.6818181818181819
3321.319580078125	0.2404993213941821	-9.692238552749215	-2.016644046472735	-0.3552399075567241	1.848130592509149	-0.7078933022986114	0.2238193018480493	-0.3849287169042769	0.6818181818181819
3325.225830078125	0.04661442335066453	-9.761594669783285	-1.887147445022151	-0.717483795615055	0.7363614906592416	-0.7153885544365272	0.2238193018480493	-0.3849287169042769	0.6818181818181819
3329.132080078125	0.1231679417305907	-9.740175698840444	-2.105598057686358	-0.3587418978075275	0.3681807453296208	-0.3576942772182636	0.2238193018480493	-0.3849287169042769	0.6818181818181819
3333.038330078125	0.3085759845304686	-9.630227098335149	-2.285866151015622	-0.3587047118933778	-0.003641210253730994	-0.3614128686332386	0.2217659137577002	-0.3686354378818737	0.6983471074380165
3336.944580078125	0.09858277453173833	-9.831458236234738	-1.952759151057944	3.718591414975016e-05	-0.3718219555833518	-0.003718591414975016	0.2217659137577002	-0.3686354378818737	0.6983471074380165
3340.850830078125	0.2095854944753364	-9.702234023452975	-1.986183149177879	-0.7210229717800084	-0.3717664009369348	-0.3614709379412043	0.2217659137577002	-0.3686354378818737	0.6983471074380165
3344.757080078125	0.1881705717717329	-9.59249151512714	-1.939019059057764	-0.003687919821552229	0.3791599307372308	0.3687919821552229	0.215605749486653	-0.3869653767820774	0.6921487603305785
3348.663330078125	0.1331021631004045	-9.700296967264205	-2.103405436680149	-0.003725105735701979	0.7509818863205826	0.3725105735701979	0.215605749486653	-0.3869653767820774	0.6921487603305785
3352.569580078125	0.2655545049410863	-9.774137376735716	-1.851816831369543	-0.3587047118933778	-0.003641210253730994	-0.3614128686332386	0.215605749486653	-0.3869653767820774	0.6921487603305785
3356.475830078125	0.02617580977271239	-9.671536488173491	-1.872526992423746	-0.717335051958456	-0.7509263316741656	-0.7302629200964272	0.215605749486653	-0.3869653767820774	0.6921487603305785
3360.382080078125	0.3530642936624289	-9.552509211715815	-2.102143122080963	0.007264281900655208	0.3571460052755938	-0.7264281900655207	0.215605749486653	-0.3869653767820774	0.6921487603305785
3364.288330078125	0.3750998587585103	-9.725384379001415	-1.836661958617006	-0.3587790837216773	0.7400027009129726	-0.3539756858032885	0.215605749486653	-0.3869653767820774	0.6921487603305785
3368.194580078125	0.1104301832511725	-9.664294240748788	-1.681006108372416	-1.072500587686881	0.3535603496682799	-1.445593405224989	0.215605749486653	-0.3869653767820774	0.6921487603305785
3372.100830078125	0.1080217437764236	-9.671739636178957	-1.934058125880788	-0.3514776159068723	0.7253267506052147	-1.084122467283784	0.2197125256673511	-0.3910386965376782	0.6859504132231405
3376.007080078125	-0.002139520725276242	-9.73069177836784	-1.928682642490792	-0.3515148018210221	1.097148706188567	-1.080403875868809	0.2197125256673511	-0.3910386965376782	0.6859504132231405
3379.913330078125	0.07323185922221759	-9.832988365518149	-1.774395307407252	-0.3514776159068723	0.7253267506052147	-1.084122467283784	0.2197125256673511	-0.3910386965376782	0.6859504132231405
3383.819580078125	0.03291139639806599	-9.392691981831295	-1.763713213268866	0.01091501580805769	0.3498080301217149	-1.091501580805769	0.2217659137577002	-0.3788187372708757	0.6942148760330579
3387.725830078125	-0.04811910655885733	-9.585558511120697	-1.396029781371422	-0.7137215039652034	-0.3864423512446928	-1.0916177194217	0.2217659137577002	-0.3788187372708757	0.6942148760330579
3391.632080078125	-0.2392895813305721	-9.500703631296885	-1.690347288980929	-0.7210601576941581	5.555464641699391e-05	-0.3577523465262293	0.2217659137577002	-0.3788187372708757	0.6942148760330579
3395.538330078125	-0.07119249298721414	-9.773018906065866	-1.626916900426195	-0.7172606801301565	-1.494570242840869	-0.7377001029263772	0.2217659137577002	-0.3788187372708757	0.6942148760330579
3399.444580078125	0.2261433187097263	-9.870213660283856	-2.204777290324209	0.358816269635827	-1.111824656496325	0.3502570943883135	0.2279260780287475	-0.3788187372708757	0.7004132231404959
3403.350830078125	0.179938188118523	-9.785153319175011	-1.664606270617433	-0.3659318078798833	-0.7326091711126765	0.3612967300173071	0.2279260780287475	-0.3788187372708757	0.7004132231404959
3407.257080078125	0.1848055386221739	-9.663579542512165	-1.826851287405796	-0.724636519773261	-0.7362503813664076	-0.0001161386159314638	0.2279260780287475	-0.3788187372708757	0.7004132231404959
3411.163330078125	0.05534679083720479	-9.762104537629304	-1.844893027906826	-0.7209485999517089	-1.115410312103638	-0.3689081207711543	0.2381930184804928	-0.3665987780040733	0.6942148760330579
3415.069580078125	0.2554846412694858	-9.934059965989533	-1.849488042316192	-0.3658946219657335	-1.104431126696028	0.3575781386023321	0.2381930184804928	-0.3665987780040733	0.6942148760330579
3418.975830078125	0.1174141845571239	-9.90203608032653	-1.913806151904131	-0.3659318078798833	-0.7326091711126765	0.3612967300173071	0.2381930184804928	-0.3665987780040733	0.6942148760330579
3422.882080078125	0.4402018546718916	-9.784334733656088	-2.006728489063051	-0.7246737056874109	-0.3644284257830558	0.003602452799043552	0.2381930184804928	-0.3665987780040733	0.6942148760330579
3426.788330078125	0.2513641120436958	-9.852058937105872	-2.045470401456525	-0.003650733907402479	0.007337975153878983	0.3650733907402479	0.2381930184804928	-0.3665987780040733	0.6942148760330579
3430.694580078125	0.3059972035604527	-9.664394237515454	-1.86657345201509	-0.3585931541509285	-1.119107077003786	-0.3725686428781636	0.2381930184804928	-0.3665987780040733	0.6942148760330579
3434.600830078125	0.3323693792235425	-9.71253390071772	-2.078979307451415	-1.438395209652614	-0.7508707770277486	-1.088015266622657	0.2381930184804928	-0.3665987780040733	0.6942148760330579
3438.507080078125	0.2224036919941863	-9.691422806255213	-2.080123066472877	-1.076151321594283	0.3608983248221588	-1.080520014484741	0.2238193018480493	-0.3767820773930753	0.6880165289256198
3442.413330078125	0.3480565691487895	-9.720795042641891	-2.268552304959645	-1.434781661659361	-0.3863867965982758	-1.449370065947929	0.2238193018480493	-0.3767820773930753	0.6880165289256198
3446.319580078125	0.3173122951071772	-9.914069024582014	-1.910409836905904	0.3806463012519424	-0.4122085962528947	-1.832746067223224	0.2238193018480493	-0.3767820773930753	0.6880165289256198
3450.225830078125	0.5468939884435914	-9.516504277069904	-1.896466281453044	-1.072426215858581	-0.3900835614984237	-1.453030588054939	0.242299794661191	-0.3747454175152749	0.6818181818181819
3454.132080078125	0.1291961379797656	-9.831559915386544	-1.973204599325521	-0.7101079559719506	-0.02195837081521995	-1.452972518746973	0.242299794661191	-0.3747454175152749	0.6818181818181819
3458.038330078125	0.1173250707193222	-9.632064893800752	-1.910835690644072	-0.7137215039652034	-0.3864423512446928	-1.0916177194217	0.242299794661191	-0.3747454175152749	0.6818181818181819
3461.944580078125	0.1472878242895932	-9.549043603479697	-2.242927476319772	-1.434707289831062	-1.130030707764979	-1.456807248777879	0.242299794661191	-0.3747454175152749	0.6818181818181819
3465.850830078125	-0.1084799308539708	-9.671741844309452	-1.717335638200973	-1.442008757645867	-1.115354757457222	-0.7266604672973836	0.2197125256673511	-0.3584521384928717	0.6921487603305785
3469.757080078125	0.1724029428070544	-9.670923048492385	-2.080098093568478	-1.442083129474167	-0.3717108462905178	-0.7192232844674336	0.2197125256673511	-0.3584521384928717	0.6921487603305785
3473.663330078125	0.2295738071560778	-9.70243780235287	-1.985793571869259	-0.362243888058331	-1.111769101849907	-0.007495252137915762	0.2197125256673511	-0.3584521384928717	0.6921487603305785
3477.569580078125	0.287901574160457	-9.663578491021454	-1.930052472015232	-0.7209114140375591	-1.48723226768699	-0.3726267121861294	0.215605749486653	-0.3665987780040733	0.6818181818181819
3481.475830078125	0.4247551932469061	-9.725995820850168	-1.825173108230202	-0.7282500677665138	-1.10073436179588	0.3612386607093414	0.215605749486653	-0.3665987780040733	0.6818181818181819
3485.382080078125	-0.050742838756791	-9.589740184531363	-1.975238708106967	-0.7246737056874109	-0.3644284257830558	0.003602452799043552	0.215605749486653	-0.3665987780040733	0.6818181818181819
3489.288330078125	0.346794780294959	-9.721203021037963	-2.22649267649863	-0.3660061797081828	0.01103474005402697	0.3687339128472572	0.215605749486653	-0.3665987780040733	0.6818181818181819
3493.194580078125	0.3983774972575809	-9.814524609220049	-1.945916575252693	-0.007301467814804958	0.01467595030775797	0.7301467814804957	0.215605749486653	-0.3665987780040733	0.6818181818181819
3497.100830078125	0.3869709260189537	-9.924879400587203	-1.899030867298455	-0.36239263171493	0.3755187204834998	0.007379113521984299	0.215605749486653	-0.3665987780040733	0.6818181818181819
3501.007080078125	0.4155125898925981	-9.595650929268059	-1.850419663086604	-0.7248968211723092	1.866503307717055	0.02591400128889364	0.215605749486653	-0.3665987780040733	0.6818181818181819
3504.913330078125	0.2011985416875322	-9.721612471521031	-2.039951389584406	0.7172234942160068	1.866392198424221	0.7414186943413522	0.2258726899383984	-0.3727087576374745	0.6838842975206612
3508.819580078125	0.3704982725321974	-9.743538891881258	-2.016609084406577	-0.0001859295707487508	1.859109777916759	0.01859295707487508	0.2258726899383984	-0.3727087576374745	0.6838842975206612
3512.725830078125	0.1489139546749672	-9.861851154655094	-1.963798489165571	0.003501990250803478	1.479949847179528	-0.3501990250803478	0.2258726899383984	-0.3727087576374745	0.6838842975206612
3516.632080078125	0.387716958678781	-9.931304850027194	-2.257231955959363	0.362095144401732	2.599056924183315	0.02236961779781583	0.2135523613963039	-0.3828920570264766	0.6921487603305785
3520.538330078125	0.1871185553148518	-9.732831667114866	-1.903951843828394	0.3621323303158818	2.227234968599963	0.01865102638284081	0.2135523613963039	-0.3828920570264766	0.6921487603305785
3524.444580078125	0.1380483754074198	-9.912031025284934	-1.934945846913993	0.003501990250803478	1.479949847179528	-0.3501990250803478	0.2135523613963039	-0.3828920570264766	0.6921487603305785
3528.350830078125	0.08767303265430691	-9.64165238610844	-1.92243442181023	-0.7139074335359521	1.472667426672066	-1.073024762346825	0.2135523613963039	-0.3828920570264766	0.6921487603305785
3532.257080078125	-0.04621695986170796	-9.731610150355285	-1.792768004609735	-0.7248968211723092	1.866503307717055	0.02591400128889364	0.2238193018480493	-0.3828920570264766	0.6921487603305785
3536.163330078125	-0.1053254587193947	-9.670721898319272	-1.822484709353509	-0.00379947756400148	1.494625797487286	0.3799477564001479	0.2238193018480493	-0.3828920570264766	0.6921487603305785
3540.069580078125	-0.06300663779798921	-9.970372146221351	-1.899778740067027	0	0	0	0.2238193018480493	-0.3828920570264766	0.6921487603305785
3543.975830078125	0.2355515318510995	-9.900505004701479	-2.185051061703315	-0.3659318078798833	-0.7326091711126765	0.3612967300173071	0.2238193018480493	-0.3727087576374745	0.6880165289256198
3547.882080078125	-0.05077359486010311	-9.779750129004768	-1.97421350466323	0.7174466097009052	-0.3645395350758898	0.7191071458515021	0.2238193018480493	-0.3727087576374745	0.6880165289256198
3551.788330078125	0.1064137516058235	-9.86225955364745	-1.880458386860782	-0.003539176164953228	-1.108127891596177	0.3539176164953228	0.2238193018480493	-0.3727087576374745	0.6880165289256198
3555.694580078125	0.2787946131079358	-9.413189741761768	-1.959820436931193	-0.3622067021441813	-1.483591057433259	-0.01121384355289078	0.2299794661190965	-0.3788187372708757	0.6838842975206612
3559.600830078125	0.0948273754555255	-9.852672481936047	-1.82757918185085	-0.3658574360515838	-1.47625308227938	0.3538595471873571	0.2299794661190965	-0.3788187372708757	0.6838842975206612
3563.507080078125	0.1255164462347826	-9.692749682384088	-1.850548207826088	-0.007227095986505457	-0.7289679608589457	0.7227095986505457	0.2299794661190965	-0.3788187372708757	0.6838842975206612
3567.413330078125	0.1585327288313233	-9.822074417677872	-1.951090961044109	-0.3695081699589862	-1.468915107125501	0.7189329379276049	0.2299794661190965	-0.3788187372708757	0.6838842975206612
3571.319580078125	0.2963784294040966	-9.704170974492676	-1.879280980136552	-0.007152724158205957	-1.472611872025649	0.7152724158205956	0.2053388090349076	-0.3767820773930753	0.6900826446280992
3575.225830078125	0.2358575156481534	-9.753739403273762	-1.861917188271778	-0.7282500677665138	-1.10073436179588	0.3612386607093414	0.2053388090349076	-0.3767820773930753	0.6900826446280992
3579.132080078125	0.3709990449835613	-9.726710308788649	-1.699968166118708	3.718591414975016e-05	-0.3718219555833518	-0.003718591414975016	0.2053388090349076	-0.3767820773930753	0.6900826446280992
3583.038330078125	0.2975211369348468	-9.413801499057733	-1.917371231161558	-0.003650733907402479	0.007337975153878983	0.3650733907402479	0.2361396303901437	-0.3890020366598778	0.6942148760330579
3586.944580078125	0.06977219190862124	-9.770773657949547	-1.992406396954042	0	0	0	0.2361396303901437	-0.3890020366598778	0.6942148760330579
3590.850830078125	0.277651116959152	-9.913559472183207	-1.921703898638398	-0.358667525979228	-0.3754631658370828	-0.3651314600482136	0.2361396303901437	-0.3890020366598778	0.6942148760330579
3594.757080078125	0.2715030507688632	-9.742214013584734	-2.050101692295438	-0.717483795615055	0.7363614906592416	-0.7153885544365272	0.2361396303901437	-0.3890020366598778	0.6942148760330579
3598.663330078125	0.2185733742047773	-9.66266127567379	-1.95244580682591	0.362243888058331	1.111769101849907	0.007495252137915762	0.2361396303901437	-0.3890020366598778	0.6942148760330579
3602.569580078125	0.08695223577155628	-9.581885443767197	-1.898407859051876	-0.3551655357284246	1.104486681342445	-0.7153304851285613	0.2361396303901437	-0.3890020366598778	0.6942148760330579
3606.475830078125	0.1093884188287287	-9.741297744578711	-1.979613960957624	-0.3514776159068723	0.7253267506052147	-1.084122467283784	0.2361396303901437	-0.3890020366598778	0.6942148760330579
3610.382080078125	0.06448056490286985	-9.539151284014739	-2.149352163428995	0.003464804336653728	1.85177180276288	-0.3464804336653728	0.2258726899383984	-0.3645621181262729	0.6714876033057852
3614.288330078125	0.1930876052115034	-9.57423500764828	-1.769586840383447	-0.00379947756400148	1.494625797487286	0.3799477564001479	0.2258726899383984	-0.3645621181262729	0.6714876033057852
3618.194580078125	-0.2394607114438729	-9.73742563003352	-2.017976285204238	0.003539176164953228	1.108127891596177	-0.3539176164953228	0.2258726899383984	-0.3645621181262729	0.6714876033057852
3622.100830078125	0.02892414361996181	-9.820647860229546	-1.964138120665394	-0.3660805515364823	0.7546786512207306	0.3761710956772072	0.2094455852156057	-0.3788187372708757	0.6818181818181819
3626.007080078125	0.1379584729515844	-9.852060093745653	-1.931949098386146	0	0	0	0.2094455852156057	-0.3788187372708757	0.6818181818181819
3629.913330078125	0.01805856435241446	-9.870827730859386	-1.935285478413816	-0.7172978660443063	-1.122748287257517	-0.7339815115114022	0.2094455852156057	-0.3788187372708757	0.6818181818181819
3633.819580078125	-0.02734533031660649	-9.758841656802369	-2.08848898944645	-1.083266859838339	-1.483535502786842	-0.3689661900791201	0.2094455852156057	-0.3788187372708757	0.6818181818181819
3637.725830078125	-0.006801041922146066	-9.708865670221494	-2.106631935928465	-0.724487776116662	-2.223538203699815	-0.01499050427583152	0.2114989733059548	-0.3747454175152749	0.7066115702479339
3641.632080078125	-0.01808616598359203	-9.47918119366803	-2.063794467213599	-0.3658574360515838	-1.47625308227938	0.3538595471873571	0.2114989733059548	-0.3747454175152749	0.7066115702479339
3645.538330078125	0.3227072310753359	-9.302324661952309	-2.09024103584453	-0.7208742281234094	-1.859054223270342	-0.3763453036011044	0.2114989733059548	-0.3747454175152749	0.7066115702479339
3649.444580078125	0.1042466292493697	-9.609626923209371	-2.141554308312323	-1.449273039546522	-1.472500762732815	-0.0002322772318629276	0.2279260780287475	-0.395112016293279	0.6942148760330579
3653.350830078125	0.1209140713904361	-9.920904450250426	-2.030469046347871	-1.438246465996015	-2.238158599361156	-1.102889632282557	0.2279260780287475	-0.395112016293279	0.6942148760330579
3657.257080078125	0.3268664025847745	-9.760979863164257	-2.228880086159149	-1.442008757645867	-1.115354757457222	-0.7266604672973836	0.2279260780287475	-0.395112016293279	0.6942148760330579
3661.163330078125	0.2617644066713932	-9.702029508509584	-2.058813555713104	-1.441971571731717	-1.487176713040573	-0.7303790587123586	0.2279260780287475	-0.395112016293279	0.6942148760330579
3665.069580078125	0.2796045238284882	-9.74292787062879	-1.986817460949606	-1.800676283625095	-1.490817923294304	-1.091791927345597	0.2279260780287475	-0.395112016293279	0.6942148760330579
3668.975830078125	0.3037882844482158	-9.875108454695077	-1.792942814940526	-1.800676283625095	-1.490817923294304	-1.091791927345597	0.2279260780287475	-0.395112016293279	0.6942148760330579
3672.882080078125	0.08895059386881024	-9.441239307982418	-1.965019795627008	-1.08319248801004	-2.227179413953546	-0.3764033729090701	0.2279260780287475	-0.395112016293279	0.6942148760330579
3676.788330078125	0.150626833044042	-9.741297323982428	-2.020894434801398	-1.438283651910165	-1.866336643777804	-1.099171040867581	0.2320328542094456	-0.3788187372708757	0.6818181818181819
3680.694580078125	-0.01652075918680865	-9.962008378803734	-1.782641360439712	-1.441897199903418	-2.230820624207277	-0.7378162415423086	0.2320328542094456	-0.3788187372708757	0.6818181818181819
3684.600830078125	0.4266928277555695	-9.755369319025698	-1.889760925185647	-1.434558546174463	-2.617318530098387	-1.471681614437779	0.2320328542094456	-0.3788187372708757	0.6818181818181819
3688.507080078125	0.1448139295180519	-9.65317682945583	-1.827130983935062	-1.441971571731717	-1.487176713040573	-0.7303790587123586	0.2320328542094456	-0.3788187372708757	0.6921487603305785
3692.413330078125	0.2178525773220267	-9.602894333332546	-1.928419244067555	-1.083266859838339	-1.483535502786842	-0.3689661900791201	0.2320328542094456	-0.3788187372708757	0.6921487603305785
3696.319580078125	0.1429204576192726	-9.863789052036434	-1.764015253975752	-1.44558511972497	-1.851660693470046	-0.3690242593870858	0.2320328542094456	-0.3788187372708757	0.6921487603305785
3700.225830078125	0.1435931488019709	-9.400238215220694	-2.119771626732364	-1.438283651910165	-1.866336643777804	-1.099171040867581	0.2320328542094456	-0.3788187372708757	0.6921487603305785
3704.132080078125	0.2958973724035737	-9.804326516256177	-1.86324574678579	-0.7136471321369039	-1.130086262411396	-1.09905490225165	0.2135523613963039	-0.3747454175152749	0.6900826446280992
3708.038330078125	0.168165698112285	-10.00229309094369	-1.938856603742834	-0.724636519773261	-0.7362503813664076	-0.0001161386159314638	0.2135523613963039	-0.3747454175152749	0.6900826446280992
3711.944580078125	0.3991140665010044	-9.674286451831343	-1.97046888336681	-1.079690497759237	-0.7472295667740175	-0.7266023979894179	0.2135523613963039	-0.3747454175152749	0.6900826446280992
3715.850830078125	0.08513368258597317	-9.842473442630537	-1.837789419532439	-1.083341231666639	-0.7398915916201386	-0.36152900724917	0.2361396303901437	-0.3767820773930753	0.6818181818181819
3719.757080078125	0.1388306844967947	-9.59177807867937	-1.961022816559822	-0.3623554458007803	0.003696764900147988	0.003660522107009284	0.2361396303901437	-0.3767820773930753	0.6818181818181819
3723.663330078125	0.1287907883104726	-9.771690978446282	-1.95969294368242	-1.079690497759237	-0.7472295667740175	-0.7266023979894179	0.2361396303901437	-0.3767820773930753	0.6818181818181819
3727.569580078125	0.02514981771094151	-9.548534892273462	-2.171660590364717	-0.7209857858658586	-0.7435883565202867	-0.3651895293561793	0.2361396303901437	-0.3767820773930753	0.6818181818181819
3731.475830078125	0.09258454576784189	-9.760064330201731	-2.08615152559473	-0.7209857858658586	-0.7435883565202867	-0.3651895293561793	0.2361396303901437	-0.3767820773930753	0.6818181818181819
3735.382080078125	0.04016431645349006	-10.02034687101337	-2.005477215116335	7.437182829950031e-05	-0.7436439111667036	-0.007437182829950031	0.2361396303901437	-0.3767820773930753	0.6818181818181819
3739.288330078125	0.2813024184549238	-9.612378884699574	-2.043413948497459	-0.7208742281234094	-1.859054223270342	-0.3763453036011044	0.2361396303901437	-0.3767820773930753	0.6818181818181819
3743.194580078125	0.4233979816110047	-9.803101319279108	-2.113266053700156	-0.7283988114231127	0.3865534605375267	0.3761130263692414	0.2217659137577002	-0.3706720977596741	0.7024793388429752
3747.100830078125	-0.03861468201737958	-9.329152080518952	-2.046177266087348	-1.086917593745742	-1.476197527632963	-0.00389279933887221	0.2217659137577002	-0.3706720977596741	0.7024793388429752
3751.007080078125	0.22072078111039	-9.831966947440975	-2.024026037012999	-0.3658574360515838	-1.47625308227938	0.3538595471873571	0.2217659137577002	-0.3706720977596741	0.7024793388429752
3754.913330078125	0.122507079818397	-9.720389377525384	-2.083569327279901	-0.3658574360515838	-1.47625308227938	0.3538595471873571	0.2094455852156057	-0.395112016293279	0.6735537190082644
3758.819580078125	0.3356437212992325	-9.791475196779913	-2.188124043307748	-0.3657830642232843	-2.219896993446084	0.346422364357407	0.2094455852156057	-0.395112016293279	0.6735537190082644
3762.725830078125	0.1167990624908816	-9.702234969794615	-1.893302083029387	-0.7281756959382143	-1.844378272962584	0.3538014778793914	0.2094455852156057	-0.395112016293279	0.6735537190082644
3766.632080078125	0.2725897664192247	-9.695195975524451	-1.752992213974154	-0.3621323303158818	-2.227234968599963	-0.01865102638284081	0.2094455852156057	-0.395112016293279	0.6735537190082644
3770.538330078125	0.5024253947624723	-9.677549122360135	-1.747513158749073	-0.01076627215145869	-1.837095852455122	1.076627215145868	0.2279260780287475	-0.3808553971486761	0.6838842975206612
3774.444580078125	0.4622476718024103	-9.893873252783887	-2.074922393413672	-0.007152724158205957	-1.472611872025649	0.7152724158205956	0.2279260780287475	-0.3808553971486761	0.6838842975206612
3778.350830078125	0.5210265283220338	-9.734868089175876	-2.034217610734459	-1.086806036003293	-2.591663394383019	-0.01504857358379726	0.2279260780287475	-0.3808553971486761	0.6838842975206612
3782.257080078125	0.3809025102500629	-9.876841521685813	-1.696750341668763	0.358816269635827	-1.111824656496325	0.3502570943883135	0.2381930184804928	-0.3849287169042769	0.7086776859504132
3786.163330078125	0.3890497231556393	-9.697540589513011	-1.634990771854643	-0.007264281900655208	-0.3571460052755938	0.7264281900655207	0.2381930184804928	-0.3849287169042769	0.7086776859504132
3790.069580078125	0.2815476786633871	-9.635632917232172	-1.718255955446236	-0.3586303400650783	-0.7472851214204346	-0.3688500514631886	0.2381930184804928	-0.3849287169042769	0.7086776859504132
3793.975830078125	0.381518420934339	-9.86664237723123	-1.717280697811296	-0.3587418978075275	0.3681807453296208	-0.3576942772182636	0.2381930184804928	-0.3849287169042769	0.7086776859504132
3797.882080078125	0.4358912684999934	-9.645728489851669	-1.86304228333311	0.3622067021441813	1.483591057433259	0.01121384355289078	0.2381930184804928	-0.3849287169042769	0.7086776859504132
3801.788330078125	0.08991586234199052	-9.734260537842758	-1.663862078066351	0.3622067021441813	1.483591057433259	0.01121384355289078	0.2381930184804928	-0.3849287169042769	0.7086776859504132
3805.694580078125	0.2969344051178156	-9.653991209011906	-1.897813503927186	-0.3587790837216773	0.7400027009129726	-0.3539756858032885	0.2381930184804928	-0.3849287169042769	0.7086776859504132
3809.600830078125	0.3906419429655666	-9.707025771774468	-1.688064765518886	0.003576362079102979	0.7363059360128246	-0.3576362079102978	0.2381930184804928	-0.3706720977596741	0.6921487603305785
3813.507080078125	0.3559230340343885	-9.634918218995548	-1.864101134479616	1.086880407831592	1.848019483216315	0.007611390753847227	0.2381930184804928	-0.3706720977596741	0.6921487603305785
3817.413330078125	0.3170733438429831	-9.544146285490768	-1.9024447947661	0.7281385100240645	2.216200228545936	-0.3500828864644163	0.2381930184804928	-0.3706720977596741	0.6921487603305785
3821.319580078125	0.1279540645767763	-9.915294852453508	-1.598468819225877	0.3621323303158818	2.227234968599963	0.01865102638284081	0.2197125256673511	-0.3706720977596741	0.6797520661157025
3825.225830078125	0.4058125880787767	-9.932120596521194	-2.193752935959221	0.728064138195765	2.959844139712639	-0.3426457036344663	0.2197125256673511	-0.3706720977596741	0.6797520661157025
3829.132080078125	0.2000416390321764	-9.791986536712928	-2.001387967739213	1.086731664174993	3.335307305549722	0.02248575641374729	0.2197125256673511	-0.3706720977596741	0.6797520661157025
3833.038330078125	0.205304087170683	-9.793618345148145	-1.843469572356099	0.3620207725734325	3.342700835350018	0.02980680062776585	0.2197125256673511	-0.3706720977596741	0.6797520661157025
3836.944580078125	0.2083946812445339	-9.469285719730934	-2.27982270815113	0.3620207725734325	3.342700835350018	0.02980680062776585	0.2320328542094456	-0.3747454175152749	0.6797520661157025
3840.850830078125	-0.008424017835385465	-9.889390432433441	-2.052532738820485	0.003353246594204478	2.967237669512935	-0.3353246594204478	0.2320328542094456	-0.3747454175152749	0.6797520661157025
3844.757080078125	-0.09762066053069265	-9.968230680238257	-2.079311315643579	-0.3552770934708738	2.219952548092501	-0.7041747108836364	0.2320328542094456	-0.3747454175152749	0.6797520661157025
3848.663330078125	0.1788222936009167	-9.602180791735705	-1.960743120030556	0.7207254844668104	3.346342045603749	0.3912196692610044	0.2320328542094456	-0.3788187372708757	0.6838842975206612
3852.569580078125	-0.09087087878073344	-9.909381584139105	-1.970970707308886	0.3621323303158818	2.227234968599963	0.01865102638284081	0.2320328542094456	-0.3788187372708757	0.6838842975206612
3856.475830078125	-0.05315127823153984	-9.597185579961533	-2.228290725615339	0.3622810739724808	0.7399471462665556	0.003776660722940747	0.2320328542094456	-0.3788187372708757	0.6838842975206612
3860.382080078125	0.07688158348192212	-9.951808288007513	-1.896052782730737	0.3622067021441813	1.483591057433259	0.01121384355289078	0.2176591375770021	-0.3808553971486761	0.6900826446280992
3864.288330078125	-0.01222831122968422	-9.597287153964267	-2.25905629234386	0.7209857858658586	0.7435883565202867	0.3651895293561793	0.2176591375770021	-0.3808553971486761	0.6900826446280992
3868.194580078125	-0.09781544918500271	-9.838293661903151	-2.07281836049991	-0.3697684713580345	1.133838581957961	0.7449630778324301	0.2176591375770021	-0.3808553971486761	0.6900826446280992
3872.100830078125	-0.00449827726390551	-9.841454442981997	-1.850057424536483	-1.079578940016787	-1.862695433524073	-0.7377581722343429	0.2176591375770021	-0.3808553971486761	0.6900826446280992
3876.007080078125	0.1252112510557624	-9.629515028825304	-2.173708368525413	0.003725105735701979	-0.7509818863205826	-0.3725105735701979	0.2340862422997947	-0.3665987780040733	0.6859504132231405
3879.913330078125	0.1299027397379107	-9.671331447484743	-1.996757991263689	3.718591414975016e-05	-0.3718219555833518	-0.003718591414975016	0.2340862422997947	-0.3665987780040733	0.6859504132231405
3883.819580078125	-0.002219959764707943	-9.817384453657255	-2.259334674509736	-0.3585559682367788	-1.490929032587138	-0.3762872342931387	0.2340862422997947	-0.3665987780040733	0.6859504132231405
3887.725830078125	0.0366305190447312	-9.698156132175537	-2.22101730149104	-0.3622067021441813	-1.483591057433259	-0.01121384355289078	0.2361396303901437	-0.3665987780040733	0.6797520661157025
3891.632080078125	0.1002798805401403	-9.910909505292022	-2.009329351338009	7.437182829950031e-05	-0.7436439111667036	-0.007437182829950031	0.2361396303901437	-0.3665987780040733	0.6797520661157025
3895.538330078125	0.3524026431322016	-9.742723145387256	-2.080088104406719	-0.3621695162300315	-1.855413013016611	-0.0149324349678658	0.2361396303901437	-0.3665987780040733	0.6797520661157025
3899.444580078125	0.1859624412775297	-9.593205477320266	-1.865414709250989	-0.717186308301857	-2.238214154007573	-0.7451372857563272	0.2361396303901437	-0.3665987780040733	0.6797520661157025
3903.350830078125	0.06152561313080571	-9.743440051754375	-1.717520437693524	-1.08315530209589	-2.599001369536898	-0.3801219643240451	0.2320328542094456	-0.3747454175152749	0.6921487603305785
3907.257080078125	0.2190686263299058	-9.782501144153331	-1.968954210996858	-0.7208370422092596	-2.230876178853694	-0.3800638950160794	0.2320328542094456	-0.3747454175152749	0.6921487603305785
3911.163330078125	0.2586690808893404	-9.953030330512448	-1.955636029644678	7.437182829950031e-05	-0.7436439111667036	-0.007437182829950031	0.2320328542094456	-0.3747454175152749	0.6921487603305785
3915.069580078125	0.2440039399356961	-9.784438726087458	-1.800131331189869	-0.7246737056874109	-0.3644284257830558	0.003602452799043552	0.2238193018480493	-0.3890020366598778	0.6880165289256198
3918.975830078125	0.03765651110650207	-9.821157728075564	-1.921883703550069	-0.7209857858658586	-0.7435883565202867	-0.3651895293561793	0.2238193018480493	-0.3890020366598778	0.6880165289256198
3922.882080078125	0.4297771128851512	-9.777705400167136	-1.659237096171706	0	0	0	0.2238193018480493	-0.3890020366598778	0.6880165289256198
3926.788330078125	0.1566558179112505	-9.622681285542029	-1.88852726370835	-0.724636519773261	-0.7362503813664076	-0.0001161386159314638	0.2114989733059548	-0.3706720977596741	0.6880165289256198
3930.694580078125	0.03205337997746129	-9.872969407140621	-1.735112665915377	-1.086954779659892	-1.104375572049612	-0.000174207923897194	0.2114989733059548	-0.3706720977596741	0.6880165289256198
3934.600830078125	0.09708045717764646	-9.881943985512562	-1.902681905921549	-0.7208742281234094	-1.859054223270342	-0.3763453036011044	0.2114989733059548	-0.3706720977596741	0.6880165289256198
3938.507080078125	0.2773356697456944	-9.913661466782226	-1.911188991523145	0.007375839643104458	-0.7583198614744615	-0.7375839643104457	0.2114989733059548	-0.3706720977596741	0.6880165289256198
3942.413330078125	0.1811408306198301	-9.534764464766257	-1.704694353994337	0.3550911639001251	-0.3608427701757418	0.7227676679585114	0.2073921971252567	-0.3645621181262729	0.6921487603305785
3946.319580078125	0.2401389229528067	-9.662355081578593	-2.004630765093558	3.718591414975016e-05	-0.3718219555833518	-0.003718591414975016	0.2073921971252567	-0.3645621181262729	0.6921487603305785
3950.225830078125	-0.05467883136270831	-9.70101282214061	-1.84403895457639	0.003687919821552229	-0.3791599307372308	-0.3687919821552229	0.2073921971252567	-0.3645621181262729	0.6921487603305785
3954.132080078125	0.3651609056804946	-9.691931307163307	-2.172030189349818	0.7245621479449615	1.479894292533111	0.007553321445881495	0.2279260780287475	-0.3849287169042769	0.6756198347107438
3958.038330078125	0.2471733958129114	-9.793413935353826	-1.90577986043038	0.362243888058331	1.111769101849907	0.007495252137915762	0.2279260780287475	-0.3849287169042769	0.6756198347107438
3961.944580078125	0.2047489000749976	-9.633797855642419	-1.824963335833252	-0.7211717154366073	1.115521421396473	-0.3465965722813042	0.2279260780287475	-0.3849287169042769	0.6756198347107438
3965.850830078125	0.408762808142639	-9.654500025367215	-1.958760271421297	-0.7175209815292047	1.108183446242593	-0.7116699630215522	0.2279260780287475	-0.3849287169042769	0.6756198347107438
3969.757080078125	0.3754444848392127	-9.955272949901989	-1.84814949464042	0.3694337981306867	2.212559018292205	-0.7114957550976549	0.2279260780287475	-0.3849287169042769	0.6756198347107438
3973.663330078125	0.189446555750169	-9.812078946974113	-1.981551858338965	-0.00387384939230098	2.23826970865399	0.387384939230098	0.2279260780287475	-0.3849287169042769	0.6756198347107438
3977.569580078125	0.1191270629261988	-9.781482249653862	-1.970902097539958	-0.0001115577424492505	1.115465866750055	0.01115577424492505	0.2279260780287475	-0.3849287169042769	0.6756198347107438
3981.475830078125	0.03257386787966635	-9.939467782718909	-2.085795595988878	-7.437182829950031e-05	0.7436439111667036	0.007437182829950031	0.2073921971252567	-0.3849287169042769	0.6880165289256198
3985.382080078125	0.0528981318427401	-9.812896270704181	-1.76327106142467	-0.007450211471403958	1.501963772641165	0.7450211471403958	0.2073921971252567	-0.3849287169042769	0.6880165289256198
3989.288330078125	0.05473088015292881	-9.772303682083887	-1.824362671764294	-0.365968993794033	-0.3607872155293249	0.3650153214322821	0.2073921971252567	-0.3849287169042769	0.6880165289256198
3993.194580078125	0.09039297625234516	-9.350772937678409	-2.013099208411505	-0.724636519773261	-0.7362503813664076	-0.0001161386159314638	0.2053388090349076	-0.3849287169042769	0.6797520661157025
3997.100830078125	0.3343369812174843	-9.761897709406346	-2.14456604058281	-0.7208742281234094	-1.859054223270342	-0.3763453036011044	0.2053388090349076	-0.3849287169042769	0.6797520661157025
4001.007080078125	0.1377479119366014	-9.922128175140497	-1.924930397886714	-0.7245249620308118	-1.851716248116463	-0.01127191286085651	0.2053388090349076	-0.3849287169042769	0.6797520661157025
4004.913330078125	0.3331106801751679	-9.645627546743363	-1.770356005838928	-1.086954779659892	-1.104375572049612	-0.000174207923897194	0.2053388090349076	-0.3849287169042769	0.6797520661157025
4008.819580078125	0.2133763813630632	-9.56434163669261	-1.779212712102106	-0.3695081699589862	-1.468915107125501	0.7189329379276049	0.2340862422997947	-0.3727087576374745	0.6818181818181819
4012.725830078125	0.2312874741431863	-9.371883716693704	-2.042915804772874	-0.3622067021441813	-1.483591057433259	-0.01121384355289078	0.2340862422997947	-0.3727087576374745	0.6818181818181819
4016.632080078125	0.09081173242821013	-9.840637539848213	-2.027057747607004	0.3587047118933778	0.003641210253730994	0.3614128686332386	0.2340862422997947	-0.3727087576374745	0.6818181818181819
4020.538330078125	0.3637382387478008	-9.865724636138211	-1.791274624926691	-0.003650733907402479	0.007337975153878983	0.3650733907402479	0.215605749486653	-0.3625254582484725	0.6797520661157025
4024.444580078125	0.6454531044343204	-9.647970162899568	-1.848436814477345	-1.08714070923064	0.7547342058671476	0.01841874915097788	0.215605749486653	-0.3625254582484725	0.6797520661157025
4028.350830078125	0.5368091410293516	-9.666431711067178	-1.893638034311719	-0.3550911639001251	0.3608427701757418	-0.7227676679585114	0.215605749486653	-0.3625254582484725	0.6797520661157025
4032.257080078125	0.2189030165428405	-9.882554691317816	-1.96343388476135	0.3695081699589862	1.468915107125501	-0.7189329379276049	0.215605749486653	-0.3625254582484725	0.6797520661157025
4036.163330078125	0.468562136397798	-9.755164909231379	-1.952071213259929	0.724487776116662	2.223538203699815	0.01499050427583152	0.215605749486653	-0.3625254582484725	0.6797520661157025
4040.069580078125	0.2281606036397877	-10.02289473815647	-1.938686787992922	0.3657458783091345	2.591718949029436	-0.342703772942432	0.215605749486653	-0.3625254582484725	0.6797520661157025
4043.975830078125	0.5140267546554095	-9.697131349328084	-1.80089182184698	0.007041166415756707	2.588077738775705	-0.7041166415756707	0.215605749486653	-0.3625254582484725	0.6797520661157025
4047.882080078125	0.1991402486197213	-9.822277986279623	-1.971341620657376	0.7205767408102114	4.833629867937157	0.4060940349209045	0.2217659137577002	-0.3788187372708757	0.6962809917355373
4051.788330078125	-0.2729888071442485	-9.898266380976642	-1.900373095191717	1.086768850089143	2.96348534996637	0.01876716499877227	0.2217659137577002	-0.3788187372708757	0.6962809917355373
4055.694580078125	0.209821291267396	-9.578824449156874	-2.327376375579864	-0.7249340070864591	2.238325263300407	0.02963259270386866	0.2217659137577002	-0.3788187372708757	0.6962809917355373
4059.600830078125	0.1606359731270519	-9.751394368688921	-2.021199104235063	-0.3624670035432295	1.119162631650203	0.01481629635193433	0.2238193018480493	-0.3910386965376782	0.6838842975206612
4063.507080078125	-0.02683430583080516	-9.678676425551961	-2.105523138973161	0.3621323303158818	2.227234968599963	0.01865102638284081	0.2238193018480493	-0.3910386965376782	0.6838842975206612
4067.413330078125	0.07504489208156519	-9.70906881822696	-2.168163069385506	0.3549052343293763	1.498267007741017	0.7413606250333865	0.2238193018480493	-0.3910386965376782	0.6838842975206612
4071.319580078125	-0.01895837752880232	-9.739463208734314	-2.034720749039923	-0.72478526342986	0.7510374409669995	0.0147582270439686	0.2238193018480493	-0.3910386965376782	0.6838842975206612
4075.225830078125	0.4745398610928196	-9.95323211157999	-2.151328703093985	-0.3660433656223325	0.3828566956373787	0.3724525042622321	0.2176591375770021	-0.3767820773930753	0.6714876033057852
4079.132080078125	-0.003326390865910495	-9.781075533046645	-1.88912030446965	-0.007487397385553709	1.873785728224517	0.7487397385553708	0.2176591375770021	-0.3767820773930753	0.6714876033057852
4083.038330078125	0.2077827136504261	-9.762816922586362	-1.926090455014204	-0.3623554458007803	0.003696764900147988	0.003660522107009284	0.2176591375770021	-0.3767820773930753	0.6714876033057852
4086.944580078125	0.3000746821277862	-9.432975852778682	-2.002489404259536	-0.3587047118933778	-0.003641210253730994	-0.3614128686332386	0.2402464065708419	-0.3808553971486761	0.6900826446280992
4090.850830078125	0.003648147023637236	-9.872153765795693	-1.788271567454575	-0.358667525979228	-0.3754631658370828	-0.3651314600482136	0.2402464065708419	-0.3808553971486761	0.6900826446280992
4094.757080078125	0.06490010969676847	-9.819015631198045	-2.163336989892283	0.3658574360515838	1.47625308227938	-0.3538595471873571	0.2402464065708419	-0.3808553971486761	0.6900826446280992
4098.663330078125	0.2180773334616152	-9.752821662180745	-1.935911115387173	0.3622810739724808	0.7399471462665556	0.003776660722940747	0.2402464065708419	-0.3808553971486761	0.6900826446280992
4102.569580078125	-0.04494570759147379	-9.877865778787912	-2.168476413617541	-0.36239263171493	0.3755187204834998	0.007379113521984299	0.2402464065708419	-0.3808553971486761	0.6900826446280992
4106.475830078125	0.02400711018019133	-9.838904367708405	-2.133570339339711	-0.3587418978075275	0.3681807453296208	-0.3576942772182636	0.2402464065708419	-0.3808553971486761	0.6900826446280992
4110.382080078125	0.09296465966005832	-9.873274760043248	-1.765488655335277	-0.366117737450632	1.126500606804082	0.3798896870921822	0.2402464065708419	-0.3808553971486761	0.6900826446280992
4114.288330078125	0.1054634668752824	-9.579233479043658	-2.182115562509414	-0.3623554458007803	0.003696764900147988	0.003660522107009284	0.2299794661190965	-0.3808553971486761	0.6983471074380165
4118.194580078125	0.03353598188071205	-9.739156699191904	-2.117866062690402	7.437182829950031e-05	-0.7436439111667036	-0.007437182829950031	0.2299794661190965	-0.3808553971486761	0.6983471074380165
4122.100830078125	-0.06129375942891437	-9.849818315548681	-1.956874685702854	-1.08319248801004	-2.227179413953546	-0.3764033729090701	0.2299794661190965	-0.3808553971486761	0.6983471074380165
4126.007080078125	0.1806850093963839	-9.581578513628502	-2.022833646546129	-0.007227095986505457	-0.7289679608589457	0.7227095986505457	0.2073921971252567	-0.3747454175152749	0.6942148760330579
4129.913330078125	0.1100098498392402	-9.594430148551979	-1.66699499464134	-0.7282500677665138	-1.10073436179588	0.3612386607093414	0.2073921971252567	-0.3747454175152749	0.6942148760330579
4133.819580078125	0.2360183937270167	-9.580354052694933	-2.20061312423389	-0.3658574360515838	-1.47625308227938	0.3538595471873571	0.2073921971252567	-0.3747454175152749	0.6942148760330579
4137.725830078125	0.3037583169629374	-9.855118144181983	-1.791943898764577	-0.3622067021441813	-1.483591057433259	-0.01121384355289078	0.2073921971252567	-0.3747454175152749	0.6942148760330579
4141.632080078125	0.1952200283744769	-9.733545524158918	-1.840667612482562	-0.007338653728954708	0.3864979058911098	0.7338653728954707	0.2197125256673511	-0.3910386965376782	0.6673553719008265
4145.538330078125	0.3978073264192563	-9.644708964457774	-1.926910880641872	-0.003576362079102979	-0.7363059360128246	0.3576362079102978	0.2197125256673511	-0.3910386965376782	0.6673553719008265
4149.444580078125	0.1750361384213917	-9.813404981910418	-1.834537947379725	0.3587418978075275	-0.3681807453296208	0.3576942772182636	0.2197125256673511	-0.3910386965376782	0.6673553719008265
4153.350830078125	0.4053078725372445	-9.665617121212959	-1.843595751241482	0.3550539779859753	0.01097918540760998	0.7264862593734864	0.2361396303901437	-0.3747454175152749	0.6714876033057852
4157.257080078125	0.3354844204564364	-9.544860037385751	-1.849480681881212	0.3550167920718256	0.3828011409909618	0.7302048507884614	0.2361396303901437	-0.3747454175152749	0.6714876033057852
4161.163330078125	0.3701528578334613	-9.723650575967181	-2.005095261115374	0.7209857858658586	0.7435883565202867	0.3651895293561793	0.2361396303901437	-0.3747454175152749	0.6714876033057852
4165.069580078125	0.4761533735896553	-9.626043742539345	-1.871779119655174	0.007189910072355707	1.100789916442297	-0.7189910072355706	0.2361396303901437	-0.3747454175152749	0.6714876033057852
4168.975830078125	0.4352903415583566	-9.665922789562799	-1.843011385278552	0.362095144401732	2.599056924183315	0.02236961779781583	0.2361396303901437	-0.3747454175152749	0.6714876033057852
4172.882080078125	0.4597556388160952	-9.49467901011613	-1.991854627203169	0.7243762183742128	3.33900407044987	0.02614627852075657	0.2361396303901437	-0.3747454175152749	0.6714876033057852
4176.788330078125	0.3599173843747955	-9.983626712385483	-1.997246145826515	-0.3553514652991733	2.963596459259204	-0.6967375280536863	0.2361396303901437	-0.3747454175152749	0.6714876033057852
4180.694580078125	0.2636768054029799	-9.784744499586369	-1.789226846765996	0.3619835866592828	3.71452279093337	0.03352539204274087	0.2402464065708419	-0.3849287169042769	0.6838842975206612
4184.600830078125	0.376631354979847	-9.904889195223184	-1.887711832661562	-0.3553142793850236	2.591774503675853	-0.7004561194686614	0.2402464065708419	-0.3849287169042769	0.6838842975206612
4188.507080078125	0.08864934177995822	-9.661336712824481	-1.954978059331941	-0.0002603013990482511	2.602753689083463	0.02603013990482511	0.2402464065708419	-0.3849287169042769	0.6838842975206612
4192.413330078125	0.06128035292234241	-9.720186019221776	-2.042678430744747	0.3584815964084793	2.234572943753842	0.3837244171230887	0.2238193018480493	-0.3767820773930753	0.6735537190082644
4196.319580078125	0.0340974779206666	-9.552308482138985	-1.80324926402222	-0.7248596352581596	1.494681352133703	0.02219540987391863	0.2238193018480493	-0.3767820773930753	0.6735537190082644
4200.225830078125	0.2059207864729926	-9.573418945707065	-1.86402621576642	-1.083415603494938	0.003752319546564981	-0.35409182441922	0.2238193018480493	-0.3767820773930753	0.6735537190082644
4204.132080078125	0.05684910819129665	-9.71161878835148	-1.894970273043222	-1.449384597288971	-0.3570348959827598	0.01092349701306212	0.2238193018480493	-0.3767820773930753	0.6735537190082644
4208.038330078125	-0.2915047699561765	-9.827586542285831	-1.949841001460783	-1.086917593745742	-1.476197527632963	-0.00389279933887221	0.215605749486653	-0.3686354378818737	0.6838842975206612
4211.944580078125	0.1102890206231502	-9.921006549998513	-2.009634020771673	-0.7281756959382143	-1.844378272962584	0.3538014778793914	0.215605749486653	-0.3686354378818737	0.6838842975206612
4215.850830078125	0.2608022926703474	-9.902340592036589	-2.02674308901158	-0.7244505902025123	-2.595360159283167	-0.01870909569080654	0.215605749486653	-0.3686354378818737	0.6838842975206612
4219.757080078125	0.247384745445928	-9.513345598972483	-1.9128248481976	-0.731789243931467	-2.208862253392057	0.7151562772046642	0.2217659137577002	-0.3828920570264766	0.6694214876033058
4223.663330078125	0.07184546871907138	-9.6801032984475	-2.061515623969046	-0.3658574360515838	-1.47625308227938	0.3538595471873571	0.2217659137577002	-0.3828920570264766	0.6694214876033058
4227.569580078125	0.1031196940792924	-9.699991298914364	-2.103989802643079	-1.086880407831592	-1.848019483216315	-0.007611390753847227	0.2217659137577002	-0.3828920570264766	0.6694214876033058
4231.475830078125	0.2676427654941757	-9.693462172490216	-1.921425516472522	-0.7208370422092596	-2.230876178853694	-0.3800638950160794	0.2320328542094456	-0.3625254582484725	0.6859504132231405
4235.382080078125	0.1905734909202463	-9.721714571269121	-2.019116364008209	-0.7282500677665138	-1.10073436179588	0.3612386607093414	0.2320328542094456	-0.3625254582484725	0.6859504132231405
