Time Stamp	Accelerometer X	Accelerometer Y	Accelerometer Z	Gyroscope X	Gyroscope Y	Gyroscope Z	Magnetometer X	Magnetometer Y	Magnetometer Z
1704.132080078125	-1.51402440821556	-7.968097387212542	3.192515492617824	23.89010963266541	36.53759881136803	44.89367787490614	-0.2160493827160494	-0.9309623430962343	0.4836601307189543
1708.038330078125	-3.479540270914475	-8.560087697508061	2.688715363930604	24.42163879991097	6.329664089370464	31.0066928673088	-0.2160493827160494	-0.9309623430962343	0.4836601307189543
1711.944580078125	-3.599121719475947	-8.397020432443096	2.594662811688137	43.42276556134459	-3.17492897345817	18.83617523856731	-0.2160493827160494	-0.9309623430962343	0.4836601307189543
1715.850830078125	-3.469243232111856	-8.540484827347173	2.649394437422634	55.74364131894281	-6.909780312670521	2.572411630835559	-0.2160493827160494	-0.9309623430962343	0.4836601307189543
1719.757080078125	-3.42117522828917	-8.784189495583627	2.617487863847018	61.21204531210038	-8.984534163025049	-4.618147228422703	-0.2160493827160494	-0.9309623430962343	0.4836601307189543
1723.663330078125	-3.2566661150865	-8.494894336932791	2.583092662406536	63.18998906235412	-8.925195850517436	-11.78736516605234	-0.323045267489712	-0.8807531380753137	0.5599128540305012
1727.569580078125	-3.114802201927427	-8.449917162439634	2.314032887535512	-6.659725854797443	-16.61770222340512	-16.01523362600764	-0.323045267489712	-0.8807531380753137	0.5599128540305012
1731.475830078125	-3.317248996998602	-8.492576467536932	2.693713838168319	-25.43678536539921	-16.06161102364855	-19.02854063853837	-0.323045267489712	-0.8807531380753137	0.5599128540305012
1735.382080078125	-3.265866864309996	-8.404868249181389	2.476390848190761	-17.92880081021548	-12.85129686012736	-17.86436202520505	-0.323045267489712	-0.8807531380753137	0.5599128540305012
1739.288330078125	-3.366874035145185	-8.404575231690195	2.303678255639797	-17.16133329289706	-9.470063879383927	-18.20790818596365	-0.323045267489712	-0.8807531380753137	0.5599128540305012
1743.194580078125	-3.296969155392541	-8.484794327132873	2.502386551685391	-17.12361401146985	-7.976394987508274	-17.81561300647886	-0.323045267489712	-0.8807531380753137	0.5599128540305012
1747.100830078125	-3.114961845939871	-8.465881563684004	2.737475495275594	-16.01761965778095	-6.823812171822981	-16.67201170662389	-0.323045267489712	-0.8807531380753137	0.5599128540305012
1751.007080078125	-3.41778228782217	-8.444895448883653	2.210244071344263	-15.61120600472556	-6.065351105514901	-14.77763464313062	-0.308641975308642	-0.8891213389121339	0.533769063180828
1754.913330078125	-3.175777121034644	-8.486803012555267	2.543902078161891	-16.31835817623871	-5.713431342302087	-15.15147393606453	-0.308641975308642	-0.8891213389121339	0.533769063180828
1758.819580078125	-3.553329148033154	-8.868268338668932	2.026103796636727	-16.66438744700332	-5.350677892066816	-15.14784640156218	-0.308641975308642	-0.8891213389121339	0.533769063180828
1762.725830078125	-3.621990219055936	-8.66366837024005	2.146758295459055	-16.28818077862593	-4.593123035299076	-14.76291236242846	-0.308641975308642	-0.8891213389121339	0.533769063180828
1766.632080078125	-3.60379383285278	-8.864231770126446	2.328831281245959	-15.5584029556695	-3.824961043893966	-14.37787225194838	-0.308641975308642	-0.8891213389121339	0.533769063180828
1770.538330078125	-3.622900594088922	-8.754705873538644	2.132096306442785	-15.21238354725996	-3.814580461641679	-14.75512693669189	-0.308641975308642	-0.8891213389121339	0.533769063180828
1774.444580078125	-3.479385678927742	-8.544628498834715	2.214742395036664	-15.56597442654914	-3.078919531303937	-15.50248730852059	-0.308641975308642	-0.8891213389121339	0.533769063180828
1778.350830078125	-3.571689219869322	-8.684073502083725	2.227049129666818	-14.48263531136874	-1.927016372773898	-15.49096827693529	-0.2962962962962963	-0.8682008368200836	0.5490196078431373
1782.257080078125	-3.418273344721206	-8.494001138787221	2.349198017694235	-13.38418284149427	-1.147794141961246	-14.35110058292905	-0.2962962962962963	-0.8682008368200836	0.5490196078431373
1786.163330078125	-3.580785897363187	-8.583640241369221	2.151171745119524	-13.75287721312246	-0.4125863163936737	-15.85318246693752	-0.2962962962962963	-0.8682008368200836	0.5490196078431373
1790.069580078125	-3.580272611551027	-8.532311660153143	2.23455138784653	-13.03064127398045	-0.0177849098612046	-15.47187596230616	-0.2962962962962963	-0.8682008368200836	0.5490196078431373
1793.975830078125	-3.640992908562448	-8.543735300689145	1.980847750324363	-12.28576982104009	1.123964218801633	-14.70574148988746	-0.2962962962962963	-0.8682008368200836	0.5490196078431373
1797.882080078125	-3.190125884456879	-8.911578344677709	2.461913763315486	-11.92465678264663	1.507931938311646	-14.70190181269236	-0.2962962962962963	-0.8682008368200836	0.5490196078431373
1801.788330078125	-3.651086855931515	-8.543029027494853	2.031287175015438	-12.26313430724174	1.870911940932002	-14.32091352210012	-0.2962962962962963	-0.8682008368200836	0.5490196078431373
1805.694580078125	-3.420303248651582	-8.696991531824818	2.248119108093961	-12.2178731420001	3.737941417680295	-13.92488473676659	-0.2839506172839507	-0.8744769874476986	0.533769063180828
1809.600830078125	-3.722572009326323	-8.620837296268604	2.188298071658964	-12.60161183183685	2.233891943552357	-13.93992523150787	-0.2839506172839507	-0.8744769874476986	0.533769063180828
1813.507080078125	-3.711364595490718	-8.510196922809122	2.163639134167263	-11.85673051654142	3.002507039727638	-12.80016360884801	-0.2839506172839507	-0.8744769874476986	0.533769063180828
1817.413330078125	-4.06533881849952	-8.554083870154008	2.117501004165891	-12.59406994802242	2.607252528424999	-13.93619162565915	-0.2839506172839507	-0.8744769874476986	0.533769063180828
1821.319580078125	-3.975183398889935	-8.629451000104568	1.831805919036176	-12.57141470951392	2.607932185580254	-12.80410935738948	-0.2839506172839507	-0.8744769874476986	0.533769063180828
1825.225830078125	-4.107571732626874	-8.736971242485405	1.926116124589865	-12.2027696496611	3.738394522450466	-13.17016322458682	-0.2839506172839507	-0.8744769874476986	0.533769063180828
1829.132080078125	-3.598259843889779	-8.310832873826337	2.124233333627362	-12.1952179034916	3.73862107483555	-12.79280246849693	-0.2839506172839507	-0.8744769874476986	0.533769063180828
1833.038330078125	-3.922546343014905	-8.416250463106568	2.045012518465028	-11.11185906360106	4.144256168390476	-12.0340291364293	-0.2818930041152264	-0.8765690376569036	0.5381263616557734
1836.944580078125	-4.084539547413873	-8.45395474138726	1.991002322001953	-12.51106977664343	5.221682832073832	-12.40061336035851	-0.2818930041152264	-0.8765690376569036	0.5381263616557734
1840.850830078125	-3.834166205239899	-8.669145776515096	2.184766705687503	-13.22573424490579	4.080839912951333	-11.65730480841766	-0.2818930041152264	-0.8765690376569036	0.5381263616557734
1844.757080078125	-3.873145614809856	-8.526682693106787	2.211702085964239	-13.25589191780843	2.21426354097321	-11.2986120815714	-0.2818930041152264	-0.8765690376569036	0.5381263616557734
1848.663330078125	-3.600571650854787	-8.542013570327095	2.233863301944795	-13.59437930475862	2.950377576081122	-11.29125094122032	-0.2674897119341564	-0.8870292887029287	0.5403050108932462
1852.569580078125	-3.883990293199466	-8.60104952196672	1.824036913898963	-13.21818249873629	4.081066465336418	-11.27994405232777	-0.2674897119341564	-0.8870292887029287	0.5403050108932462
1856.475830078125	-3.802265694095135	-8.509397692341761	2.061759983694486	-12.8344240841894	4.838847874489244	-10.51764925710416	-0.2674897119341564	-0.8870292887029287	0.5403050108932462
1860.382080078125	-3.540291890485299	-8.574643593984419	2.121723487254513	-13.56422163185598	4.816953948059246	-11.64994366806658	-0.271604938271605	-0.8807531380753137	0.5359477124183007
1864.288330078125	-3.622434797318438	-8.708126196490195	1.740490554323518	-12.45822727816708	5.96953676374454	-10.50634236821161	-0.271604938271605	-0.8807531380753137	0.5359477124183007
1868.194580078125	-3.742387064567041	-8.58214080013842	1.977913533791854	-13.15782770351073	6.321683079342439	-10.50282090505563	-0.271604938271605	-0.8807531380753137	0.5359477124183007
1872.100830078125	-3.642187207440349	-8.66316518847931	2.156682494764258	-13.5340442342432	5.937262255062256	-11.26138209443051	-0.271604938271605	-0.8807531380753137	0.5359477124183007
1876.007080078125	-3.754265387416966	-8.759872075029939	2.362847580758172	-12.80425654893169	6.332290213979811	-10.50271483370926	-0.271604938271605	-0.905857740585774	0.514161220043573
1879.913330078125	-3.601601253694534	-8.644973854301863	2.036785799798467	-12.4204981343848	7.090071623132635	-9.740420038485656	-0.271604938271605	-0.905857740585774	0.514161220043573
1883.819580078125	-3.791125977404048	-8.405527033334005	2.370095216842088	-12.05938509599133	7.474039342642648	-9.736580361290555	-0.271604938271605	-0.905857740585774	0.514161220043573
1887.725830078125	-3.742756872849031	-8.619121628337405	2.319495137733428	-13.49631509046091	7.057797114450352	-10.49545976470455	-0.257201646090535	-0.8891213389121339	0.5206971677559913
1891.632080078125	-3.53160745828939	-8.716301384494514	2.114727442050967	-10.59228756626404	9.383723910325511	-8.962766534481652	-0.257201646090535	-0.8891213389121339	0.5206971677559913
1895.538330078125	-3.833651909022596	-8.617716154784814	2.278252420645281	-10.23872627404008	9.767465077450439	-9.33628761337644	-0.257201646090535	-0.8891213389121339	0.5206971677559913
1899.444580078125	-3.589977552940406	-8.492704788989974	2.135424580980694	-11.29944960013226	10.10877770602588	-9.710232977656723	-0.257201646090535	-0.8891213389121339	0.5206971677559913
1903.350830078125	-3.621075802402382	-8.572226704884638	2.201844573398411	-10.9383365617388	10.4927454255359	-9.706393300461624	-0.2818930041152264	-0.899581589958159	0.5359477124183007
1907.257080078125	-3.581083966880092	-8.61344719305966	2.200183467344883	-10.20854887642729	10.88777338445345	-8.947726039740372	-0.2818930041152264	-0.899581589958159	0.5359477124183007
1911.163330078125	-3.700268326220738	-8.410671005912175	2.037413261391679	-10.5545781471919	11.25052683468872	-8.944098505238019	-0.2818930041152264	-0.899581589958159	0.5359477124183007
1915.069580078125	-3.801235080850246	-8.406336367852786	2.268943558071586	-10.90814930177094	11.23991970005135	-8.944204576584394	-0.2798353909465021	-0.8765690376569036	0.5098039215686275
1918.975830078125	-3.863872116416132	-8.60943386383544	2.035940090694572	-10.18591336262894	11.63472110658382	-8.562898071953031	-0.2798353909465021	-0.8765690376569036	0.5098039215686275
1922.882080078125	-3.712385104684187	-8.612247842156046	2.057516282097882	-9.824760874815185	10.5261526961436	-7.064549793793281	-0.2798353909465021	-0.8765690376569036	0.5098039215686275
1926.788330078125	-3.78073092930265	-8.376123233295244	2.30096228661797	-9.493844958744646	10.53608017362572	-8.196525990716573	-0.2798353909465021	-0.8765690376569036	0.5098039215686275
1930.694580078125	-3.640570559213071	-8.501500365751507	2.16478190238292	-10.54701653866733	10.87761935458625	-8.193110598906969	-0.2880658436213992	-0.8933054393305438	0.514161220043573
1934.600830078125	-3.932424063683574	-8.393921519872434	2.23794938033924	-10.20098726790272	10.51486590435098	-8.196738133409321	-0.2880658436213992	-0.8933054393305438	0.514161220043573
1938.507080078125	-3.752689155395371	-8.602248872870334	1.966704099145965	-9.847406250968611	10.15233900650079	-7.823004911821785	-0.2880658436213992	-0.8933054393305438	0.514161220043573
1942.413330078125	-3.841341092153587	-8.376533457782916	2.138719512148915	-9.471199582591218	10.90989386326853	-7.43807087268807	-0.2592592592592593	-0.8974895397489538	0.5272331154684097
1946.319580078125	-4.005544052598216	-8.635213340629672	2.204951569210211	-9.478741466405646	10.53653327839589	-7.441804478536796	-0.2592592592592593	-0.8974895397489538	0.5272331154684097
1950.225830078125	-3.933035358794513	-8.455051030966384	2.184381741328383	-9.463647836421719	10.91012041565362	-7.060710116598181	-0.2592592592592593	-0.8974895397489538	0.5272331154684097
1954.132080078125	-4.016153306589728	-8.686037729679867	2.151799206712736	-10.56963232775554	9.384403567480765	-7.830684266211986	-0.2592592592592593	-0.8974895397489538	0.5272331154684097
1958.038330078125	-3.893961981546345	-8.588117346553638	2.087210068412411	-9.478731604050575	10.16339924590833	-7.068177328295635	-0.2777777777777778	-0.907949790794979	0.4967320261437909
1961.944580078125	-3.862956689357437	-8.517891157965822	2.101132440864701	-9.83229289627454	9.779658078783406	-6.694656249400846	-0.2777777777777778	-0.907949790794979	0.4967320261437909
1965.850830078125	-3.902561539710322	-8.437972152850334	1.933015170899774	-9.117608703302034	10.17423293293079	-6.690710500859372	-0.2777777777777778	-0.907949790794979	0.4967320261437909
1969.757080078125	-3.781672626895039	-8.470292992534191	1.973012058447775	-8.425560024127885	9.821860064947805	-7.071592720105239	-0.2613168724279836	-0.907949790794979	0.5076252723311547
1973.663330078125	-3.732283013146553	-8.581836668190665	2.028534831408497	-9.125160449471535	10.1740063805457	-7.068071256949261	-0.2613168724279836	-0.907949790794979	0.5076252723311547
1977.569580078125	-3.96434074131061	-8.555286252273048	2.199258946639909	-8.764027686367925	9.811706035080604	-6.316977279271836	-0.2613168724279836	-0.907949790794979	0.5076252723311547
1981.475830078125	-4.076040019358959	-8.614102945996848	2.154797078769195	-10.93830697467358	9.373343328073226	-8.585511849738136	-0.2613168724279836	-0.907949790794979	0.5076252723311547
1985.382080078125	-3.843545796173538	-8.597003859777956	2.309492126827145	-9.110056957132535	10.17445948531588	-6.313349744769483	-0.2880658436213992	-0.907949790794979	0.514161220043573
1989.288330078125	-3.984755977205705	-8.576607821580561	2.046473564300431	-8.756485802553497	10.18506661995325	-6.313243673423109	-0.2880658436213992	-0.907949790794979	0.514161220043573
1993.194580078125	-3.7621526099558	-8.538493318812197	2.26272653523256	-9.83229289627454	9.779658078783406	-6.694656249400846	-0.2880658436213992	-0.907949790794979	0.514161220043573
1997.100830078125	-3.884365153507166	-8.638535552736728	2.115088156686678	-9.501357255493856	9.043317491290409	-7.079378145841813	-0.2469135802469136	-0.9142259414225941	0.5098039215686275
2001.007080078125	-3.802777969502154	-8.560625233043632	1.988486413198252	-8.433092045587237	9.075365447587609	-6.701699175712804	-0.2469135802469136	-0.9142259414225941	0.5098039215686275
2004.913330078125	-4.217017807208455	-8.570467589532331	2.195973109117966	-8.771569570182351	9.438345450207963	-6.320710885120563	-0.2469135802469136	-0.9142259414225941	0.5098039215686275
2008.819580078125	-4.195215285053327	-8.41041739422152	2.082981522892937	-9.132682608575816	9.054377730697951	-6.324550562315663	-0.2469135802469136	-0.9142259414225941	0.5098039215686275
2012.725830078125	-4.239757985335404	-8.824283382025262	2.021438756095888	-8.771569570182351	9.438345450207963	-6.320710885120563	-0.2633744855967078	-0.9100418410041841	0.4880174291938998
2016.632080078125	-4.29813818403784	-8.601697191662772	1.941075172717897	-8.771549845472206	8.692077385232849	-5.573456584638238	-0.2633744855967078	-0.9100418410041841	0.4880174291938998
2020.538330078125	-4.085253903849302	-8.525390384930107	1.916716325553386	-9.132662883865672	8.308109665722835	-5.577296261833338	-0.2633744855967078	-0.9100418410041841	0.4880174291938998
2024.444580078125	-4.140093642933999	-8.958859242894739	1.894494485264307	-9.49377592225914	7.924141946212823	-5.581135939028438	-0.2530864197530864	-0.9142259414225941	0.5185185185185186
2028.350830078125	-4.199891440050728	-8.878032893961691	1.776725703527671	-9.523943457516848	6.430699606722256	-5.596070362423344	-0.2530864197530864	-0.9142259414225941	0.5185185185185186
2032.257080078125	-4.178645651128869	-8.77365602197777	2.15589437875346	-9.185456070566664	5.694585571614343	-5.603431502774423	-0.2530864197530864	-0.9142259414225941	0.5185185185185186
2036.163330078125	-4.128472973395296	-8.806893299125463	1.962815049754219	-9.531465616621134	5.3110709568745	-4.852549667789746	-0.2530864197530864	-0.9142259414225941	0.5185185185185186
2040.069580078125	-4.28006809847744	-8.814890655824778	1.869990139759341	-9.170342715872595	5.321904643896956	-4.475082840353483	-0.2633744855967078	-0.907949790794979	0.4793028322440088
2043.975830078125	-4.3200255802249	-8.770234790166793	2.215257701659109	-10.9985730087035	3.774520421679194	-5.999990644839812	-0.2633744855967078	-0.907949790794979	0.4793028322440088
2047.882080078125	-4.127876834361487	-8.747279395744586	1.8647916053035	-9.561623289523771	3.444494584896376	-4.493856940943489	-0.2633744855967078	-0.907949790794979	0.4793028322440088
2051.788330078125	-3.898414837007353	-9.033402892654529	1.994194191845685	-9.192948642605732	3.455554824303918	-3.739029357417338	-0.2633744855967078	-0.9163179916317991	0.477124183006536
2055.694580078125	-4.015485428790834	-8.619249949790445	1.761205880545802	-9.569155310983124	2.697999967536178	-4.123963396551054	-0.2633744855967078	-0.9163179916317991	0.477124183006536
2059.600830078125	-4.32350238431869	-9.117915199545774	1.783697499007808	-9.591780962426407	1.577918212918253	-4.135164214097233	-0.2633744855967078	-0.9163179916317991	0.477124183006536
2063.507080078125	-3.999357341913452	-9.026643282254224	1.458169211963104	-9.952894000819873	1.19395049340824	-4.139003891292333	-0.2633744855967078	-0.9163179916317991	0.477124183006536
2067.413330078125	-3.939424150507687	-9.093930202283818	1.920050662522147	-9.215554569338869	1.589205004710879	-3.002975874481193	-0.2530864197530864	-0.9184100418410041	0.4836601307189543
2071.319580078125	-3.929138226161631	-9.075438777779185	1.769562941475687	-7.808811834837141	1.258272958387722	-3.006285194944425	-0.2530864197530864	-0.9184100418410041	0.4836601307189543
2075.225830078125	-3.736725764556142	-9.026111809149507	2.036579677149489	-8.508412260180791	1.610419273985621	-3.002763731788446	-0.2530864197530864	-0.9184100418410041	0.4836601307189543
2079.132080078125	-3.950756854580906	-9.217099599504705	1.701657653499158	-8.877077044743759	1.226225002090523	-3.383964165073435	-0.2798353909465021	-0.9205020920502092	0.4989106753812637
2083.038330078125	-3.839579955990996	-9.210520851624825	1.57178522856592	-8.16238298941618	1.24766582375035	-3.006391266290799	-0.2798353909465021	-0.9205020920502092	0.4989106753812637
2086.944580078125	-3.807564258660039	-9.039254148832134	1.590769730779874	-7.778634437224359	2.378581265390732	-2.617723621308357	-0.2798353909465021	-0.9205020920502092	0.4989106753812637
2090.850830078125	-3.850055836503758	-9.248007892799977	1.842533390429308	-7.07903401188071	2.026434949792832	-2.621245084464336	-0.2798353909465021	-0.9205020920502092	0.4989106753812637
2094.757080078125	-3.676357088534155	-9.049850267556799	1.803673208666112	-6.349256188924278	2.794596941197943	-2.236204973984247	-0.2757201646090535	-0.9100418410041841	0.485838779956427
2098.663330078125	-3.524975158936982	-9.063172459354712	1.784318898170168	-5.25081358140488	3.946953204498152	-1.469964430219169	-0.2757201646090535	-0.9100418410041841	0.485838779956427
2102.569580078125	-3.747672493865098	-9.110683729944132	1.638302219877274	-4.205203610006762	3.978321503640096	-2.224367728359826	-0.2757201646090535	-0.9100418410041841	0.485838779956427
2106.475830078125	-3.456201932943432	-9.256556930706852	1.775337406862496	-4.159922720054982	5.099082915413277	-1.081084642543981	-0.2695473251028807	-0.9184100418410041	0.4967320261437909
2110.382080078125	-3.58698170169423	-9.203220674473524	1.796898442188675	-4.536149113142519	5.08779612362065	-2.21327298216002	-0.2695473251028807	-0.9184100418410041	0.4967320261437909
2114.288330078125	-3.27179693208868	-8.997875027049812	1.749711511649855	-2.030973633476465	6.282354373085258	-1.823968909099336	-0.2695473251028807	-0.9184100418410041	0.4967320261437909
2118.194580078125	-3.553643384032332	-8.899691938586649	1.913418363169739	-3.783745638742805	6.976039869643686	-1.817032054133752	-0.2695473251028807	-0.9184100418410041	0.4967320261437909
2122.100830078125	-3.444086164885126	-9.055081134977186	1.745128313925522	-2.361919136612222	7.391828993065812	-1.812874162899531	-0.2530864197530864	-0.9267782426778242	0.4989106753812637
2126.007080078125	-3.596989764626224	-9.193925957571818	1.696252996394339	-1.993244489694184	7.402889232473354	-1.05804657937338	-0.2530864197530864	-0.9267782426778242	0.4989106753812637
2129.913330078125	-3.828249272728061	-9.087553535432349	1.769966093127365	-1.263476529092824	8.544185256366021	-1.046633619134453	-0.2530864197530864	-0.9267782426778242	0.4989106753812637
2133.819580078125	-3.584562791784166	-8.961329683467049	1.748411120232039	-0.5563342199347467	8.565399525640764	-1.046421476441706	-0.2798353909465021	-0.9246861924686192	0.4901960784313726
2137.725830078125	-3.666578387569406	-9.082081181183012	1.630442278277277	-0.9174768453934293	9.300833903593423	-2.171142604360292	-0.2798353909465021	-0.9246861924686192	0.4901960784313726
2141.632080078125	-3.412668627398261	-8.943630416593781	1.841924116128652	0.9409604321154703	10.84912433535152	0.8632082244855908	-0.2798353909465021	-0.9246861924686192	0.4901960784313726
2145.538330078125	-3.645466982531439	-8.991142697588341	1.675604356911431	0.1658819944971136	9.706468997148347	-1.412369272292668	-0.2798353909465021	-0.9246861924686192	0.4901960784313726
2149.444580078125	-3.260697631603275	-8.898045988610251	1.653803855566586	1.994112287328015	11.25385321936611	0.1125385321936611	-0.2798353909465021	-0.9330543933054393	0.4749455337690632
2153.350830078125	-3.562977506734578	-8.823003198710289	1.4828160245931	1.994112287328015	11.25385321936611	0.1125385321936611	-0.2798353909465021	-0.9330543933054393	0.4749455337690632
2157.257080078125	-3.643452234678194	-8.789667912263814	1.625092183050129	2.355235188076553	11.26468690638857	0.4900053596299234	-0.2798353909465021	-0.9330543933054393	0.4749455337690632
2161.163330078125	-3.554581040004153	-8.993457535768774	1.625892423922631	3.092554894847413	12.40620948266632	0.8787790759587387	-0.2798353909465021	-0.9330543933054393	0.4749455337690632
2165.069580078125	-3.393204182741834	-9.017387971153058	1.57580462022099	5.244169082289499	13.217026565006	1.641604227914211	-0.2798353909465021	-0.9330543933054393	0.4749455337690632
2168.975830078125	-3.402482733161268	-8.935142002995429	1.701036254336798	4.913233441508815	13.953367152499	2.026326124355179	-0.2798353909465021	-0.9330543933054393	0.4749455337690632
2172.882080078125	-3.697577617327462	-9.151701126685598	1.677156339209618	4.198559110891383	13.18565826586405	2.396007526054867	-0.2798353909465021	-0.9330543933054393	0.4749455337690632
2176.788330078125	-3.483975949488069	-9.003655554867471	1.757401705185988	5.658095032094102	15.46825031364939	2.41883344653272	-0.271604938271605	-0.9309623430962343	0.4923747276688454
2180.694580078125	-3.585508530997124	-9.055903604762813	1.380036603138757	5.66563691590853	15.84161089852203	2.422567052381447	-0.271604938271605	-0.9309623430962343	0.4923747276688454
2184.600830078125	-3.614243442831849	-8.899091757932272	1.852236311008402	6.011666186673141	15.47885744828676	2.418939517879094	-0.271604938271605	-0.9309623430962343	0.4923747276688454
2188.507080078125	-3.415400762902361	-9.216843967003767	1.787832076849071	6.741444009629573	16.24701943969187	2.803979628359183	-0.271604938271605	-0.9309623430962343	0.4923747276688454
2192.413330078125	-3.695853866155127	-8.97932600945208	1.746398393189077	7.832344733334542	17.02601511811944	3.566486566275534	-0.271604938271605	-0.9309623430962343	0.4923747276688454
2196.319580078125	-3.627300908482545	-9.194737312900882	1.554495175775181	9.615284273858592	17.82577196105158	3.574484134704856	-0.271604938271605	-0.9309623430962343	0.4923747276688454
2200.225830078125	-3.654033197325729	-8.837663166916274	1.854909843014263	8.92323559468444	18.17814482903456	3.955366353950723	-0.271604938271605	-0.9309623430962343	0.4923747276688454
2204.132080078125	-3.86025082438703	-9.257405671026174	1.892466602144216	9.314526030690688	19.68242085554759	4.347767604781891	-0.2777777777777778	-0.905857740585774	0.4749455337690632
2208.038330078125	-3.988846097220718	-8.985619823081903	1.541133578176728	10.36768774825831	19.71401570707462	3.970725062731124	-0.2777777777777778	-0.905857740585774	0.4749455337690632
2211.944580078125	-3.839158617046762	-9.168386957201392	1.745613308393706	9.246530728099978	20.79978398154449	-0.1693606507505928	-0.2777777777777778	-0.905857740585774	0.4749455337690632
2215.850830078125	-3.768966782233776	-9.219910546609885	1.784143087675451	10.39031339970159	20.83409746169254	3.981925880277303	-0.2777777777777778	-0.905857740585774	0.4749455337690632
2219.757080078125	-3.970964957421882	-9.217707863400218	1.600415058265872	10.77407181424848	21.59187887084536	4.744220675500907	-0.2777777777777778	-0.905857740585774	0.4749455337690632
2223.663330078125	-3.909342368618611	-9.11605504367926	1.787932106958134	11.48874614486591	22.35958775748031	4.374539273801219	-0.2777777777777778	-0.905857740585774	0.4749455337690632
2227.569580078125	-4.082657162634236	-9.275817273524586	1.62669569601056	12.54945960860303	22.39140916139242	4.374857487840339	-0.2777777777777778	-0.905857740585774	0.4749455337690632
2231.475830078125	-4.133439114668466	-9.303507426442433	1.786419530460487	11.81209059005681	23.11555674755245	2.117948020305713	-0.2839506172839507	-0.9288702928870292	0.4836601307189543
2235.382080078125	-4.215034381914614	-9.382226070249168	1.832172696102739	12.93319829843978	23.89545863552036	4.389897982581619	-0.2839506172839507	-0.9288702928870292	0.4836601307189543
2239.288330078125	-4.052505662790359	-9.290970319439891	2.191896124369799	13.3169468506316	25.02637407716074	4.778565627564061	-0.2839506172839507	-0.9288702928870292	0.4836601307189543
2243.194580078125	-3.910137557465404	-9.195573928358497	1.915261342148836	12.56451378916667	24.25753242860037	3.261443248814306	-0.2839506172839507	-0.9288702928870292	0.4836601307189543
2247.100830078125	-3.587564705461193	-9.261521051169739	2.026300825639427	13.2867398659536	25.0254678676204	3.269122603204506	-0.2839506172839507	-0.9288702928870292	0.4836601307189543
2251.007080078125	-4.150778677311164	-9.017261670510301	2.09348771555996	12.94072045754406	25.01508728536811	3.646377287948021	-0.2839506172839507	-0.9288702928870292	0.4836601307189543
2254.913330078125	-3.9197131669966	-9.143033871377106	2.099610770720775	13.29427188741296	25.7719624849806	2.89922905881207	-0.2839506172839507	-0.9288702928870292	0.4836601307189543
2258.819580078125	-4.09088085008537	-9.088085008537066	2.201656638041991	14.00896594274053	25.79340330664042	3.276801957594706	-0.2942386831275721	-0.9205020920502092	0.485838779956427
2262.725830078125	-4.039213783146708	-8.971883365175749	1.803942986839039	13.602532564975	25.78121030530746	0.6351705936191123	-0.2942386831275721	-0.9205020920502092	0.485838779956427
2266.632080078125	-4.250871431492799	-8.925526987663693	1.975861400948352	14.3625272349645	26.17714447376536	2.903280878699918	-0.2942386831275721	-0.9205020920502092	0.485838779956427
2270.538330078125	-4.076948373581661	-8.704938368267033	2.160347234214469	13.24143925129168	24.65097452082233	1.378585216906337	-0.2942386831275721	-0.9205020920502092	0.485838779956427
2274.444580078125	-4.169341840580884	-8.853375977280276	2.283314550406946	13.61764591966907	25.40852937759007	1.763519256040052	-0.2942386831275721	-0.9205020920502092	0.485838779956427
2278.350830078125	-4.148541640326668	-8.793557972060704	2.246109412266426	13.59500054351564	25.03471568794726	1.005064138011548	-0.2942386831275721	-0.9205020920502092	0.485838779956427
2282.257080078125	-4.164899089171295	-8.40910083632143	2.275269704665953	13.22635548366282	23.90425335107705	1.371118005208884	-0.2942386831275721	-0.9205020920502092	0.485838779956427
2286.163330078125	-4.204603969633244	-8.339184842112225	2.116752293955633	13.57992663824186	23.91486048571442	1.371224076555257	-0.2983539094650206	-0.9163179916317991	0.5054466230936819
2290.069580078125	-4.16530123041783	-8.449314960974974	2.293456997222831	13.19617808605004	22.78394504407404	0.9825564315728159	-0.2983539094650206	-0.9163179916317991	0.5054466230936819
2293.975830078125	-4.204611042469239	-8.339892125711659	2.04600978834023	13.18863620223561	22.4105844592014	0.9788228257240895	-0.2983539094650206	-0.9163179916317991	0.5054466230936819
2297.882080078125	-4.173192494577232	-8.228340366814049	2.152911662774132	12.80488765004379	21.27966901756102	0.590155180741648	-0.2983539094650206	-0.9163179916317991	0.5054466230936819
2301.788330078125	-4.336284009365608	-8.375875684035442	2.224712062573259	12.4437844740054	20.52256726556345	0.95994265378771	-0.308641975308642	-0.8912133891213389	0.485838779956427
2305.694580078125	-4.08119409598855	-8.119409598854913	2.118874144753935	12.04494229182965	19.01806468666534	0.1901806468666534	-0.308641975308642	-0.8912133891213389	0.485838779956427
2309.600830078125	-4.404446950653359	-8.121462742103557	2.277155120661016	10.9238641705119	17.11876070123476	-0.9608878646857657	-0.308641975308642	-0.8912133891213389	0.485838779956427
2313.507080078125	-4.273374164411367	-8.145497249217469	2.15605200195562	10.57031274064301	16.36188550162227	-0.213739635549815	-0.3065843621399177	-0.899581589958159	0.5076252723311547
2317.413330078125	-4.291857505674865	-7.97362935536526	2.134157532932564	10.90880012759319	15.62577146651436	-0.2211007759008941	-0.3065843621399177	-0.899581589958159	0.5076252723311547
2321.319580078125	-4.151579928588809	-8.087285788173757	2.16018051736603	10.1563867908384	14.11066175297888	-0.9909688541683245	-0.3065843621399177	-0.899581589958159	0.5076252723311547
2325.225830078125	-4.454232643217528	-8.049526948015394	2.300456073641803	10.14130302320955	13.3639405832336	-0.9984360658657773	-0.3065843621399177	-0.899581589958159	0.5076252723311547
2329.132080078125	-4.263263040154884	-8.144485833670279	2.277415805187665	9.035318531875724	11.83822373506075	-1.768410215479581	-0.2983539094650206	-0.9184100418410041	0.4989106753812637
2333.038330078125	-4.121169765028567	-8.076572462452615	2.282232406499811	9.765116079542299	11.86011766149075	-0.6361158045171681	-0.2983539094650206	-0.9184100418410041	0.4989106753812637
2336.944580078125	-4.142097276330681	-8.149121572461999	2.056173453664099	9.02024462660194	10.71836853282791	-1.402250276935872	-0.2983539094650206	-0.9184100418410041	0.4989106753812637
2340.850830078125	-4.090794965648297	-8.069395554728642	2.05057176755658	8.644047820579619	9.587679643572613	-1.413557165828425	-0.3209876543209877	-0.901673640167364	0.5119825708061002
2344.757080078125	-4.42415995497473	-8.072561154038681	2.077382868000844	9.351209854447839	8.862625847872241	-0.6660907226533531	-0.3209876543209877	-0.901673640167364	0.5119825708061002
2348.663330078125	-4.547385934883573	-8.273947023710704	1.894364143000983	8.252767246928444	7.710269584572032	-1.432331266418431	-0.3209876543209877	-0.901673640167364	0.5119825708061002
2352.569580078125	-4.180804886917427	-7.97947859073258	1.771339233715409	7.530541170141511	6.942334145552007	-1.440010620808631	-0.3209876543209877	-0.901673640167364	0.5119825708061002
2356.475830078125	-4.501032588586943	-7.679016434451822	1.884170165522853	8.25279683399366	6.590867487109362	-0.3114498156949441	-0.3065843621399177	-0.8912133891213389	0.5119825708061002
2360.382080078125	-4.101520416231144	-8.131839602912398	1.845322108621362	8.237713066364805	5.844146317364078	-0.318917027392397	-0.3065843621399177	-0.8912133891213389	0.5119825708061002
2364.288330078125	-4.638395146838189	-8.283959128263264	1.721236273936637	7.876600027971338	5.460178597854066	-0.3227567045874971	-0.3065843621399177	-0.8912133891213389	0.5119825708061002
2368.194580078125	-4.497287016725369	-8.314560258395357	1.973642551256413	7.507935243408373	5.075984325958968	-0.7039571378724858	-0.3189300411522634	-0.8933054393305438	0.5163398692810458
2372.100830078125	-4.456294880112449	-8.255750637507548	1.875982852656832	7.131748299741124	3.572161404216115	-0.3416368765238766	-0.3189300411522634	-0.8933054393305438	0.5163398692810458
2376.007080078125	-4.164834423242204	-8.402634243412319	1.911957317334336	7.492881062844734	3.209861058751013	0.4094571011535479	-0.3189300411522634	-0.8933054393305438	0.5163398692810458
2379.913330078125	-4.285520244623935	-8.350004260373282	1.88307892796944	7.12421627828177	2.825666786855916	0.02825666786855916	-0.3189300411522634	-0.8933054393305438	0.5163398692810458
2383.819580078125	-4.459321043512886	-8.558366977551154	1.911326824525698	7.13176802445127	2.825893339241001	0.4056174239584478	-0.3127572016460906	-0.8933054393305438	0.5054466230936819
2387.725830078125	-4.51982107220334	-8.547763785990494	1.840544913109756	6.793290499856156	3.188873341861357	0.7866057145506891	-0.3127572016460906	-0.8933054393305438	0.5054466230936819
2391.632080078125	-4.446586907507644	-8.295054387128104	2.005427876214983	5.702419363216403	1.290475565971119	1.144980227357824	-0.3127572016460906	-0.8933054393305438	0.5054466230936819
2395.538330078125	-4.245725438104344	-8.410927648818255	1.930935757117438	5.348858070992435	0.906734398846191	1.518501306252613	-0.3065843621399177	-0.8974895397489538	0.514161220043573
2399.444580078125	-4.489312899344319	-8.527249530391476	1.932784798527387	4.619080248036004	0.1385724074410801	1.133461195772524	-0.3065843621399177	-0.8974895397489538	0.514161220043573
2403.350830078125	-4.086952394893085	-8.695239489308504	2.10012607734322	4.626631994205503	0.1387989598261651	1.510821951862413	-0.3065843621399177	-0.8974895397489538	0.514161220043573
2407.257080078125	-4.268534323780954	-8.671614196277121	2.07928950250389	4.626641856560575	-0.2343350726613917	1.884449102103575	-0.3065843621399177	-0.8974895397489538	0.514161220043573
2411.163330078125	-4.368492694078697	-8.566441125041267	2.295669784483918	3.919489685047425	0.1175846905514228	1.510609809169665	-0.2962962962962963	-0.8870292887029287	0.5228758169934641
2415.069580078125	-4.368524016638101	-8.569573380981618	1.982381545329993	4.288164331965463	0.1286449299589639	2.265437392695816	-0.2962962962962963	-0.8870292887029287	0.5228758169934641
2418.975830078125	-4.3118483714103	-8.962614918807736	2.185518447113187	3.174598507396923	-0.2778963731363013	-0.002778963731363013	-0.2962962962962963	-0.8870292887029287	0.5228758169934641
2422.882080078125	-4.491622685499043	-8.758228145863825	2.062626911306364	3.603667398960812	0.4812443503270333	3.023680368031572	-0.3168724279835391	-0.8953974895397488	0.533769063180828
2426.788330078125	-4.299149599585031	-8.702838746381854	1.925906970725461	3.979874067338205	1.238799207094773	3.408614407165288	-0.3168724279835391	-0.8953974895397488	0.533769063180828
2430.694580078125	-3.905964584228742	-8.778276604692357	2.239198241094812	3.250076519671629	1.216905280664776	2.276319996202874	-0.3168724279835391	-0.8953974895397488	0.533769063180828
2434.600830078125	-4.207741277599305	-8.652915638718367	2.050529330540614	4.310799845763817	0.8755926520893325	2.650265360483158	-0.3168724279835391	-0.8953974895397488	0.533769063180828
2438.507080078125	-4.248241346908046	-8.662518529188398	2.019341155020995	3.979874067338205	1.238799207094773	3.408614407165288	-0.3004115226337449	-0.8912133891213389	0.5054466230936819
2442.413330078125	-3.91658192146139	-8.829909317856192	2.105197300751163	2.565579586666977	1.569504701032845	3.034562971538631	-0.3004115226337449	-0.8912133891213389	0.5054466230936819
2446.319580078125	-4.088160839442976	-8.816083944297537	2.13447581055231	2.204456685918438	1.558671014010389	2.657096144102368	-0.3004115226337449	-0.8912133891213389	0.5054466230936819
2450.225830078125	-3.91627576870335	-8.799294042052114	2.137034156371977	1.820678546661402	1.547157669832678	1.14754704839644	-0.308641975308642	-0.905857740585774	0.5294117647058824
2454.132080078125	-3.966143304084025	-8.735542529614548	2.351844268761261	2.234643945886293	2.305845288525842	3.419284867979598	-0.308641975308642	-0.905857740585774	0.5294117647058824
2458.038330078125	-3.866812395379494	-8.903461760171631	1.920199192078028	1.51996961526886	1.538136401890902	3.788966269679287	-0.308641975308642	-0.905857740585774	0.5294117647058824
2461.944580078125	-3.997051597379297	-8.796068828838694	2.298003820362051	1.850875668984328	1.921197911860575	2.283362922514832	-0.308641975308642	-0.905857740585774	0.5294117647058824
2465.850830078125	-3.81364083518432	-8.636810791159252	2.429012951080094	1.497294652050217	2.283724809710761	1.909629700927296	-0.3148148148148148	-0.8640167364016735	0.5250544662309369
2469.757080078125	-3.702643788709695	-8.64821725480784	2.520461689271501	1.519959752913788	1.911270434378459	3.415339119438125	-0.3148148148148148	-0.8640167364016735	0.5250544662309369
2473.663330078125	-3.812438453065282	-8.516572579255449	2.334026784486373	1.858407690443683	2.667692529220774	1.913469378122397	-0.3148148148148148	-0.8640167364016735	0.5250544662309369
2477.569580078125	-3.84375899165851	-8.618323408275186	2.197312906336323	1.858407690443683	2.667692529220774	1.913469378122397	-0.308641975308642	-0.8807531380753137	0.5359477124183007
2481.475830078125	-3.865356401569802	-8.757862379202404	2.341635135206	1.467077805017147	2.655952632657977	0.02655952632657977	-0.308641975308642	-0.8807531380753137	0.5359477124183007
2485.382080078125	-3.753241847008071	-8.6575180341404	2.499288649519869	2.234604496466004	3.79838141847607	1.92477626701495	-0.308641975308642	-0.8807531380753137	0.5359477124183007
2489.288330078125	-3.820492392452553	-8.31186550788151	2.58660584108544	1.896136834225964	3.788227388608869	2.679391707848353	-0.308641975308642	-0.8807531380753137	0.5359477124183007
2493.194580078125	-3.64083629576543	-8.52807402098739	2.537187935992977	2.580604180165399	4.55503006570347	0.8002672817891102	-0.308641975308642	-0.8765690376569036	0.5185185185185186
2497.100830078125	-3.721331231811887	-8.496759544825014	2.47734264983457	2.941727080913938	4.565863752725925	1.177734109225373	-0.308641975308642	-0.8765690376569036	0.5185185185185186
2501.007080078125	-3.72214662876152	-8.578299239788352	2.402550440409836	1.497255202629928	3.776260939660987	0.4151210999626476	-0.308641975308642	-0.8765690376569036	0.5185185185185186
2504.913330078125	-3.499466470720819	-8.532505657940414	2.37676389077961	2.595697810149326	4.928617202961196	1.181361643727725	-0.3127572016460906	-0.8786610878661087	0.5294117647058824
2508.819580078125	-3.731961704311382	-8.549705784673511	2.211962770490888	2.22703302558636	4.544422931066098	0.8001612104427365	-0.3127572016460906	-0.8786610878661087	0.5294117647058824
2512.725830078125	-3.658626499101482	-8.286892334390632	2.377351946572282	2.588155926334899	4.555256618088555	1.177628037878999	-0.3127572016460906	-0.8786610878661087	0.5294117647058824
2516.632080078125	-3.638946838149799	-8.339128259424271	2.243623815616986	1.820639097241114	3.039693799782905	-0.3469615525682087	-0.3127572016460906	-0.8786610878661087	0.5294117647058824
2520.538330078125	-3.851202646339983	-8.352587866321501	2.493353529715475	2.565520412536544	3.808308895958186	0.7928000700916574	-0.3148148148148148	-0.8849372384937237	0.5294117647058824
2524.444580078125	-3.973014059049957	-8.412517016106698	2.317421786381944	2.550426782552618	3.434721758700459	0.4117057081530424	-0.3148148148148148	-0.8849372384937237	0.5294117647058824
2528.350830078125	-3.711827361045776	-8.556473478314954	2.585563102978846	1.835742589580113	3.040146904553075	0.4077599596115685	-0.3148148148148148	-0.8849372384937237	0.5294117647058824
2532.257080078125	-4.021080042062358	-8.168610266841837	2.369540504419103	2.196885215038795	2.304712526600417	1.532481087530155	-0.3168724279835391	-0.8807531380753137	0.5403050108932462
2536.163330078125	-3.911816850811489	-8.353402252865994	2.290686466323333	2.189333468869296	2.304485974215333	1.155120331440267	-0.3168724279835391	-0.8807531380753137	0.5403050108932462
2540.069580078125	-4.081473978212896	-8.147397821289664	2.349795167133186	1.828230292830902	1.547384222217763	1.524907804486329	-0.3168724279835391	-0.8807531380753137	0.5403050108932462
2543.975830078125	-3.982211777058026	-8.322187806812682	2.241038188858483	1.459575370623008	0.7900559178351082	1.517334521442502	-0.3168724279835391	-0.8807531380753137	0.5403050108932462
2547.882080078125	-4.20286102076321	-8.164889955108814	2.378009720319756	1.068275072261688	-0.3410860761903583	0.751306120370172	-0.323045267489712	-0.8870292887029287	0.5228758169934641
2551.788330078125	-4.021479152093468	-8.208521269952763	2.418046013668296	1.098472194584614	0.03295416583753842	1.887121994488564	-0.323045267489712	-0.8870292887029287	0.5228758169934641
2555.694580078125	-4.06300074100082	-8.320276120283925	2.270628913848523	0.7147137800377213	-0.7248272433152863	1.12482719926496	-0.323045267489712	-0.8870292887029287	0.5228758169934641
2559.600830078125	-4.003003894071106	-8.381197487918612	2.359091904845177	0.3611623501688268	-1.481702442927771	1.871975428400911	-0.3148148148148148	-0.8702928870292886	0.5294117647058824
2563.507080078125	-3.882534299389774	-8.455450140997492	2.245472857026935	0.0151626664694316	-2.238351090155171	2.99648441362675	-0.3148148148148148	-0.8702928870292886	0.5294117647058824
2567.413330078125	-4.001123530101753	-8.193161090983338	1.97457313439224	0.361182074878971	-2.227970507902885	2.619229728883235	-0.3148148148148148	-0.8702928870292886	0.5294117647058824
2571.319580078125	-3.813041664935085	-8.576893766235761	2.36130772332169	7.889884057686591e-05	-2.985072259900454	2.989017201929298	-0.3148148148148148	-0.8702928870292886	0.5294117647058824
2575.225830078125	-3.983012017930529	-8.402211894062942	2.317837062895326	0.007630645010076338	-2.984845707515369	3.366377958019186	-0.3148148148148148	-0.8702928870292886	0.5359477124183007
2579.132080078125	-3.885352319330948	-8.737252135114893	2.342465688232764	-0.7221373155912835	-4.126141731408038	3.35496499778026	-0.3148148148148148	-0.8702928870292886	0.5359477124183007
2583.038330078125	-3.884444975513388	-8.646517753358914	2.326809460556719	0.007640507365148446	-3.357979740002926	3.740005108260348	-0.3148148148148148	-0.8702928870292886	0.5359477124183007
2586.944580078125	-3.701953681997675	-8.579206583605909	2.352201952181546	-1.429269762394289	-4.520490033170335	3.728380005328674	-0.3209876543209877	-0.8849372384937237	0.533769063180828
2590.850830078125	-3.994136578544486	-8.504566945357626	2.161092913209301	-0.714585569421784	-4.125915179022952	3.732325753870148	-0.3209876543209877	-0.8849372384937237	0.533769063180828
2594.757080078125	-3.741667656105903	-8.510199954024548	2.10272989139428	0.3687732704687589	-3.720280085468027	4.491099085937773	-0.3209876543209877	-0.8849372384937237	0.533769063180828
2598.663330078125	-4.053616098041471	-8.391912834450039	2.19643385386274	-0.6994919394378571	-3.752328041765225	4.113420115808763	-0.3209876543209877	-0.8849372384937237	0.533769063180828
2602.569580078125	-4.025023653331775	-8.562971393783471	2.319479981656297	-0.6843983094539304	-3.378740904507498	4.494514477747378	-0.3292181069958848	-0.8828451882845187	0.5533769063180829
2606.475830078125	-3.84345789092618	-8.588213335042132	2.178619400803278	-0.6542110494860767	-2.631566629992045	5.256703201624608	-0.3292181069958848	-0.8828451882845187	0.5533769063180829
2610.382080078125	-3.774783684636551	-8.791499776786351	2.189343840980984	-0.6768465632844309	-3.378514352122413	4.871875233837267	-0.3292181069958848	-0.8828451882845187	0.5533769063180829
2614.288330078125	-3.912723184223907	-8.444035594107769	2.316448766230151	-1.782840916973328	-4.531097167807707	3.728273933982301	-0.3148148148148148	-0.8828451882845187	0.5403050108932462
2618.194580078125	-3.806175961994864	-8.900424482314634	2.345199844547149	0.3612116619441873	-3.347372605365555	3.740111179606722	-0.3148148148148148	-0.8828451882845187	0.5403050108932462
2622.100830078125	-3.584806299423399	-8.985680447390425	2.343150742919073	0.7148025412333704	-4.083033535703297	4.48747155143542	-0.3148148148148148	-0.8828451882845187	0.5403050108932462
2626.007080078125	-3.323046701703678	-9.072346938044515	2.280828953757505	1.391757590423595	-4.808993540944009	3.725494970250938	-0.3148148148148148	-0.8828451882845187	0.5403050108932462
2629.913330078125	-3.460293063363588	-8.655568962621386	2.269992358609032	3.204884390915497	-3.262062423496416	4.495681262557489	-0.3045267489711934	-0.8828451882845187	0.5511982570806101
2633.819580078125	-3.272048522969051	-9.023034115086825	2.263602556490716	3.911987250653286	-1.748312024271446	3.001384804285588	-0.3045267489711934	-0.8828451882845187	0.5511982570806101
2637.725830078125	-3.313544851747851	-9.132262952562865	2.368837262440237	5.710000696451118	0.1713000208935335	2.6432224341712	-0.3045267489711934	-0.8828451882845187	0.5511982570806101
2641.632080078125	-3.130959590553929	-9.055555014988807	2.323993461425829	7.109142373007987	1.705811584623075	0.3944166064122685	-0.3045267489711934	-0.8828451882845187	0.5511982570806101
2645.538330078125	-3.043166498166454	-9.367154867150367	2.652725743175969	9.667130764085176	4.767625863221063	1.557110220896362	-0.3045267489711934	-0.8828451882845187	0.5511982570806101
2649.444580078125	-3.274466422473973	-9.264824065579095	2.322195950678124	12.12695631731395	7.453360928325389	-1.812258843546935	-0.3045267489711934	-0.8828451882845187	0.5511982570806101
2653.350830078125	-3.162466043693293	-9.175897298622241	2.347964313015794	12.48048802247269	8.956504192912986	-3.30666137316521	-0.3045267489711934	-0.8828451882845187	0.5511982570806101
2657.257080078125	-3.158930636101265	-8.822356539419378	2.355575694950847	14.63960464430892	11.63321799007554	-4.03461121632566	-0.3251028806584362	-0.8786610878661087	0.542483660130719
2661.163330078125	-3.20751596735668	-8.630384614455823	2.26367833687637	13.21019680894362	12.336604411731	-5.537011314373257	-0.3251028806584362	-0.8786610878661087	0.542483660130719
2665.069580078125	-3.158202133993848	-8.749506328677661	2.571346702630219	11.8185181173606	14.16052569277455	-6.273489082694897	-0.3251028806584362	-0.8786610878661087	0.542483660130719
2668.975830078125	-3.378158239771586	-8.522894684229248	2.570376713693852	10.04310073594084	14.48039749969016	-7.025007345757816	-0.3251028806584362	-0.8786610878661087	0.542483660130719
2672.882080078125	-2.924008409359501	-8.562457097566165	2.552738071129107	8.290318868319426	15.54721702873615	-7.391697641033394	-0.3251028806584362	-0.8786610878661087	0.542483660130719
2676.788330078125	-3.105872241282	-8.567022107997943	2.742610374207485	6.199059476102903	16.97701656040249	-7.37739964571673	-0.3251028806584362	-0.8786610878661087	0.542483660130719
2680.694580078125	-2.953256607006386	-8.456973831951704	2.941558136271746	4.438715999956919	18.41674356955095	-8.495077847323358	-0.3251028806584362	-0.8786610878661087	0.542483660130719
2684.600830078125	-3.125450861719479	-8.50468213154382	2.876844718138948	3.069722133947617	19.12194241028709	-6.978591896651847	-0.3045267489711934	-0.8765690376569036	0.533769063180828
2688.507080078125	-3.227648289812001	-8.623414839785969	2.920391158950966	2.746318514626287	20.60477761514028	-6.963763544603315	-0.3045267489711934	-0.8765690376569036	0.533769063180828
2692.413330078125	-3.130721134940405	-9.031709453636457	2.688824487685945	3.852312868315185	21.75736043082557	-5.820162244748349	-0.3045267489711934	-0.8765690376569036	0.533769063180828
2696.319580078125	-3.278688905562595	-8.676971364340263	2.513162522525341	3.82967735451683	21.01041270869521	-6.20499021253569	-0.3045267489711934	-0.8765690376569036	0.533769063180828
2700.225830078125	-3.168589098854109	-8.778101804602784	2.721328210700512	5.612636619751023	21.06390148665223	-5.449738343624044	-0.3045267489711934	-0.8765690376569036	0.533769063180828
2704.132080078125	-3.309203140852468	-8.698091863024509	2.360286203723079	5.928488492902853	19.58083972941395	-5.841927451762465	-0.3045267489711934	-0.8765690376569036	0.533769063180828
2708.038330078125	-3.423022248888835	-8.96889155555014	2.325406007814413	7.68880238198362	19.26051481772816	-5.845130700879323	-0.3045267489711934	-0.8765690376569036	0.533769063180828
2711.944580078125	-3.562299524884263	-8.755205013678816	2.203384430834894	7.651083100556411	17.76684592585251	-6.237425880364117	-0.3333333333333334	-0.8723849372384936	0.5163398692810458
2715.850830078125	-3.238609164792946	-8.70940132777946	2.380628690447947	8.358225409714489	17.78806019512725	-6.23721373767137	-0.3333333333333334	-0.8723849372384936	0.5163398692810458
2719.757080078125	-3.611786137526386	-8.653361227386011	2.187779733821093	9.072919465042066	17.80950101678708	-5.859640838888733	-0.3333333333333334	-0.8723849372384936	0.5163398692810458
2723.663330078125	-3.629845108630224	-8.439056317567752	2.370031561318139	8.328038149746634	17.0408859206118	-6.999402461548599	-0.3333333333333334	-0.8723849372384936	0.5163398692810458
2727.569580078125	-3.842130218569527	-8.455446099376925	2.326685180724247	8.350693388255133	17.04156557776706	-5.867320193278934	-0.3333333333333334	-0.8723849372384936	0.5163398692810458
2731.475830078125	-3.609489486638509	-8.423696138598325	2.936659692143093	7.989580349861667	16.65759785825704	-5.871159870474034	-0.3333333333333334	-0.8723849372384936	0.5163398692810458
2735.382080078125	-3.922010828289619	-8.362698990577984	2.350725750269013	6.49983744398095	14.37409960093137	-7.403428815311441	-0.3333333333333334	-0.8723849372384936	0.5163398692810458
2739.288330078125	-4.2662790995039	-8.446091768571836	2.413820499364248	7.95942267695903	14.79102148627892	-5.512467143627777	-0.3127572016460906	-0.8933054393305438	0.5294117647058824
2743.194580078125	-4.021449850344348	-8.205591095040822	2.711122108360678	7.56812237859771	13.65987949225345	-6.278495544700108	-0.3127572016460906	-0.8933054393305438	0.5294117647058824
2747.100830078125	-3.892587830553158	-8.450702247235006	2.70015517094888	7.184383688760962	12.15583001812552	-6.293536039441387	-0.3127572016460906	-0.8933054393305438	0.5294117647058824
2751.007080078125	-3.899870830817046	-8.168901263522747	2.582859258818723	6.800644998924215	10.65178054399758	-6.308576534182667	-0.3127572016460906	-0.8933054393305438	0.5294117647058824
2754.913330078125	-3.932997973804257	-8.451312531940804	2.558306413866938	7.169319645842252	10.66284078340512	-5.553748950656515	-0.3127572016460906	-0.8933054393305438	0.5294117647058824
2758.819580078125	-3.509247192495851	-8.500476825342611	2.529782676706901	6.823300237432713	10.65246020115283	-5.176494265913	-0.3127572016460906	-0.8933054393305438	0.5294117647058824
2762.725830078125	-3.963994172346887	-8.520629355900775	2.635338691491594	5.025247342214592	10.22538428593808	-6.312840496763261	-0.3127572016460906	-0.8933054393305438	0.5294117647058824
2766.632080078125	-3.785068598577465	-8.80989016077678	2.349937634258215	5.047902580723091	10.22606394309333	-5.180758228493596	-0.3271604938271605	-0.8765690376569036	0.5294117647058824
2770.538330078125	-4.044601263364111	-8.50053037681514	2.463820397818532	4.701893034668623	9.842549328353492	-4.429876393508918	-0.3271604938271605	-0.8765690376569036	0.5294117647058824
2774.444580078125	-3.883637661804891	-8.565786382509218	2.320753092135278	3.941918089389266	8.700347094920485	-5.950732378107399	-0.3271604938271605	-0.8765690376569036	0.5294117647058824
2778.350830078125	-4.025323743658963	-8.592980426502319	2.348279559420113	4.303040990137803	8.711180781942939	-5.573265550671137	-0.3271604938271605	-0.8765690376569036	0.5294117647058824
2782.257080078125	-3.922284648083114	-8.390080969927507	2.642283206032895	5.025276929279809	9.10598218847541	-5.191959046039774	-0.345679012345679	-0.8661087866108785	0.5359477124183007
2786.163330078125	-3.710619926901028	-8.435730063840129	2.541107297538984	5.386380105318202	9.863083940472979	-5.561746519085837	-0.345679012345679	-0.8661087866108785	0.5359477124183007
2790.069580078125	-3.900972172421879	-8.279035424006061	2.67835163838861	5.424109249100483	10.98361879986108	-4.79582418935988	-0.345679012345679	-0.8661087866108785	0.5359477124183007
2793.975830078125	-4.442658452315359	-7.902208867899543	2.913998325617223	5.815409547461803	12.11476079388654	-4.02979578828755	-0.3148148148148148	-0.8640167364016735	0.5468409586056645
2797.882080078125	-4.36472186208857	-8.189357926028666	2.637793975986773	5.476932022866691	12.4777407965069	-3.648807497695309	-0.3148148148148148	-0.8640167364016735	0.5468409586056645
2801.788330078125	-4.16292374711859	-8.211566631050898	2.840721723905563	5.469409863762408	11.35811214665914	-2.905286803061711	-0.3148148148148148	-0.8640167364016735	0.5468409586056645
2805.694580078125	-4.60575198791402	-8.049946266149345	2.965586580954807	3.987228566406262	8.701706409230994	-3.686567841568068	-0.3148148148148148	-0.8640167364016735	0.5468409586056645
2809.600830078125	-4.718970915296009	-8.260727893237281	2.87310722951851	4.694400462629556	7.603518581043066	-2.565474248151834	-0.3539094650205762	-0.8702928870292886	0.5468409586056645
2813.507080078125	-4.718554628377485	-8.219099201384871	2.996404948192437	5.378936845054496	5.75838303072477	-1.829208622522941	-0.3539094650205762	-0.8702928870292886	0.5468409586056645
2817.413330078125	-4.838631175458561	-8.105541788280293	3.000882053376855	5.348779172151859	3.891806658746646	-1.470515895676685	-0.3539094650205762	-0.8702928870292886	0.5468409586056645
2821.319580078125	-4.961047820848621	-8.225994206074212	2.832019104417097	5.702399638506258	2.036743630946233	0.3977259268755001	-0.3127572016460906	-0.8744769874476986	0.5403050108932462
2825.225830078125	-5.148985198079976	-7.827812737290492	2.880351834387	4.581351104253723	-0.9819624519470153	0.3675388660465676	-0.3127572016460906	-0.8744769874476986	0.5403050108932462
2829.132080078125	-5.327228748378515	-7.470349585326195	2.916644576684249	4.175006487683836	-4.352361745667993	1.088551854241433	-0.3127572016460906	-0.8744769874476986	0.5403050108932462
2833.038330078125	-5.151271744916433	-8.056467420936128	3.242633608473727	2.707948407376834	-7.754582443301083	1.809246628397178	-0.3127572016460906	-0.8744769874476986	0.5403050108932462
2836.944580078125	-5.442422007408069	-7.87856437717046	3.278920288340125	2.662716829200414	-10.74101401751205	2.534099293787144	-0.3127572016460906	-0.8682008368200836	0.5294117647058824
2840.850830078125	-5.472632110750185	-7.869271681079037	3.137668680697133	0.8345457104999445	-14.52720243465515	3.250954390747788	-0.3127572016460906	-0.8682008368200836	0.5294117647058824
2844.757080078125	-5.412059332889504	-7.872599955616946	2.925986782627632	0.06708805553659221	-18.28156944788614	3.968127701747554	-0.3127572016460906	-0.8682008368200836	0.5294117647058824
2848.663330078125	-5.472749317746663	-7.880992380726803	2.975465312028618	0.4131765004316364	-20.88312709304675	6.206263068692174	-0.3189300411522634	-0.8744769874476986	0.5206971677559913
2852.569580078125	-5.521788320910858	-7.734387646641236	3.396446572842668	-0.6776749114979733	-23.5277929339121	7.311891881981635	-0.3189300411522634	-0.8744769874476986	0.5206971677559913
2856.475830078125	-5.352961746536213	-8.023447380893975	3.110954579146505	-1.414945306493472	-26.53498567262764	8.791253916858629	-0.3189300411522634	-0.8744769874476986	0.5206971677559913
2860.382080078125	-5.443360673785032	-7.972431014866788	2.981288276862245	-2.520880486051936	-29.92637268323827	9.889415518450637	-0.3189300411522634	-0.8744769874476986	0.5206971677559913
2864.288330078125	-5.263270102886828	-8.145192106864572	3.237077390597601	-2.551008571889358	-32.91235115267907	11.36898969602038	-0.3168724279835391	-0.8640167364016735	0.5577342047930284
2868.194580078125	-5.432249248437921	-7.871389490256772	3.006653487548237	-4.048244049809142	-37.43488015731517	11.70112289654006	-0.3168724279835391	-0.8640167364016735	0.5577342047930284
2872.100830078125	-5.351131902823963	-7.840463009668943	3.231233207255991	-4.070810527121991	-40.79376610685843	13.93168498044085	-0.3168724279835391	-0.8640167364016735	0.5577342047930284
2876.007080078125	-5.130594814089547	-8.008976358449553	2.982588668280062	-4.085844982975486	-43.40615743904151	15.79235351994921	-0.3127572016460906	-0.8661087866108785	0.5468409586056645
2879.913330078125	-5.121833591102842	-8.142955069880077	2.73355310251416	-3.732234378976159	-44.88808643435436	17.28696819226023	-0.3127572016460906	-0.8661087866108785	0.5468409586056645
2883.819580078125	-4.869223211944371	-8.134442406558316	3.079939182906176	-4.431765767834304	-47.14787834616936	19.90587970710435	-0.3127572016460906	-0.8661087866108785	0.5468409586056645
2887.725830078125	-4.879524292367559	-8.154449438776023	3.078835820491059	-4.439287926938587	-48.26750699601712	20.64940040173794	-0.3127572016460906	-0.8661087866108785	0.5468409586056645
2891.632080078125	-4.769229477466657	-8.236079059797001	3.217271429003161	-4.461883991316653	-50.50699084809771	21.75908103491525	-0.3189300411522634	-0.8682008368200836	0.5468409586056645
2895.538330078125	-4.771671626694989	-8.480293982630188	3.033319089652046	-2.633614249065463	-50.45214275583017	24.77849744036623	-0.3189300411522634	-0.8682008368200836	0.5468409586056645
2899.444580078125	-4.508993570701145	-8.475114645872047	3.066507867352922	-1.565329314448702	-51.16636286450809	25.90343071097756	-0.3189300411522634	-0.8682008368200836	0.5468409586056645
2903.350830078125	-4.447578114951995	-8.394175131563086	3.202482128938993	-0.1283795952689764	-51.49638870129091	27.40956441487388	-0.3168724279835391	-0.8598326359832635	0.533769063180828
2907.257080078125	-4.24679343633949	-8.51772747233281	3.370029530403804	1.353841151507458	-50.33251909381298	29.68535405434489	-0.3168724279835391	-0.8598326359832635	0.533769063180828
2911.163330078125	-4.256816655348614	-8.509948363144176	3.117793001147891	3.904297521125292	-48.0171994325752	31.21794121322142	-0.3168724279835391	-0.8598326359832635	0.533769063180828
2915.069580078125	-4.005727946334069	-8.65360271421496	3.395949453512781	5.025375642443044	-46.11789544714462	32.36900972477384	-0.3168724279835391	-0.8598326359832635	0.533769063180828
2918.975830078125	-3.764264356702681	-8.74966799350039	3.363257795141793	8.666732735765848	-43.02358010747926	34.66410382156672	-0.3106995884773663	-0.8556485355648534	0.5468409586056645
2922.882080078125	-3.857684395326226	-9.000762764945787	3.319465825880257	10.14891403312199	-40.36717437005112	35.44538486007308	-0.3106995884773663	-0.8556485355648534	0.5468409586056645
2926.788330078125	-3.523710131699137	-8.936669735570208	3.326010219985307	14.50493559470716	-36.13201611126327	36.99717040492511	-0.3106995884773663	-0.8556485355648534	0.5468409586056645
2930.694580078125	-3.444239746466717	-9.070439293136326	3.239308365151244	17.43912079180667	-31.93951294340998	38.17117090830175	-0.3106995884773663	-0.8619246861924685	0.5708061002178649
2934.600830078125	-3.30151092650605	-8.938971438483792	3.540238339012771	20.02727671814157	-27.38425632532142	39.34879894618075	-0.3106995884773663	-0.8619246861924685	0.5708061002178649
2938.507080078125	-3.402606002588598	-8.947468945728424	3.498398472485673	22.98409742903943	-22.44480543533777	40.90762741734474	-0.3106995884773663	-0.8619246861924685	0.5708061002178649
2942.413330078125	-3.463496047663883	-8.975867392650846	3.56707672039587	25.21868220079529	-17.90015595188659	42.08514938387736	-0.3106995884773663	-0.8619246861924685	0.5708061002178649
2946.319580078125	-3.465247079775053	-9.150970603767897	3.224970716185573	28.15287726024987	-14.08078681652086	43.63277703749517	-0.2983539094650206	-0.8535564853556484	0.5773420479302833
2950.225830078125	-3.373817539281344	-9.098925645306108	3.561820592846932	31.07197868972053	-10.63500481841286	44.79931032917437	-0.2983539094650206	-0.8535564853556484	0.5773420479302833
2954.132080078125	-3.870809558121439	-9.303178034366123	3.354718861286339	33.99863186536069	-7.188996267919777	46.34320437694345	-0.2983539094650206	-0.8535564853556484	0.5773420479302833
2958.038330078125	-3.747443131897853	-9.087747533219623	3.932380616262465	36.88754603486349	-4.49038854432723	46.74754894474541	-0.3292181069958848	-0.8472803347280334	0.5664488017429194
2961.944580078125	-3.760584461175339	-9.39177945086724	3.805936495976199	41.96581339794573	-0.2335629114944639	49.05426814446997	-0.3292181069958848	-0.8472803347280334	0.5664488017429194
2965.850830078125	-4.16391495456294	-9.320788385586892	4.037775976629573	45.18568293293936	0.9824361596299721	49.82114511631328	-0.3292181069958848	-0.8472803347280334	0.5664488017429194
2969.757080078125	-4.153013693485376	-9.240763287931488	3.981280183517057	49.112684914736	2.592783532516707	50.21460708060819	-0.3292181069958848	-0.8472803347280334	0.5664488017429194
2973.663330078125	-4.170482587986257	-8.967450717817581	4.004872133178754	53.42344531107953	4.960912314556266	51.3703638401267	-0.3271604938271605	-0.8347280334728032	0.5816993464052288
2977.569580078125	-4.161372775225545	-9.066570451847422	4.212128456726082	55.93617253691508	6.15569711640596	52.13702866927727	-0.3271604938271605	-0.8347280334728032	0.5816993464052288
2981.475830078125	-4.201368652368404	-9.02575412572922	4.173365273856523	58.81000293878903	8.107583670253224	52.53390602538178	-0.3271604938271605	-0.8347280334728032	0.5816993464052288
2985.382080078125	-4.370738824709471	-8.791054188118705	4.072295457902526	61.69138508683248	10.05969677648557	53.30814413757618	-0.3353909465020576	-0.809623430962343	0.5904139433551199
2989.288330078125	-3.997066753456427	-8.797584436551768	4.166614757102495	63.14338898657584	11.59579420691071	53.70086360244647	-0.3353909465020576	-0.809623430962343	0.5904139433551199
2993.194580078125	-4.218257574317748	-8.694444300461715	3.937236623375151	65.33272245544514	13.90028018112604	54.85598393388673	-0.3353909465020576	-0.809623430962343	0.5904139433551199
2997.100830078125	-4.168048521999062	-8.724044119098032	4.107975894683695	66.83001710749535	16.1840049908368	56.76561363481403	-0.3353909465020576	-0.809623430962343	0.5904139433551199
3001.007080078125	-4.269725591443429	-8.790740962524669	4.305644483838121	69.01179883019516	18.48826441266705	57.54337321016441	-0.3580246913580247	-0.811715481171548	0.6056644880174292
3004.913330078125	-4.239520540127023	-8.800538861187118	4.396365730327253	70.51663536605979	21.14534980725045	59.45673651694043	-0.3580246913580247	-0.811715481171548	0.6056644880174292
3008.819580078125	-4.471999607235314	-8.816122339692937	4.393261765730879	71.96864912815823	22.30831320518803	60.22308313205188	-0.3580246913580247	-0.811715481171548	0.6056644880174292
3012.725830078125	-4.794376440641967	-8.730573357125952	4.22259827480799	74.48894782487343	22.75705649444769	62.11436301777467	-0.3724279835390947	-0.7782426778242677	0.6209150326797386
3016.632080078125	-4.643174363160079	-8.761880760452332	4.424565127436693	77.01678840540305	23.57916036858	64.00937650934618	-0.3724279835390947	-0.7782426778242677	0.6209150326797386
3020.538330078125	-4.753662165443112	-8.699549877644486	4.376071743049204	79.53708710211825	24.02790365783967	65.90065639506896	-0.3724279835390947	-0.7782426778242677	0.6209150326797386
3024.444580078125	-4.821527037213959	-8.415329984022163	4.379503078911601	81.34270160586094	24.08207209295195	67.78799053225028	-0.3724279835390947	-0.7782426778242677	0.6209150326797386
3028.350830078125	-4.975831058481937	-8.694216959304754	4.465025790944893	83.48678377184368	24.14639455793143	68.92070922859818	-0.397119341563786	-0.7761506276150627	0.6122004357298475
3032.257080078125	-5.155587185278123	-8.488011457105156	4.524043555291962	85.68371829865782	24.58543692209406	72.32132606733416	-0.397119341563786	-0.7761506276150627	0.6122004357298475
3036.163330078125	-5.044080894611906	-8.448493501594486	4.658447647287288	87.48176133152086	25.38564686979637	73.08404514794326	-0.397119341563786	-0.7761506276150627	0.6122004357298475
3040.069580078125	-5.202940832665381	-8.172871145325855	4.630236125316145	89.66358250364097	26.19737016167639	75.35631332425828	-0.4032921810699589	-0.7531380753138075	0.6405228758169935
3043.975830078125	-5.344092410199309	-8.146614757304578	4.953369752174194	91.4993842673515	26.99871287130413	78.00583618531682	-0.4032921810699589	-0.7531380753138075	0.6405228758169935
3047.882080078125	-5.653547172244301	-7.778959648672434	4.736334727662118	93.33518603106205	27.80005558093186	80.65535904637537	-0.4032921810699589	-0.7531380753138075	0.6405228758169935
3051.788330078125	-5.625165902209293	-7.971135675474684	4.767413779426396	94.77968749641127	27.47025629653413	82.53885350636158	-0.4032921810699589	-0.7531380753138075	0.6405228758169935
3055.694580078125	-5.71675306590516	-8.038942954152434	4.874218654966661	96.23929245409951	27.14091011690657	85.17706947852756	-0.4320987654320988	-0.7405857740585774	0.6514161220043574
3059.600830078125	-5.652796441223759	-7.703886546618211	5.174439324418469	98.02229116875398	25.70186276491337	87.42682994840386	-0.4320987654320988	-0.7405857740585774	0.6514161220043574
3063.507080078125	-6.17826773939764	-7.725763838753851	4.966070544809746	98.02988236434376	24.20955318734822	89.2986993054584	-0.4320987654320988	-0.7405857740585774	0.6514161220043574
3067.413330078125	-6.107155425500248	-7.685239519721701	5.120323035415479	99.47441341675822	22.76035180548782	92.3030752161681	-0.4547325102880659	-0.698744769874477	0.6623093681917211
3071.319580078125	-6.309845728210656	-7.752249588742375	5.084642598634311	100.2118021600146	21.28993615435268	95.30723898418505	-0.4547325102880659	-0.698744769874477	0.6623093681917211
3075.225830078125	-6.408204627168536	-7.487129383520199	5.137319060309881	100.9416391571014	19.81929395083245	97.9340419961121	-0.4547325102880659	-0.698744769874477	0.6623093681917211
3079.132080078125	-6.248128161324034	-7.641098960686158	5.212029426918109	100.1968367406466	16.06560659475671	99.78329757538154	-0.4547325102880659	-0.698744769874477	0.6623093681917211
3083.038330078125	-6.556764495203966	-7.191601035548065	5.100104828523083	101.3179740360948	15.72610638526195	103.1761289883809	-0.4547325102880659	-0.6694560669456067	0.6949891067538128
3086.944580078125	-6.556657392258908	-7.180890741042348	5.16124747488388	100.9871074317996	13.85050874534205	106.17624093651	-0.4547325102880659	-0.6694560669456067	0.6949891067538128
3090.850830078125	-6.696620733345788	-7.035810708316135	5.247909923917403	100.2498468991592	10.47018197413895	108.0292301216282	-0.4547325102880659	-0.6694560669456067	0.6949891067538128
3094.757080078125	-6.728740502406377	-7.217484584071928	5.198100992034967	99.57297074880951	8.211069719479211	111.780223904742	-0.4670781893004116	-0.6317991631799162	0.6906318082788672
3098.663330078125	-6.757236958627578	-7.036827175889036	5.025030716063718	99.93414296133342	6.356233244063883	114.025826483384	-0.4670781893004116	-0.6317991631799162	0.6906318082788672
3102.569580078125	-6.867424670583423	-6.94448726036234	4.947737753912413	98.86593692555724	4.085381092841343	115.889910414702	-0.4670781893004116	-0.6317991631799162	0.6906318082788672
3106.475830078125	-6.830265000674294	-7.268924309853631	4.90158446783391	98.85091233205881	1.09985572817072	118.1242061044515	-0.4670781893004116	-0.6317991631799162	0.6906318082788672
3110.382080078125	-7.184521126717729	-7.34100156066168	5.066155215750245	97.75252889866985	-2.29130473005483	119.5997284621334	-0.4917695473251029	-0.6150627615062761	0.7145969498910676
3114.288330078125	-7.041320447555725	-7.162347785875469	5.036115870877135	98.47482401194229	-4.135307518447702	122.2227978682118	-0.4917695473251029	-0.6150627615062761	0.7145969498910676
3118.194580078125	-7.062428821378266	-7.252983147927528	5.021272008935297	97.76017926839008	-6.022418502545313	123.7133607206349	-0.4917695473251029	-0.6150627615062761	0.7145969498910676
3122.100830078125	-6.940913457374912	-7.22265886880436	5.26642761895573	96.72966292697588	-5.680199664429529	124.8488583807142	-0.4917695473251029	-0.6150627615062761	0.7145969498910676
3126.007080078125	-6.941231734994658	-7.254486630778897	5.113317896565655	96.75232802783944	-6.052654039761832	126.354567799225	-0.4917695473251029	-0.6150627615062761	0.7145969498910676
3129.913330078125	-7.070281690142269	-7.028169014226819	5.264757419255925	96.78253501251744	-6.051747830221491	127.8640108235846	-0.4917695473251029	-0.6150627615062761	0.7145969498910676
3133.819580078125	-6.967047586374004	-6.805768738410465	5.489030986205637	96.0678606819	-6.819456716856433	128.2336922252843	-0.4917695473251029	-0.6150627615062761	0.7145969498910676
3137.725830078125	-6.694593860630838	-6.833123436821152	5.318670616825362	95.74447678728883	-6.08288957697835	128.9957748778151	-0.52880658436214	-0.5397489539748953	0.758169934640523
3141.632080078125	-6.937364914516038	-6.867804582916833	5.405417939890818	95.73694476582946	-6.829384194338549	129.3656684222076	-0.52880658436214	-0.5397489539748953	0.758169934640523
3145.538330078125	-6.601833616565052	-6.648008121151539	5.833904490100005	94.26984723610218	-8.739068762021411	128.5918545953987	-0.52880658436214	-0.5397489539748953	0.758169934640523
3149.444580078125	-6.460056598248195	-6.611720430879999	5.70582351348362	94.64606376683464	-8.35464793774123	129.3504157847735	-0.52880658436214	-0.5397489539748953	0.758169934640523
3153.350830078125	-6.337056949091171	-6.432967636389868	5.645284078992626	94.27739898227169	-8.738842209636326	128.9692153514885	-0.52880658436214	-0.5397489539748953	0.758169934640523
3157.257080078125	-6.3170580001146	-6.453274758934764	5.674771742658177	95.05245769517988	-6.849918806458036	130.4975385477845	-0.52880658436214	-0.5397489539748953	0.758169934640523
3161.163330078125	-6.25353584964428	-6.161665772508637	5.669785393282167	94.03697580961919	-3.895308636159185	129.7723676683554	-0.52880658436214	-0.5397489539748953	0.758169934640523
3165.069580078125	-6.454217466932295	-6.027807299290016	5.522956349255066	93.69846869795887	-2.41292653607616	129.0324745082241	-0.5534979423868314	-0.4623430962343096	0.7734204793028323
3168.975830078125	-6.840278115631998	-6.250033785421938	5.760509670986726	92.94603563649393	-3.181768184636525	127.5153521294744	-0.5534979423868314	-0.4623430962343096	0.7734204793028323
3172.882080078125	-6.886830511741611	-5.854768345878171	5.800009439204838	91.84006100751519	-5.080619065296933	127.1190051301018	-0.5534979423868314	-0.4623430962343096	0.7734204793028323
3176.788330078125	-6.756036597318824	-5.906690034912631	5.919933415109464	91.42613505771057	-7.331842813940324	126.3417759114833	-0.5534979423868314	-0.4623430962343096	0.7734204793028323
3180.694580078125	-6.84773591598546	-5.985712810667123	5.915065283135073	90.70390898092364	-8.099778252960352	126.334096557093	-0.5534979423868314	-0.4623430962343096	0.7734204793028323
3184.600830078125	-7.168805285138302	-5.769417402719029	5.690346127517717	90.28244114730461	-10.72436258647638	125.5531337326258	-0.5534979423868314	-0.4623430962343096	0.7734204793028323
3188.507080078125	-6.966520154889855	-5.742924579894508	5.713895640163448	89.53759928142948	-12.98551381260189	125.9078807109306	-0.5534979423868314	-0.4623430962343096	0.7734204793028323
3192.413330078125	-7.246266984948329	-5.434779302913612	5.665899375105847	88.43163451480579	-15.25749872574986	125.8851608617991	-0.5637860082304528	-0.4163179916317991	0.803921568627451
3196.319580078125	-6.859378814437288	-5.129800635647896	5.624411129568183	86.97964047741749	-17.16673018866255	125.86606854717	-0.5637860082304528	-0.4163179916317991	0.803921568627451
3200.225830078125	-7.024187007562004	-5.449003786503375	5.697711981003253	85.18160730690953	-18.34007416885241	125.476976616802	-0.5637860082304528	-0.4163179916317991	0.803921568627451
3204.132080078125	-7.243148874679966	-5.122968276077363	5.540106966136202	82.63116079964676	-21.02852786257776	124.3180166081667	-0.5637860082304528	-0.4163179916317991	0.803921568627451
3208.038330078125	-6.996132098387878	-4.663714889292789	5.494832732531281	81.5553635682808	-21.80707043623516	124.3102311824301	-0.5637860082304528	-0.4163179916317991	0.803921568627451
3211.944580078125	-7.21235172595032	-5.073556433415753	5.492380479251528	79.71962097870068	-24.84721734078824	123.9024712228185	-0.5637860082304528	-0.4163179916317991	0.803921568627451
3215.850830078125	-6.826027361508542	-4.824958373076358	5.872309989549279	77.52274562601696	-27.52506389987621	122.7436172855296	-0.5637860082304528	-0.4163179916317991	0.803921568627451
3219.757080078125	-6.939162425263742	-5.027353637485288	5.608533623166029	76.45449027846541	-27.93024588866096	122.7395654656417	-0.5925925925925927	-0.3389121338912134	0.823529411764706
3223.663330078125	-6.612347892473211	-4.669132681664454	5.720621907194066	75.77752536692012	-26.8311518509327	123.127914896585	-0.5925925925925927	-0.3389121338912134	0.823529411764706
3227.569580078125	-6.471867223953603	-4.762479971117773	5.757763389810637	75.36358955476044	-28.70924156708853	121.9770585277253	-0.5925925925925927	-0.3389121338912134	0.823529411764706
3231.475830078125	-6.549125832330078	-4.407532727957176	5.744435135581871	75.66434779792834	-30.56589046158454	121.2037750576483	-0.5925925925925927	-0.3389121338912134	0.823529411764706
3235.382080078125	-6.569149031030058	-4.389650577753198	5.472401738377798	76.32622894184478	-32.41170566905809	120.8079584150075	-0.5925925925925927	-0.3389121338912134	0.823529411764706
3239.288330078125	-6.093452310963782	-4.294726045873142	5.815238265505797	78.10165618561963	-33.10471150846126	121.9331038283116	-0.5925925925925927	-0.3389121338912134	0.823529411764706
3243.194580078125	-6.586397657209973	-4.094311175542628	5.678915414145719	78.04131125274913	-35.71846215495484	121.5296078312807	-0.5925925925925927	-0.3389121338912134	0.823529411764706
3247.100830078125	-6.402193726978489	-3.855736334212356	5.662383165211518	78.32700545299831	-39.06810028417124	121.4961114499885	-0.5843621399176955	-0.2782426778242678	0.851851851851852
3251.007080078125	-6.461863202642178	-3.762077839975288	5.817984546681886	78.64289677557045	-42.04369817135975	122.5984309428147	-0.5843621399176955	-0.2782426778242678	0.851851851851852
3254.913330078125	-6.680397668385053	-3.393302192040613	5.894844045027251	77.86030604120288	-44.67911619189824	121.4400012909112	-0.5843621399176955	-0.2782426778242678	0.851851851851852
3258.819580078125	-6.15464446717654	-3.343234596441813	5.892503946718266	75.67852431850308	-46.9833756137285	120.6622417155608	-0.5843621399176955	-0.2782426778242678	0.851851851851852
3262.725830078125	-6.253718732974989	-3.149651075276689	5.860788339714498	73.57219102101277	-46.67343128429499	121.0426996494212	-0.5802469135802469	-0.2531380753138075	0.851851851851852
3266.632080078125	-6.395531115471819	-3.189475183545399	5.635156788253871	70.71342466205753	-47.13232860342186	119.9060352045318	-0.5802469135802469	-0.2531380753138075	0.851851851851852
3270.538330078125	-6.314131866823227	-3.13035839949441	5.649027630043917	69.33685932516859	-45.68108825009569	120.2979060986311	-0.5802469135802469	-0.2531380753138075	0.851851851851852
3274.444580078125	-6.545189293896655	-3.003777874513967	5.723753152729276	68.2836877452459	-45.33954906913516	120.3013214904407	-0.5864197530864198	-0.202928870292887	0.8540305010893247
3278.350830078125	-6.535709672853955	-3.065916780344824	5.589427872335028	66.4781126909235	-46.88625363419767	119.9084959542241	-0.5864197530864198	-0.202928870292887	0.8540305010893247
3282.257080078125	-6.493451498598048	-2.880503395158307	6.033464557680348	65.77852212793492	-46.90724135108733	120.2856445676212	-0.5864197530864198	-0.202928870292887	0.8540305010893247
3286.163330078125	-6.595290232865143	-2.963366720857727	5.624262600012302	65.06382807260735	-46.92868217274715	119.9080716688386	-0.5864197530864198	-0.202928870292887	0.8540305010893247
3290.069580078125	-6.330158913186406	-2.712861015610144	5.952570511602781	64.00310474651516	-46.58736954417171	119.5341263045583	-0.5884773662551441	-0.1778242677824268	0.8714596949891068
3293.975830078125	-6.513679809541864	-2.883132469337918	5.730100517831626	63.295952575002	-46.23544978095889	119.1602870116244	-0.5884773662551441	-0.1778242677824268	0.8714596949891068
3297.882080078125	-6.502056108787736	-2.730863404026027	5.828739299013852	61.114141265237	-47.42030710532648	117.2616459855505	-0.5884773662551441	-0.1778242677824268	0.8714596949891068
3301.788330078125	-6.351482503304203	-2.825018007187841	5.805335284708577	60.76056024830288	-47.05778020747629	116.887912763963	-0.5802469135802469	-0.1464435146443515	0.8801742919389979
3305.694580078125	-6.590998031821719	-2.53414661651541	6.130615012088336	60.01566907065239	-47.45326127116402	115.3745239910619	-0.5802469135802469	-0.1464435146443515	0.8801742919389979
3309.600830078125	-6.79419656831858	-2.651980064181137	6.062085293734021	58.88703920316513	-49.35279180897967	113.8460947234196	-0.5802469135802469	-0.1464435146443515	0.8801742919389979
3313.507080078125	-6.63168502608174	-2.562442002113344	6.250005494077961	58.09688686027299	-51.61530234941569	111.9366771651851	-0.5802469135802469	-0.1464435146443515	0.8801742919389979
3317.413330078125	-6.619984534536815	-2.402493857721882	6.106604754697831	57.72822207571002	-51.99949662131079	111.5554767319001	-0.565843621399177	-0.1192468619246862	0.8910675381263617
3321.319580078125	-6.630564486779209	-2.450388071860136	6.346528486892738	57.00596641185787	-51.64802996286815	110.4269159267864	-0.565843621399177	-0.1192468619246862	0.8910675381263617
3325.225830078125	-6.448506657069435	-2.426423282701023	6.076820031920518	55.56146494650864	-51.31823067847041	108.5434214668002	-0.565843621399177	-0.1192468619246862	0.8910675381263617
3329.132080078125	-6.518412547227221	-2.34630522777255	5.868005663644152	54.87692856408371	-49.47309512815212	107.8071558411713	-0.5555555555555556	-0.08786610878661087	0.888888888888889
3333.038330078125	-6.18251851383024	-2.090235221407705	5.884168104296364	54.91460839609063	-46.48689010632624	106.7049424196915	-0.5555555555555556	-0.08786610878661087	0.888888888888889
3336.944580078125	-6.454705492615904	-2.036205827246931	5.692228512297354	53.8387618529493	-45.39976251754585	104.8290212427491	-0.5555555555555556	-0.08786610878661087	0.888888888888889
3340.850830078125	-6.231292790847218	-1.917157872600462	5.922637259269586	52.36408298998729	-46.19027154015113	102.5569652091268	-0.5555555555555556	-0.08786610878661087	0.888888888888889
3344.757080078125	-6.037713311302663	-1.75112911006415	5.740955300272656	51.67201458610299	-45.09163060719303	102.1905931278903	-0.5555555555555556	-0.07740585774058577	0.8954248366013072
3348.663330078125	-5.695669952211172	-1.890227544349435	5.646511721240215	50.61125181059052	-43.25778184866736	100.3221391626454	-0.5555555555555556	-0.07740585774058577	0.8954248366013072
3352.569580078125	-5.736654005582953	-1.948228841123603	5.825019997685971	49.90406018965708	-41.41332595550432	98.45379126874685	-0.5555555555555556	-0.07740585774058577	0.8954248366013072
3356.475830078125	-5.412766616488938	-1.882722254954297	5.952746322097497	50.30286292241254	-38.41628724665598	97.72904467470326	-0.5576131687242799	-0.05230125523012552	0.9063180827886711
3360.382080078125	-5.7747008112068	-1.712505363104194	6.088950956055956	49.58057767149518	-36.94541849075066	95.47960241886608	-0.5576131687242799	-0.05230125523012552	0.9063180827886711
3364.288330078125	-5.301370459983203	-1.854217715491959	5.995689551039712	51.05518749797167	-33.54297124073249	95.13626840080023	-0.5576131687242799	-0.05230125523012552	0.9063180827886711
3368.194580078125	-5.278632302666538	-1.600604004027435	6.150011759600247	51.04759630238189	-32.05066166316735	93.2643990437457	-0.5576131687242799	-0.05230125523012552	0.9063180827886711
3372.100830078125	-5.206437844862011	-1.451865294281862	6.016756498251429	51.76978292974853	-29.7901900941971	91.77756979717124	-0.5329218106995885	-0.02301255230125523	0.9237472766884532
3376.007080078125	-5.408122794456081	-1.418340051668684	5.935607830078067	52.47688578948632	-28.27643969497213	90.28327333889935	-0.5329218106995885	-0.02301255230125523	0.9237472766884532
3379.913330078125	-5.126336966820952	-1.522585570984139	6.175637654812888	52.83041749464507	-26.77329643038453	88.78887080928106	-0.5329218106995885	-0.02301255230125523	0.9237472766884532
3383.819580078125	-4.931328774405542	-1.213685521362132	6.142527688713091	53.19150094597332	-25.26992661341184	87.67182903575268	-0.5411522633744856	0.008368200836820083	0.9237472766884532
3387.725830078125	-4.961108445157144	-1.161349566219432	6.266058810974831	53.59030367872878	-22.27288790456351	86.94708244170909	-0.5411522633744856	0.008368200836820083	0.9237472766884532
3391.632080078125	-5.061489164804263	-1.098411429921215	6.298504940896302	53.99664829529867	-18.90248861084253	86.22606945351423	-0.5411522633744856	0.008368200836820083	0.9237472766884532
3395.538330078125	-5.098540721363191	-0.7631630454100019	6.415906945566374	54.01923449732166	-16.28987072627438	84.74276167009576	-0.5411522633744856	0.008368200836820083	0.9237472766884532
3399.444580078125	-5.050682881810052	-1.027884140601069	6.302139368192251	54.05691432932858	-13.3036657044485	83.6405482486159	-0.5144032921810699	0.04393305439330544	0.9106753812636167
3403.350830078125	-5.311239087005593	-0.8208783975289696	6.279581062990871	53.33464880312136	-12.5790650135183	82.13836029326104	-0.5144032921810699	0.04393305439330544	0.9106753812636167
3407.257080078125	-5.481400406572885	-0.6652931825408743	6.346264771150663	52.61993502308364	-11.85423777020301	81.01353309399609	-0.5144032921810699	0.04393305439330544	0.9106753812636167
3411.163330078125	-5.440598226126671	-0.6254791783235846	6.36886551336801	53.36478675131386	-9.96622057656506	81.03241326593248	-0.5082304526748972	0.05857740585774058	0.917211328976035
3415.069580078125	-5.357795524735774	-0.4260171200420216	6.278656542285896	52.65006310892106	-8.868259300762219	79.53395891642634	-0.5082304526748972	0.05857740585774058	0.917211328976035
3418.975830078125	-5.732466886674304	-0.5194159401575835	6.290441907862752	51.92779758271384	-8.143658609832018	78.0317709610715	-0.5082304526748972	0.05857740585774058	0.917211328976035
3422.882080078125	-5.720745176621396	-0.3573459449678192	6.35926868532883	51.24327106264397	-6.671657092001277	77.66913248568376	-0.5082304526748972	0.05857740585774058	0.917211328976035
3426.788330078125	-5.99824284483367	0.1757155166331328	6.585166983746958	49.07654352050781	-7.109793246623571	75.77795867130736	-0.5082304526748972	0.05230125523012552	0.9193899782135078
3430.694580078125	-5.861019722492026	-0.2433863906167071	6.36356391758768	49.09162728813667	-6.363072076878288	75.78542588300481	-0.5082304526748972	0.05230125523012552	0.9193899782135078
3434.600830078125	-5.615573115790681	0.05885003709348836	6.775069598979597	46.89472234838772	-7.921516538503593	73.50569049499232	-0.5082304526748972	0.05230125523012552	0.9193899782135078
3438.507080078125	-5.919598971007446	-0.04070518155257665	6.312506124949672	46.18757017687458	-7.569596775290777	73.13185120205841	-0.5082304526748972	0.1087866108786611	0.9150326797385622
3442.413330078125	-6.058206348393695	0.2399712212365822	6.830204376365772	46.15737305455166	-7.943637017318675	71.99603532794002	-0.5082304526748972	0.1087866108786611	0.9150326797385622
3446.319580078125	-5.847375211453799	0.1109637031049376	6.472326958293235	45.76606289383525	-8.701644978856583	70.85637977662654	-0.5082304526748972	0.1087866108786611	0.9150326797385622
3450.225830078125	-5.8569629458467	0.1622912739158729	6.535403520095914	45.39738824691722	-8.712705218264125	70.10155219310039	-0.5082304526748972	0.1087866108786611	0.9150326797385622
3454.132080078125	-5.888587616387685	0.03012725012046808	6.387064930786592	43.93782273864928	-9.875895168586791	68.95784482189904	-0.5020576131687243	0.100418410041841	0.9193899782135078
3458.038330078125	-6.088126465460044	0.2782625449048043	6.559092468651247	43.57670970025582	-10.2598628880968	68.95400514470394	-0.5020576131687243	0.100418410041841	0.9193899782135078
3461.944580078125	-6.117428214579458	0.3783906632664109	6.412290705562982	42.10960230817346	-11.79641342329211	67.80656416765387	-0.5020576131687243	0.100418410041841	0.9193899782135078
3465.850830078125	-6.116589578311557	0.4622542900564586	6.719522576295466	40.65004666226059	-13.33273740610233	67.03648394669369	-0.5041152263374487	0.1276150627615063	0.9128540305010894
3469.757080078125	-6.18749981118054	0.441938073865284	6.566282511642066	38.82183609413983	-15.62638969329521	66.2588304426897	-0.5041152263374487	0.1276150627615063	0.9128540305010894
3473.663330078125	-5.995617812274627	0.4382187725374025	6.578116376665741	37.36983219439647	-17.16248712372035	65.8661109778194	-0.5041152263374487	0.1276150627615063	0.9128540305010894
3477.569580078125	-6.215340514464551	0.6881707757671424	6.891447052835632	35.17294697935768	-19.46719965032076	64.33362989028925	-0.5041152263374487	0.1276150627615063	0.9128540305010894
3481.475830078125	-6.504057721374134	1.109379377738154	7.020731421976198	34.0895980018222	-20.24596877636325	63.94848370846279	-0.4835390946502058	0.1276150627615063	0.9346405228758171
3485.382080078125	-6.276319475192337	0.6508807635946906	7.080891954538924	32.28401308514473	-21.41953930893819	63.18203102200496	-0.4835390946502058	0.1276150627615063	0.9346405228758171
3489.288330078125	-6.050906171242393	0.9699889363668163	7.119303516419049	29.68829555028526	-25.60188844692428	61.25341507779491	-0.4835390946502058	0.1276150627615063	0.9346405228758171
3493.194580078125	-6.152173016199089	0.9443145417073571	7.379633390862772	29.31210860661801	-27.10571136866713	61.61573533914352	-0.4917695473251029	0.1443514644351464	0.9368191721132898
3497.100830078125	-6.023559556072843	0.6743474230187733	6.90277470488314	27.13031702156314	-29.03683675800982	60.46434861355198	-0.4917695473251029	0.1443514644351464	0.9368191721132898
3501.007080078125	-5.69990051854093	0.7170188529777768	6.766730725342269	25.70092891090799	-29.07971840132948	59.70920281598671	-0.4917695473251029	0.1443514644351464	0.9368191721132898
3504.913330078125	-5.627994026201887	0.8369610161749598	6.783547908526528	24.24135354028498	-29.86977431916459	58.19186829454421	-0.4917695473251029	0.1443514644351464	0.9368191721132898
3508.819580078125	-5.766240688952426	1.153708882535259	6.868709905924108	22.81951717579932	-29.91242941009916	57.81408325306882	-0.4794238683127572	0.1652719665271966	0.9237472766884532
3512.725830078125	-5.629115575909561	0.7248060454075466	6.67691884348098	22.06710383904454	-31.42753912363463	57.04421517480139	-0.4794238683127572	0.1652719665271966	0.9237472766884532
3516.632080078125	-5.385634207209502	0.8305186729892569	6.624033227941005	22.36786208221244	-33.28418801813065	56.27093170472436	-0.4794238683127572	0.1652719665271966	0.9237472766884532
3520.538330078125	-5.16387149703778	0.784567467939163	6.512842183679107	21.62299062927208	-34.42593714679348	55.50479723230566	-0.4814814814814815	0.1841004184100418	0.9237472766884532
3524.444580078125	-5.042954292878521	0.7550757626530437	6.835809093688717	21.61542902074751	-34.05302966669101	54.7538093259746	-0.4814814814814815	0.1841004184100418	0.9237472766884532
3528.350830078125	-5.29444009111389	0.8590211916413105	6.626370295034564	20.85544421311308	-34.82209786763646	52.85932619113496	-0.4814814814814815	0.1841004184100418	0.9237472766884532
3532.257080078125	-5.042073219594655	0.8431830910396961	6.557394988012605	20.11056289781765	-35.59071296381174	51.71956456847509	-0.4814814814814815	0.1841004184100418	0.9237472766884532
3536.163330078125	-5.331689687080661	1.174465635368367	6.783184162675391	19.73435622944026	-36.34826782057949	51.33463052934138	-0.4444444444444445	0.1861924686192468	0.9281045751633988
3540.069580078125	-5.280563186892993	1.236610603630077	7.039327928615605	18.26725869971297	-38.25795238826235	50.56081670253248	-0.4444444444444445	0.1861924686192468	0.9281045751633988
3543.975830078125	-5.270763267420262	1.206501540802165	7.078324515072977	16.8077030538001	-39.79427637107256	49.7907364815723	-0.4444444444444445	0.1861924686192468	0.9281045751633988
3547.882080078125	-5.038780309236717	1.172474126833389	7.169852064865465	16.45413189922106	-39.80488350570994	49.79063041022592	-0.4403292181069959	0.202928870292887	0.9346405228758171
3551.788330078125	-4.906604160579608	1.258775861231201	6.973468711051725	15.40094059458823	-38.7170762597743	49.0467915015532	-0.4403292181069959	0.202928870292887	0.9346405228758171
3555.694580078125	-5.177053242520949	1.486594939824362	6.992256184262979	14.00926190300521	-36.89315497873075	48.31031373323157	-0.4403292181069959	0.202928870292887	0.9346405228758171
3559.600830078125	-5.178175802633764	1.374338928542744	6.875521046986659	11.50404697391887	-36.59517709824513	46.42650105920623	-0.4403292181069959	0.202928870292887	0.9346405228758171
3563.507080078125	-5.269686175538838	1.314210728944564	6.740286401964569	10.40558464168933	-37.00126529657022	44.91300621495883	-0.4300411522633745	0.2196652719665272	0.9302832244008715
3567.413330078125	-5.258346398629625	1.438087409764885	7.029421916602959	10.02936811095686	-37.38568612085039	44.15444502558395	-0.4300411522633745	0.2196652719665272	0.9302832244008715
3571.319580078125	-5.166192397649067	1.562578416911572	6.531517501919594	8.90072838111454	-38.9120826261785	42.25238860770048	-0.4300411522633745	0.2196652719665272	0.9302832244008715
3575.225830078125	-5.18969846287369	1.232173914651341	6.777388478780598	8.163379087278463	-38.93420310499359	40.74273344064818	-0.4403292181069959	0.2280334728033473	0.9477124183006537
3579.132080078125	-5.036395753101482	1.410929740356898	6.777758287062588	8.140733711125037	-39.3080167946364	39.98427832261968	-0.4403292181069959	0.2280334728033473	0.9477124183006537
3583.038330078125	-5.037017152263843	1.348789824120899	6.623129925744013	9.224082688660506	-38.52924766859392	40.36942450444614	-0.4403292181069959	0.2280334728033473	0.9477124183006537
3586.944580078125	-5.197454332744055	1.466687937715717	6.980955813154306	7.380748903490606	-40.07708499558184	38.08979518778003	-0.4403292181069959	0.2280334728033473	0.9477124183006537
3590.850830078125	-5.145069878154537	1.654628346162498	6.687846375092237	7.042251654185351	-38.96783692798638	37.72352917788995	-0.4279835390946503	0.2154811715481171	0.9411764705882354
3594.757080078125	-5.074366778339675	1.654231256941673	6.789543652639446	5.996612095722017	-37.87980312966565	37.35705102530712	-0.4279835390946503	0.2154811715481171	0.9411764705882354
3598.663330078125	-5.011169978325093	1.913305197793829	6.560705075257957	4.950952812548539	-36.04550126636981	36.24331857224197	-0.4279835390946503	0.2154811715481171	0.9411764705882354
3602.569580078125	-5.083766577376155	1.724352363394716	6.712147629163652	3.205702966386482	-34.23218711996363	35.50673473257395	-0.4279835390946503	0.2154811715481171	0.9411764705882354
3606.475830078125	-5.022466307813198	1.793773259084318	6.706130666542752	2.521166583961542	-32.38705156964533	34.77046910694506	-0.4279835390946503	0.2154811715481171	0.9411764705882354
3610.382080078125	-4.821807929843449	1.657590854038985	6.620520049262102	1.475507300788064	-30.55274970634949	33.6567366538799	-0.4279835390946503	0.2154811715481171	0.9411764705882354
3614.288330078125	-4.61215391489404	1.41087113685866	6.61028060355258	1.129448442958236	-29.07059415865155	32.53948273765877	-0.4279835390946503	0.2154811715481171	0.9411764705882354
3618.194580078125	-4.448666321289982	1.598014335648364	6.459656477811944	1.505625524270413	-27.19363720442114	31.803535326069	-0.3847736625514404	0.2259414225941422	0.9564270152505447
3622.100830078125	-4.511690342025273	1.356218322725242	6.396431386453384	1.836531577985882	-26.81057569445147	30.29793197890454	-0.3847736625514404	0.2259414225941422	0.9564270152505447
3626.007080078125	-4.661529382970538	1.523829379714001	6.696242841822662	2.521018648635461	-26.79004108233198	29.16606185332763	-0.3847736625514404	0.2259414225941422	0.9564270152505447
3629.913330078125	-4.472090543698098	1.275794115038728	6.514018295264451	4.29640644299001	-25.99051079178492	28.79669866566706	-0.3847736625514404	0.2259414225941422	0.9564270152505447
3633.819580078125	-4.448740080865352	1.590638378111408	6.732014215066615	5.326922784404201	-26.33272962990071	27.66120100558779	-0.3847736625514404	0.2259414225941422	0.9564270152505447
3637.725830078125	-4.407729756959876	1.651266728254902	6.816263816620925	6.056690745005561	-25.19143360600804	27.67261396582671	-0.3847736625514404	0.2259414225941422	0.9564270152505447
3641.632080078125	-4.325536329869635	1.789801356470924	6.692699350989497	6.417784058688883	-24.06119782152292	26.92919934253949	-0.3847736625514404	0.2259414225941422	0.9564270152505447
3645.538330078125	-4.557799170277526	1.79584054800495	6.832092823576261	6.440389985422021	-22.19484800192988	26.19314585960334	-0.3765432098765432	0.2468619246861924	0.9411764705882354
3649.444580078125	-4.211888990707416	2.043424161581727	7.029749287868983	6.478079679784014	-19.58177701259156	25.46455958836465	-0.3765432098765432	0.2468619246861924	0.9411764705882354
3653.350830078125	-4.128985248802314	2.252990271283778	6.940046529763036	5.424878512796108	-18.12083573416836	24.34709352945077	-0.3765432098765432	0.2468619246861924	0.9411764705882354
3657.257080078125	-4.455086435562559	1.966103918491588	6.892138169952793	4.371677345808202	-16.65989445574516	23.22962747053689	-0.3765432098765432	0.2468619246861924	0.9411764705882354
3661.163330078125	-4.411946177617645	2.239725672578962	7.067866821852773	4.762957919459377	-14.78248439674458	23.24840157112689	-0.3765432098765432	0.2468619246861924	0.9411764705882354
3665.069580078125	-4.283077084990462	1.995321803984212	7.127642390056378	3.732392266269827	-12.57459539619101	22.51576348000036	-0.3765432098765432	0.2468619246861924	0.9411764705882354
3668.975830078125	-4.385820131859691	1.822027218071428	6.764414876756693	3.785175590615747	-9.58793726959496	22.16827157070028	-0.3765432098765432	0.2468619246861924	0.9411764705882354
3672.882080078125	-4.264602837373243	1.822544545504157	7.058582209002487	4.176456164266922	-7.710527210594381	22.18704567129029	-0.3703703703703704	0.2343096234309623	0.9455337690631809
3676.788330078125	-4.455300641452674	1.944683329480154	6.769852877231199	4.146249179588923	-7.71143342013472	20.67760264693073	-0.3703703703703704	0.2343096234309623	0.9455337690631809
3680.694580078125	-4.676579367561354	2.039032940834383	6.671347469527723	4.51491396415189	-7.327239148239623	21.05880308021572	-0.3703703703703704	0.2343096234309623	0.9455337690631809
3684.600830078125	-4.556154230706271	1.960334505130489	7.123162253656534	3.431535399551203	-6.986606176819435	19.55277544766577	-0.3703703703703704	0.2343096234309623	0.9455337690631809
3688.507080078125	-4.403684094771112	2.055832947131228	6.87693662459067	3.830357857016806	-4.735835532946212	19.5752831541045	-0.3703703703703704	0.2343096234309623	0.9455337690631809
3692.413330078125	-4.270665268225534	2.226402470375907	7.028209430432501	3.883151043717797	-2.12231143883772	19.60141839504559	-0.3703703703703704	0.2343096234309623	0.9455337690631809
3696.319580078125	-4.432957552546549	2.158790199890572	7.013104883964013	3.168437263680076	-1.397484195522434	18.47659119578062	-0.3703703703703704	0.2343096234309623	0.9455337690631809
3700.225830078125	-4.626949277389061	1.95153690755867	7.111913413210105	3.559727699686324	0.1067918309905897	18.8689924466118	-0.3539094650205762	0.2531380753138075	0.9498910675381265
3704.132080078125	-4.564733580767408	2.112500509117891	7.171088800759333	2.807284775866321	-0.2889157850822193	16.97824291762088	-0.3539094650205762	0.2531380753138075	0.9498910675381265
3708.038330078125	-4.697733209615286	1.943850755643106	7.211831367302165	2.852555803463029	1.204979659178518	17.74789885319556	-0.3539094650205762	0.2531380753138075	0.9498910675381265
3711.944580078125	-4.626333940657553	2.01307058070944	7.205905341144049	2.476329410375492	1.193692867385892	16.61571051357952	-0.3539094650205762	0.2531380753138075	0.9498910675381265
3715.850830078125	-4.627459531985796	1.900511447885208	7.058851987175414	2.115206509626954	1.182859180363435	16.23824368614326	-0.3539094650205762	0.2531380753138075	0.9498910675381265
3719.757080078125	-4.58492551712611	2.113508893449656	7.231543361218394	2.160457812513518	3.423022689599287	16.26064532123562	-0.3539094650205762	0.2531380753138075	0.9498910675381265
3723.663330078125	-4.707213841063131	2.005888620959758	7.336050575465641	1.799325049409907	3.785323035064387	15.50955134355819	-0.3539094650205762	0.2531380753138075	0.9498910675381265
3727.569580078125	-4.666319713748991	2.054897311969691	7.268202880582208	1.08463099408233	3.76388221340456	15.13197844477556	-0.3497942386831276	0.2698744769874477	0.9281045751633988
3731.475830078125	-4.877782353902666	2.120754508723288	7.370391215028452	1.10724678317054	5.257098000510042	14.76955211208057	-0.3497942386831276	0.2698744769874477	0.9281045751633988
3735.382080078125	-4.838712007869925	1.987385071593419	7.242901325420164	0.03896184855377997	5.971318109187957	13.64461884146924	-0.3497942386831276	0.2698744769874477	0.9281045751633988
3739.288330078125	-4.776586237305914	2.139356067388406	7.412737294531716	0.4302621469150998	7.102460103213423	14.41064724254157	-0.3497942386831276	0.2698744769874477	0.9281045751633988
3743.194580078125	-4.879388898078524	1.960100091137534	7.463352529717507	-0.6908159744026519	5.203156117782846	13.25957873098915	-0.360082304526749	0.2447698744769874	0.9368191721132898
3747.100830078125	-4.940078882935683	1.951707666027677	7.512831059118493	-0.3372448198236132	5.213763252420217	13.25968480233552	-0.360082304526749	0.2447698744769874	0.9368191721132898
3751.007080078125	-4.890487188158788	1.860372093212179	7.569366258031548	-0.7210032343705055	4.455981843267392	12.49739000711192	-0.360082304526749	0.2447698744769874	0.9368191721132898
3754.913330078125	-5.027537531221141	2.296751928391052	7.498905655450777	-0.3749739636058942	4.093228393032121	12.49376247260957	-0.3703703703703704	0.2552301255230126	0.9411764705882354
3758.819580078125	-4.807387427656129	2.089540062669975	7.420039492493302	-0.7587323781527866	3.335446983879297	11.73146767738596	-0.3703703703703704	0.2552301255230126	0.9411764705882354
3762.725830078125	-5.130114871647073	2.140027986807868	7.782972977896651	-1.857165123317112	1.809956688091531	11.33885428386205	-0.3703703703703704	0.2552301255230126	0.9411764705882354
3766.632080078125	-5.110413992187406	2.089913912572533	7.861472363787562	-2.233361929339433	0.679267798836235	11.32754739496949	-0.3703703703703704	0.2552301255230126	0.9411764705882354
3770.538330078125	-5.058021454356751	2.278662645132953	7.649211503571667	-2.5944749677329	0.295300079326222	11.3237077177744	-0.3744855967078189	0.2573221757322176	0.9564270152505447
3774.444580078125	-5.158903334954327	2.291484686385552	7.719550857535392	-3.655198293825088	0.6366127079016654	10.94976235349411	-0.3744855967078189	0.2573221757322176	0.9564270152505447
3778.350830078125	-5.230316749584049	2.220850294120349	7.583991872462703	-5.836999741235029	-0.9213786489534688	9.42474847766141	-0.3744855967078189	0.2573221757322176	0.9564270152505447
3782.257080078125	-5.35323657673485	2.050079700252402	7.432810003083657	-6.55166420949739	-2.062221568075966	10.16805702960226	-0.3580246913580247	0.2364016736401673	0.9477124183006537
3786.163330078125	-5.3529061742534	2.083119948397397	7.707192592242993	-6.604477120908526	-3.929477597209345	9.39466748817885	-0.3580246913580247	0.2364016736401673	0.9477124183006537
3790.069580078125	-5.26202831496725	2.079996786103325	7.57663208140802	-7.379516109106593	-6.56466906536275	8.613598592365241	-0.3580246913580247	0.2364016736401673	0.9477124183006537
3793.975830078125	-5.272524403582852	2.040488934644076	7.645258798655973	-8.147003351135162	-9.19963398113107	8.20989045264152	-0.3580246913580247	0.2364016736401673	0.9477124183006537
3797.882080078125	-5.170343141972602	2.157604994658948	7.440015202151606	-8.14699348878009	-9.572768013618628	8.583517602882683	-0.3436213991769548	0.2364016736401673	0.9607843137254903
3801.788330078125	-4.979169437071265	2.083056292873448	7.438199504111345	-9.252987842468986	-10.72535082930392	7.439916303027716	-0.3436213991769548	0.2364016736401673	0.9607843137254903
3805.694580078125	-5.11802032209675	2.339381931739231	7.54053636811347	-9.975213919255919	-11.49328626832395	7.432236948637516	-0.3436213991769548	0.2364016736401673	0.9607843137254903
3809.600830078125	-4.886937634894771	2.215327419613911	7.718462651197406	-11.03590765828289	-12.27137573721117	8.179173035080719	-0.3518518518518519	0.2468619246861924	0.9411764705882354
3813.507080078125	-4.966949597283329	2.294939261566217	7.438814840842852	-11.06610478060582	-12.64541597923907	7.043357160962326	-0.3518518518518519	0.2468619246861924	0.9411764705882354
3817.413330078125	-4.975721934726596	2.427806527340488	7.576683612070265	-11.79588260356225	-13.41357797064418	6.658317050482238	-0.3518518518518519	0.2468619246861924	0.9411764705882354
3821.319580078125	-5.018150867451507	2.225317295253346	7.444922739926537	-13.26298999564461	-14.95012850583949	5.510876073432172	-0.3518518518518519	0.2468619246861924	0.9411764705882354
3825.225830078125	-4.928790636688714	2.070431280623549	7.286556889987524	-12.54829594031703	-14.92868768417966	5.888448972214808	-0.3497942386831276	0.2573221757322176	0.9411764705882354
3829.132080078125	-4.959354381830548	2.044359796743265	7.648584041978455	-12.95469973101735	-16.0602827829753	4.3676990589627	-0.3497942386831276	0.2573221757322176	0.9411764705882354
3833.038330078125	-4.949663586113158	2.003338358381227	7.606225837613486	-11.86379900731238	-15.28128710454773	5.130205996879051	-0.3497942386831276	0.2573221757322176	0.9411764705882354
3836.944580078125	-4.766169970696533	2.170881718225469	7.555831881153805	-11.85625712349796	-14.90792651967509	5.133939602727778	-0.3477366255144033	0.2301255230125523	0.9651416122004358
3840.850830078125	-4.695052604773431	2.211911239828644	7.760614732913396	-11.87890249965138	-15.2817402093179	4.375484484699275	-0.3477366255144033	0.2301255230125523	0.9651416122004358
3844.757080078125	-4.57418390006099	2.17756958986069	7.598490175845961	-12.57097090353568	-14.1830992763598	4.009112403462818	-0.3477366255144033	0.2301255230125523	0.9651416122004358
3848.663330078125	-4.586706861391542	1.935374466906458	7.596356200185954	-12.19477409751336	-13.0524103871045	4.020419292355371	-0.3477366255144033	0.2301255230125523	0.9651416122004358
3852.569580078125	-4.613871603635523	2.249203272811379	7.61177599305876	-12.14953265698187	-10.4391128453811	3.669193777206567	-0.3312757201646091	0.2384937238493724	0.9586056644880175
3856.475830078125	-4.534407280833956	2.11482747216003	7.464437704840067	-12.14954251933694	-10.06597881289354	3.295566626965404	-0.3312757201646091	0.2384937238493724	0.9586056644880175
3860.382080078125	-4.633751324805332	2.281433176032451	7.764703842523267	-11.06621326651161	-8.540941621875945	2.933458508309543	-0.3312757201646091	0.2384937238493724	0.9586056644880175
3864.288330078125	-4.404621750742933	1.962067349949103	7.599511695444573	-11.43489777578472	-8.17886782879593	1.80500377454223	-0.3333333333333334	0.2364016736401673	0.9498910675381265
3868.194580078125	-4.51600881360239	1.934472175114609	7.647523116579304	-10.68248443902993	-6.663758115260451	2.57487185280966	-0.3333333333333334	0.2364016736401673	0.9498910675381265
3872.100830078125	-4.474012334278275	2.093716067122063	7.494289114356756	-10.69759779372401	-6.291077187543063	1.44652319038872	-0.3333333333333334	0.2364016736401673	0.9498910675381265
3876.007080078125	-4.505589515777583	1.966300947494287	7.820935919893707	-10.68250416374008	-5.917490050285337	1.827617552327335	-0.3333333333333334	0.2364016736401673	0.9498910675381265
3879.913330078125	-4.676076185800614	2.089351116908412	7.663767400048021	-9.230519988706858	-3.635124554885087	1.4730827167153	-0.3497942386831276	0.2364016736401673	0.9520697167755993
3883.819580078125	-4.728390922435331	1.908382503941767	7.644094811932332	-8.508303774274998	-2.494055083377504	1.107134920864338	-0.3497942386831276	0.2364016736401673	0.9520697167755993
3887.725830078125	-4.726433767675182	2.104097979956614	8.027637531018049	-7.770993929859211	-0.9793984746121942	1.122281486951991	-0.3497942386831276	0.2364016736401673	0.9520697167755993
3891.632080078125	-4.806163827029108	2.211900125372081	7.537280842745789	-8.147220322946749	-0.9906852664048205	-0.009906852664048204	-0.3374485596707819	0.2615062761506276	0.9455337690631809
3895.538330078125	-4.675869052746494	2.110064422320412	7.715310187154214	-7.026142201628997	0.908618719025757	1.141161658888371	-0.3374485596707819	0.2615062761506276	0.9455337690631809
3899.444580078125	-4.887640876873637	2.145003221727316	7.755343449287327	-7.026152063984069	1.281752751513314	0.7675345086472086	-0.3374485596707819	0.2615062761506276	0.9455337690631809
3903.350830078125	-4.9265051002574	2.29898492375498	7.924270053771035	-7.748397865481145	1.260085377468402	0.01260085377468401	-0.3374485596707819	0.2615062761506276	0.9455337690631809
3907.257080078125	-4.929463566513318	2.003138298163101	7.626619855000599	-7.364649313289324	2.391000819108783	0.4012684987571256	-0.3312757201646091	0.2405857740585774	0.962962962962963
3911.163330078125	-4.937814565012352	2.178139458360806	7.938316706055796	-6.627319744163394	3.159389362898979	1.163669365327103	-0.3312757201646091	0.2405857740585774	0.962962962962963
3915.069580078125	-5.029626038649756	2.087901185529572	7.82177556656675	-6.988442644911933	3.148555675876523	0.7862025378908407	-0.3312757201646091	0.2405857740585774	0.962962962962963
3918.975830078125	-5.030716265798026	1.97887847070251	8.028434740675126	-6.988442644911933	3.148555675876523	0.7862025378908407	-0.3518518518518519	0.2510460251046025	0.9782135076252724
3922.882080078125	-4.866728521648653	2.216036724023629	7.829811318661464	-7.364649313289324	2.391000819108783	0.4012684987571256	-0.3518518518518519	0.2510460251046025	0.9782135076252724
3926.788330078125	-5.151319233958109	2.039793775906346	7.818153264132505	-6.266206705769927	3.543357082408992	1.167509042522203	-0.3518518518518519	0.2510460251046025	0.9782135076252724
3930.694580078125	-4.858849382350957	1.993849643692247	7.849083786340902	-8.079353230971973	2.742694029936513	-0.3499315502666727	-0.3518518518518519	0.2510460251046025	0.9782135076252724
3934.600830078125	-4.999843336682726	2.035868351929487	7.728562660997325	-7.326939894217188	4.257803743471992	0.4199365280007577	-0.3497942386831276	0.2301255230125523	0.9738562091503269
3938.507080078125	-5.148575983997446	2.314118771972586	7.983412097950575	-7.665427281167372	4.993917778579904	0.4272976683518368	-0.3497942386831276	0.2301255230125523	0.9738562091503269
3942.413330078125	-4.998028649047607	2.217337115441445	7.697250205645234	-7.680520911151299	4.620330641322178	0.04620330641322177	-0.3497942386831276	0.2301255230125523	0.9738562091503269
3946.319580078125	-5.160321943773764	2.149623804441905	7.672039586945975	-8.034092065730338	4.609723506684807	0.04609723506684806	-0.3415637860082305	0.2259414225941422	0.9651416122004358
3950.225830078125	-5.130930268596707	2.058488291844533	7.708180768471918	-8.741224512533345	4.215375204922507	0.4195122426152628	-0.3415637860082305	0.2259414225941422	0.9651416122004358
3954.132080078125	-5.600010855792847	2.625177046978009	7.883339551871781	-8.748776258702843	4.215148652537422	0.04215148652537422	-0.3415637860082305	0.2259414225941422	0.9651416122004358
3958.038330078125	-5.300883444704735	2.234887852758832	7.836513335968673	-9.124973064725165	3.084459763282126	0.03084459763282126	-0.3415637860082305	0.2259414225941422	0.9651416122004358
3961.944580078125	-5.36914641610155	2.479297783784435	7.898556253311035	-8.40273712558316	3.479261169814595	0.4121511022641837	-0.3518518518518519	0.2364016736401673	0.9607843137254903
3965.850830078125	-5.151832519770269	1.988465194690269	7.734773621405499	-8.778943793960552	2.721706313046855	0.02721706313046855	-0.3518518518518519	0.2364016736401673	0.9607843137254903
3969.757080078125	-5.069493594339574	2.141549656951794	8.056382546904196	-8.794037423944479	2.348119175789129	-0.3538772988081465	-0.3518518518518519	0.2364016736401673	0.9607843137254903
3973.663330078125	-5.103335093762213	1.787702744990889	7.957543705503843	-7.725772214037863	2.380167132086327	0.02380167132086327	-0.3436213991769548	0.2426778242677824	0.9738562091503269
3977.569580078125	-4.963672853407664	1.612512639031622	7.889574762003364	-6.996004253436504	3.521463155978994	0.03521463155978995	-0.3436213991769548	0.2426778242677824	0.9738562091503269
3981.475830078125	-4.769286060154612	1.859272772417629	7.701836434584993	-6.634891215043038	3.905430875489007	0.03905430875489008	-0.3436213991769548	0.2426778242677824	0.9738562091503269
3985.382080078125	-4.919313036456297	2.008090293764282	8.142120475232744	-7.342023661846042	3.511082573726708	0.4124693163033049	-0.3436213991769548	0.2426778242677824	0.9738562091503269
3989.288330078125	-4.829619371996627	1.886547648822094	8.288455431145382	-6.296413690447926	3.542450872868652	-0.3419339818373512	-0.3497942386831276	0.2238493723849372	0.9498910675381265
3993.194580078125	-4.607127149312348	1.913547695027921	8.403141466793628	-5.973010071126597	2.059615668015456	-0.3567623338858832	-0.3497942386831276	0.2238493723849372	0.9498910675381265
3997.100830078125	-4.817818850342641	2.056498804119839	8.135454832510648	-6.717871661711883	0.5447325068650614	-0.7492696560634249	-0.3497942386831276	0.2238493723849372	0.9498910675381265
4001.007080078125	-4.637451428435515	1.911422813014192	8.130004707174436	-6.003187468739378	0.9393073610124455	-0.7453239075219511	-0.3395061728395062	0.2426778242677824	0.9651416122004358
4004.913330078125	-5.151001966743506	2.071520497366677	7.961156914291809	-5.64206456799084	0.9501410480349017	-0.3678570800856887	-0.3395061728395062	0.2426778242677824	0.9651416122004358
4008.819580078125	-4.878324941463947	2.066495752595269	8.004036487710074	-5.581739359830492	4.310159759503593	-0.7116153835370396	-0.3395061728395062	0.2426778242677824	0.9651416122004358
4012.725830078125	-5.338732210920741	2.490415271562398	8.061032431367904	-5.205522829098027	4.694580583783775	0.04694580583783775	-0.3395061728395062	0.2426778242677824	0.9651416122004358
4016.632080078125	-5.271404874685462	2.152441824383079	7.731675719239977	-5.965478049667241	2.806110285375655	-0.726655878278319	-0.3559670781893005	0.200836820083682	0.9760348583877997
4020.538330078125	-5.268552500969458	2.437679195983446	7.978289343880388	-5.60434528656363	2.443809939910554	0.02443809939910554	-0.3559670781893005	0.200836820083682	0.9760348583877997
4024.444580078125	-4.870568061188439	1.832082770045097	7.810575225567139	-6.334123109520063	1.675647948505443	-0.3606020110809833	-0.3559670781893005	0.200836820083682	0.9760348583877997
4028.350830078125	-5.32541608155368	1.801826188066447	7.915625027375666	-6.732955429340738	-0.2019886628802221	-0.7567368677608778	-0.345679012345679	0.2133891213389121	0.9586056644880175
4032.257080078125	-5.030641495817514	1.986355468753671	7.766183075651226	-6.371842390947271	0.1819790566297908	-0.7528971905657776	-0.345679012345679	0.2133891213389121	0.9586056644880175
4036.163330078125	-5.031232582825614	1.927246767943818	7.914736881255805	-5.280941667242301	0.9609747350573579	0.009609747350573579	-0.345679012345679	0.2133891213389121	0.9586056644880175
4040.069580078125	-5.285033219241416	1.799708378888712	7.78460983422677	-6.010719490198733	0.192812743652247	-0.3754303631295153	-0.345679012345679	0.2133891213389121	0.9586056644880175
4043.975830078125	-5.171082758536582	2.083643338260979	8.123178410034756	-5.296015572516083	-0.1588804671754825	0.3757696858942829	-0.345679012345679	0.2259414225941422	0.9607843137254903
4047.882080078125	-5.110913132327579	2.039999898555324	7.91957773229136	-5.664670494723977	-0.9162087715581373	0.3681964028504564	-0.345679012345679	0.2259414225941422	0.9607843137254903
4051.788330078125	-5.210785618188248	2.153761413498595	7.984873143785978	-6.39444831768041	-1.684370762963248	-0.01684370762963248	-0.345679012345679	0.2259414225941422	0.9607843137254903
4055.694580078125	-5.373891278648612	2.004811529078334	7.915188532354301	-6.755561356073875	-2.068338482473261	-0.02068338482473261	-0.3312757201646091	0.2322175732217573	0.9651416122004358
4059.600830078125	-5.133740205296744	1.777494621840771	7.886022177523921	-7.462703665231952	-2.089552751748003	-0.02089552751748004	-0.3312757201646091	0.2322175732217573	0.9651416122004358
4063.507080078125	-5.068761050611588	2.214804029750329	8.312577843506654	-6.740467726089949	-1.694751345215534	0.3604109771138824	-0.3312757201646091	0.2322175732217573	0.9651416122004358
4067.413330078125	-5.152328628695015	1.938854302215675	7.823197206601613	-6.401990201494836	-2.05773134783589	-0.0205773134783589	-0.3312757201646091	0.2322175732217573	0.9651416122004358
4071.319580078125	-5.241801014428576	2.08252481976873	7.86989004902597	-6.439699620566974	-3.924534272199099	-0.03924534272199099	-0.3580246913580247	0.2364016736401673	0.9673202614379086
4075.225830078125	-5.397008337893545	1.713307624786981	8.011493277658394	-6.462325272010256	-5.044616026817025	-0.05044616026817024	-0.3580246913580247	0.2364016736401673	0.9673202614379086
4079.132080078125	-4.89093176642129	1.815914266962033	8.173199526997021	-6.086108741277791	-4.660195202536841	0.7081150291067071	-0.3580246913580247	0.2364016736401673	0.9673202614379086
4083.038330078125	-5.254923146008363	1.780412671891007	7.935461301124367	-6.823458035113866	-4.682315681351923	-0.8015401379455948	-0.3580246913580247	0.2364016736401673	0.9673202614379086
4086.944580078125	-4.748137270126389	1.953949755037883	8.120923185757702	-4.980143974654109	-2.388210289388877	0.7308348782381867	-0.3580246913580247	0.2364016736401673	0.9673202614379086
4090.850830078125	-4.931361107370087	1.813384212486342	7.839335397530416	-5.341266875402647	-2.399043976411333	0.3533680508019245	-0.3580246913580247	0.2364016736401673	0.9673202614379086
4094.757080078125	-5.142815664282626	1.880049733353578	8.022372309822833	-4.972611953194754	-1.641715672028678	0.360941333845751	-0.3580246913580247	0.2364016736401673	0.9673202614379086
4098.663330078125	-4.909442388623622	1.985054066930712	7.878441107743129	-4.957518323210827	-1.268128534770952	0.742035695784366	-0.3395061728395062	0.2405857740585774	0.9520697167755993
4102.569580078125	-4.84885445468581	1.983241400105877	7.818350293135205	-4.957518323210827	-1.268128534770952	0.742035695784366	-0.3395061728395062	0.2405857740585774	0.9520697167755993
4106.475830078125	-4.952260327328224	1.743664236874694	7.896246467156312	-5.318631361604294	-1.652096254280965	0.7381960185892659	-0.3395061728395062	0.2405857740585774	0.9520697167755993
4110.382080078125	-4.910729644774593	1.856328451833699	8.134618217053031	-6.063512676899725	-2.420711350456245	-0.4015656040706002	-0.3395061728395062	0.2405857740585774	0.9520697167755993
4114.288330078125	-4.963268691350844	1.652928844713572	7.89159961390803	-4.250376014052749	-1.24691426549621	0.7422478384771134	-0.3395061728395062	0.2405857740585774	0.9520697167755993
4118.194580078125	-4.730180349941898	1.729439753284931	7.928059073053718	-3.189652687960561	-1.588226894071653	1.116193202757397	-0.3395061728395062	0.2405857740585774	0.9520697167755993
4122.100830078125	-4.951835957168563	1.786101252840742	8.100392763676414	-3.204766042654632	-1.215545966354266	-0.01215545966354266	-0.3395061728395062	0.2405857740585774	0.9520697167755993
4126.007080078125	-4.85780058181351	2.098729697436908	8.238176660871893	-2.113865318949661	-0.4365502879266988	0.7503514782528086	-0.3662551440329219	0.2112970711297071	0.9738562091503269
4129.913330078125	-4.827625842651366	2.085900583348316	8.025715740437873	-1.745200534386696	-0.05235601603160088	1.131551911537797	-0.3662551440329219	0.2112970711297071	0.9738562091503269
4133.819580078125	-4.930941789236136	1.855316025881367	7.992951332896657	-2.4749882196982	-0.4473839749491549	0.3728846508165462	-0.3662551440329219	0.2112970711297071	0.9738562091503269
4137.725830078125	-4.716219582094211	2.115415527952702	8.169719691687805	-2.444810822085418	0.6729243320538555	0.7614462244526141	-0.3662551440329219	0.2112970711297071	0.9738562091503269
4141.632080078125	-4.857227682097968	2.156019668991074	7.907713555113424	-2.422185170642136	1.793006086671781	0.7726470419987933	-0.3662551440329219	0.2112970711297071	0.9738562091503269
4145.538330078125	-5.13173556149492	1.977959002023246	7.734449281354901	-2.422175308287064	1.419872054184224	1.146274192239956	-0.3662551440329219	0.2112970711297071	0.9738562091503269
4149.444580078125	-5.020526329940464	1.987771046357681	7.927971167806359	-2.437268938270991	1.046284916926497	0.7651798303013405	-0.3662551440329219	0.2112970711297071	0.9738562091503269
4153.350830078125	-4.931664228912701	1.78307205822488	7.837816758601917	-2.813475606648384	0.2887300601587575	0.3802457911676254	-0.3374485596707819	0.2343096234309623	0.9760348583877997
4157.257080078125	-5.242704316625567	1.992194600069571	7.925970565625103	-2.813475606648384	0.2887300601587575	0.3802457911676254	-0.3374485596707819	0.2343096234309623	0.9760348583877997
4161.163330078125	-5.152397336244675	1.931983547249743	8.146085305010143	-2.452352705899846	0.2995637471812136	0.7577126186038877	-0.3374485596707819	0.2343096234309623	0.9760348583877997
4165.069580078125	-5.241825264151985	2.080099847427813	7.627344315487448	-2.805923860478885	0.2889566125438424	0.757606547257514	-0.3374485596707819	0.2343096234309623	0.9760348583877997
4168.975830078125	-4.990140416103632	1.996059399737907	7.807477323401618	-2.790830230494957	0.6625437498015692	1.138700909196129	-0.3374485596707819	0.2343096234309623	0.9760348583877997
4172.882080078125	-5.252985188945914	1.974208378135961	8.126988647825421	-3.558337197233671	-1.226153100991637	-0.01226153100991637	-0.3374485596707819	0.2343096234309623	0.9760348583877997
4176.788330078125	-5.050720266800308	1.998680390676382	7.948416715855716	-3.20475618029956	-1.588679998841823	0.3614716905776195	-0.3374485596707819	0.2343096234309623	0.9760348583877997
4180.694580078125	-5.170895833585304	2.102335833388881	7.972599752525511	-2.49005226261691	-1.940373209669552	1.112671739601418	-0.3395061728395062	0.2175732217573222	0.962962962962963
4184.600830078125	-5.061203220149063	1.960486065901797	8.148422372103701	-2.866249068639231	-3.071062098924849	1.101364850708865	-0.3395061728395062	0.2175732217573222	0.962962962962963
4188.507080078125	-4.948597608688297	2.109936100867372	8.167121940067599	-2.527761681689047	-3.807176134032761	1.094003710357786	-0.3395061728395062	0.2175732217573222	0.962962962962963
4192.413330078125	-5.080508020793047	2.050208021705443	7.991099260271282	-2.866229343929087	-3.817330163899962	1.848619151191189	-0.3395061728395062	0.2175732217573222	0.962962962962963
4196.319580078125	-5.101608311374451	1.960380983767023	8.057103976175618	-2.51266805170512	-3.433588996775034	1.475098072296401	-0.3395061728395062	0.2175732217573222	0.962962962962963
4200.225830078125	-5.149195362349523	2.252180936764997	7.848995881093543	-2.1289194995133	-2.302673555134652	1.863765717278842	-0.3395061728395062	0.2175732217573222	0.962962962962963
4204.132080078125	-5.150794833689385	2.092233802778677	8.012699701398001	-3.934504416190775	-3.476244087709604	1.097313030821017	-0.3395061728395062	0.2175732217573222	0.962962962962963
