Time Stamp	Accelerometer X	Accelerometer Y	Accelerometer Z	Gyroscope X	Gyroscope Y	Gyroscope Z	Magnetometer X	Magnetometer Y	Magnetometer Z
1889.678955078125	3.57872568127855	-8.794098538811699	2.4950722288621	-0.6693934406656525	0.3530525251382394	1.512964487515533	-0.2695473251028807	-0.8744769874476986	0.5969498910675382
1893.585205078125	-3.217952442068901	-8.663931075576983	2.928563315739857	18.0422446627942	6.511416593615169	29.87643492065314	-0.2798353909465021	-0.8912133891213389	0.579520697167756
1897.491455078125	-3.116192519402886	-8.588948909985543	2.549491639407705	46.99620625091725	-1.948322767696363	19.603158281757	-0.2798353909465021	-0.8912133891213389	0.579520697167756
1901.397705078125	-3.157361476915663	-8.665440620859204	2.898790717824248	56.23312417986269	-6.148827170126507	8.617757011317604	-0.2798353909465021	-0.8912133891213389	0.579520697167756
1905.303955078125	-3.359333381570075	-8.66061088428021	2.977820566414734	61.37815414076415	-7.860147913090509	2.562907954831359	-0.2798353909465021	-0.8912133891213389	0.579520697167756
1909.210205078125	-3.046597834028852	-8.700187443289117	2.675938790909397	62.3256505860892	-10.07052898988001	-0.8554222710308756	-0.271604938271605	-0.9142259414225941	0.5664488017429194
1913.116455078125	-3.076387608831875	-8.648861893288467	2.69840919086342	5.175296119709885	-3.949218728349002	-2.303643130679716	-0.271604938271605	-0.9142259414225941	0.5664488017429194
1917.022705078125	-3.078706488632877	-8.880749873388659	2.737296653565451	-2.573131332836477	-1.56973125341793	-3.411923727628519	-0.271604938271605	-0.9142259414225941	0.5664488017429194
1920.928955078125	-3.235413253328646	-8.389810181349436	3.033003843247727	0.2705118090696167	-0.3650189740861204	-3.777235095401239	-0.2921810699588477	-0.899581589958159	0.5577342047930284
1924.835205078125	-3.147302893726568	-8.669683312050667	2.494638765056161	0.3157828366663252	1.128876470174617	-3.007579159826556	-0.2921810699588477	-0.899581589958159	0.5577342047930284
1928.741455078125	-3.045469211485182	-8.587325188922271	2.853310361570348	0.7221866273666441	2.260471568970253	-1.486829246574449	-0.2921810699588477	-0.899581589958159	0.5577342047930284
1932.647705078125	-3.037116192175866	-8.762124268091567	2.561825654976694	0.02259606437806577	2.239483852080596	-1.109680633177307	-0.2921810699588477	-0.899581589958159	0.5577342047930284
1936.553955078125	-3.229489247980814	-8.807510656667255	2.688945736302991	0.06788681668491839	2.987111231366219	0.4072296028796999	-0.2633744855967078	-0.8849372384937237	0.5751633986928105
1940.460205078125	-3.247566406377209	-8.595024476104683	2.689288263646146	-1.790491286693549	-0.7999833953172244	-0.38535832451921	-0.2633744855967078	-0.8849372384937237	0.5751633986928105
1944.366455078125	-3.249769089586875	-8.815292797071313	2.88027302278592	0.3837485521918205	1.130915441640381	0.3886676449824416	-0.2633744855967078	-0.8849372384937237	0.5751633986928105
1948.272705078125	-3.125479153063456	-8.507511265941556	2.593874695677339	-1.030526203769263	0.7153528706033401	0.7618705098381089	-0.2633744855967078	-0.8849372384937237	0.5751633986928105
1952.178955078125	-2.997017253708518	-8.792634461760871	2.621307195283963	-1.399181125977156	-0.0419754337793147	0.7542972267942823	-0.2633744855967078	-0.8849372384937237	0.5751633986928105
1956.085205078125	-3.318146236764741	-8.582300444150864	2.810430788152083	-2.113875181304734	-0.06341625543914202	0.3767243280116463	-0.2633744855967078	-0.8849372384937237	0.5751633986928105
1959.991455078125	-3.097686949226263	-8.758593912525248	2.793719697507738	-1.406742734501728	0.3309320463231571	0.003309320463231571	-0.2633744855967078	-0.8849372384937237	0.5751633986928105
1963.897705078125	-3.098908529043	-8.880751894198944	2.696690491716795	-1.038077949938762	0.715126318218255	0.3845097537482203	-0.2674897119341564	-0.899581589958159	0.5555555555555556
1967.803955078125	-3.339040404697168	-8.651515217191488	2.917872218931838	-1.045629696108262	0.7148997658331701	0.007148997658331701	-0.2674897119341564	-0.899581589958159	0.5555555555555556
1971.710205078125	-3.197672600462841	-8.656148935172924	2.737236029256928	-1.04561983375319	0.3417657333456133	0.3807761478994939	-0.2674897119341564	-0.899581589958159	0.5555555555555556
1975.616455078125	-3.408656308579186	-8.542398534686214	2.579197550583938	-1.429388110655154	-0.04288164331965463	-0.7551457975652721	-0.2674897119341564	-0.899581589958159	0.5555555555555556
1979.522705078125	-3.336321404459914	-8.379615193466165	2.840585319211386	-0.6694230277308688	1.47245462260091	0.3920830367920469	-0.2674897119341564	-0.899581589958159	0.5555555555555556
1983.428955078125	-3.077078725949037	-8.717973605004603	2.856562855722603	-0.6996004253436504	0.3521463155978994	0.003521463155978994	-0.2674897119341564	-0.899581589958159	0.5555555555555556
1987.335205078125	-3.407526675630375	-8.429435239805162	2.766675193475661	-0.3460292707646115	0.3627534502352706	0.003627534502352706	-0.2674897119341564	-0.899581589958159	0.5555555555555556
1991.241455078125	-3.210005605626688	-8.879348441456639	2.614841612779993	-0.6694230277308688	1.47245462260091	0.3920830367920469	-0.271604938271605	-0.8933054393305438	0.5511982570806101
1995.147705078125	-3.15666934939336	-8.596227868628864	2.750743125195836	-0.6769649115452961	1.099094037728268	0.3883494309433204	-0.271604938271605	-0.8933054393305438	0.5511982570806101
1999.053955078125	-3.208086846261937	-8.687472504981576	2.614353587096383	-1.376565336888947	1.451240353326168	0.3918708940992994	-0.271604938271605	-0.8933054393305438	0.5511982570806101
2002.960205078125	-3.219986387619846	-8.867325630671401	2.787060117216495	-2.512717363480481	-1.56791883433725	-0.3930376789094103	-0.271604938271605	-0.8933054393305438	0.5511982570806101
2006.866455078125	-3.106383506283877	-8.61814860818561	2.679442875942023	0.03772914378228104	1.120534859388095	0.7659223297259565	-0.271604938271605	-0.8933054393305438	0.5511982570806101
2010.772705078125	-3.319566866394462	-8.724363407122919	2.742707373101122	-1.045629696108262	0.7148997658331701	0.007148997658331701	-0.271604938271605	-0.8933054393305438	0.5511982570806101
2014.678955078125	-3.259084014591422	-8.736684287425062	2.641686056593944	-1.421836364485655	-0.04265509093456965	-0.3777850414753834	-0.271604938271605	-0.8933054393305438	0.5511982570806101
2018.585205078125	-2.975583529430238	-8.669464054134842	2.860003285231279	-1.007910414681053	2.208568657708822	0.399444177143126	-0.2860082304526749	-0.8828451882845187	0.5664488017429194
2022.491455078125	-3.196033723322438	-8.492261221132614	2.96766902595257	-0.6769649115452961	1.099094037728268	0.3883494309433204	-0.2860082304526749	-0.8828451882845187	0.5664488017429194
2026.397705078125	-3.266640834648805	-8.482265283062326	2.815947600227669	-0.3309356407806847	0.7363405874929974	0.3847218964409677	-0.2860082304526749	-0.8828451882845187	0.5664488017429194
2030.303955078125	-3.016190701684035	-8.68977723911059	2.767672463350863	-0.692058541529223	0.7255069004705412	0.007255069004705413	-0.2860082304526749	-0.8828451882845187	0.5664488017429194
2034.210205078125	-3.328261402641791	-8.583716021754874	2.64864269599695	-2.86628851805952	-1.578525968974622	-0.393143750255784	-0.2860082304526749	-0.8828451882845187	0.5664488017429194
2038.116455078125	-3.287048997707907	-8.502879568770403	2.733904723503593	-1.038077949938762	0.715126318218255	0.3845097537482203	-0.2860082304526749	-0.8828451882845187	0.5664488017429194
2042.022705078125	-3.277453180073869	-8.553398815467698	2.751676739547089	-1.045629696108262	0.7148997658331701	0.007148997658331701	-0.2860082304526749	-0.8828451882845187	0.5664488017429194
2045.928955078125	-3.367338821510527	-8.45105386822444	2.705390079989835	-1.782959265234193	-0.0534887779570258	-0.7552518689116458	-0.2839506172839507	-0.8933054393305438	0.5620915032679739
2049.835205078125	-3.13737162158537	-8.686657108031945	2.837323731412853	-1.060723326092188	0.3413126285754433	-0.3739453642802834	-0.2839506172839507	-0.8933054393305438	0.5620915032679739
2053.741455078125	-3.117389849496214	-8.708681919318321	2.695008167155284	-0.6920486791741509	0.3523728679829845	0.3808822192458676	-0.2839506172839507	-0.8933054393305438	0.5620915032679739
2057.647705078125	-2.966402988309583	-8.761510952170344	2.76458365483162	-1.429388110655154	-0.04288164331965463	-0.7551457975652721	-0.2839506172839507	-0.8933054393305438	0.5620915032679739
2061.553955078125	-3.319756822561167	-8.743359023793436	2.862967813918051	-0.6694230277308688	1.47245462260091	0.3920830367920469	-0.2839506172839507	-0.8933054393305438	0.5620915032679739
2065.460205078125	-3.369437432990563	-8.660915016227968	2.92719926879809	-1.038077949938762	0.715126318218255	0.3845097537482203	-0.2839506172839507	-0.8933054393305438	0.5620915032679739
2069.366455078125	-3.016680748177929	-8.738781888499956	2.916732481931607	-1.79805289521812	-0.4270759152147526	-1.136346230850261	-0.2839506172839507	-0.8933054393305438	0.5620915032679739
2073.272705078125	-3.26672671908588	-8.490853726769739	2.967032470713079	-1.782959265234193	-0.0534887779570258	-0.7552518689116458	-0.2736625514403292	-0.903765690376569	0.5577342047930284
2077.178955078125	-3.45127418706566	-8.763782342929668	2.577803191487911	-1.414284618316155	-0.04242853854948467	-0.0004242853854948467	-0.2736625514403292	-0.903765690376569	0.5577342047930284
2081.085205078125	-3.187677672797694	-8.666757178759294	2.70650253605123	-1.421836364485655	-0.04265509093456965	-0.3777850414753834	-0.2736625514403292	-0.903765690376569	0.5577342047930284
2084.991455078125	-3.258354502078864	-8.663733036169141	2.867563136504088	-1.752762142911268	0.320551464070871	0.3805640052067465	-0.2736625514403292	-0.903765690376569	0.5577342047930284
2088.897705078125	-3.176561195424874	-8.565210451578249	2.782398107891082	-1.406732872146656	-0.04220198616439969	0.3769364707043938	-0.2798353909465021	-0.903765690376569	0.579520697167756
2092.803955078125	-3.07648864934608	-8.658965944708955	2.697902977887253	-1.406742734501728	0.3309320463231571	0.003309320463231571	-0.2798353909465021	-0.903765690376569	0.579520697167756
2096.710205078125	-3.014273963129569	-8.49810338366394	2.74697229320571	-1.399190988332229	0.3311585987082421	0.3806700765531202	-0.2798353909465021	-0.903765690376569	0.579520697167756
2100.616455078125	-3.220508767078285	-8.919563576515321	2.612725824412542	-0.6920486791741509	0.3523728679829845	0.3808822192458676	-0.2818930041152264	-0.8870292887029287	0.5577342047930284
2104.522705078125	-3.108395222921696	-8.81932027196752	2.76027326649564	-2.490091712037199	-0.447837079719325	-0.381836861363231	-0.2818930041152264	-0.8870292887029287	0.5577342047930284
2108.428955078125	-3.298140214952176	-8.601900283096326	2.910660957433036	-1.421826502130583	-0.4157891234221265	-0.004157891234221264	-0.2818930041152264	-0.8870292887029287	0.5577342047930284
2112.335205078125	-2.936006970421329	-8.752212193648068	2.745150532734596	-2.121436789829305	0.3094912246633298	-0.3742635783194045	-0.2818930041152264	-0.8870292887029287	0.5577342047930284
2116.241455078125	-3.057604177241188	-8.79072075442183	2.691504082122659	-1.038077949938762	0.715126318218255	0.3845097537482203	-0.2736625514403292	-0.8891213389121339	0.5620915032679739
2120.147705078125	-3.107081696237032	-8.68796760350118	2.766854035185804	-1.391649104517801	0.7045191835808838	0.3844036824018466	-0.2736625514403292	-0.8891213389121339	0.5620915032679739
2124.053955078125	-3.15759690131376	-8.68898306066894	2.564277908256446	-1.737668512927341	0.6941386013285977	0.7616583671453615	-0.2736625514403292	-0.8891213389121339	0.5620915032679739
2127.960205078125	-3.199377153937477	-8.82660428263655	2.860009347662132	-1.022984319954835	1.088713455475982	0.7656041156868354	-0.271604938271605	-0.8870292887029287	0.5838779956427016
2131.866455078125	-2.945292593676757	-8.670673509089875	2.799639661235002	-1.376555474533874	1.078106320838611	0.7654980443404616	-0.271604938271605	-0.8870292887029287	0.5838779956427016
2135.772705078125	-3.01810137780765	-8.880844851472013	2.849009066880646	-1.384107220703374	1.077879768453526	0.388137288250573	-0.271604938271605	-0.8870292887029287	0.5838779956427016
2139.678955078125	-3.198582975495827	-8.747186438471518	2.722574040240658	-2.106343159845378	0.6830783619210565	0.006830783619210566	-0.271604938271605	-0.8870292887029287	0.5838779956427016
2143.585205078125	-3.228378812729703	-8.696467131556094	2.68440800681005	-1.760313889080767	0.320324911685786	0.003203249116857859	-0.2839506172839507	-0.8849372384937237	0.5577342047930284
2147.491455078125	-3.266457951318094	-8.463976949991242	2.624944653795338	-1.737658650572269	0.3210045688410409	1.135285517386524	-0.2839506172839507	-0.8849372384937237	0.5577342047930284
2151.397705078125	-3.318567575708975	-8.624434338574297	2.636602708324297	-2.467456198238845	0.2991106424110436	0.002991106424110436	-0.2839506172839507	-0.8849372384937237	0.5577342047930284
2155.303955078125	-3.116166248869193	-8.586321856616218	2.81224951740777	-1.737668512927341	0.6941386013285977	0.7616583671453615	-0.2654320987654321	-0.9100418410041841	0.5490196078431373
2159.210205078125	-3.341960475557689	-8.943522303243581	1.994151754829719	-1.74522025909684	0.6939120489435127	0.3842976110554729	-0.2654320987654321	-0.9100418410041841	0.5490196078431373
2163.116455078125	-2.997593184639486	-8.850227554857652	2.921452084350117	-2.08368792133688	0.6837580190763115	1.138913051888876	-0.2654320987654321	-0.9100418410041841	0.5490196078431373
2167.022705078125	-3.117321141946555	-8.701811164352389	2.372120068746754	-2.422185170642136	1.793006086671781	0.7726470419987933	-0.2654320987654321	-0.9100418410041841	0.5490196078431373
2170.928955078125	-2.954792422822301	-8.610555413543116	2.731843497013814	-2.467446335883773	-0.07402339007651318	0.3766182566652727	-0.2839506172839507	-0.905857740585774	0.5664488017429194
2174.835205078125	-3.107114029201578	-8.691200899955735	2.443459723801107	-2.459904452069345	0.2993371947961286	0.3803518625139991	-0.2839506172839507	-0.905857740585774	0.5664488017429194
2178.741455078125	-2.964072994052018	-8.528511526413897	2.836862986668078	-2.098761826610662	-0.4360971831565288	1.505072990432586	-0.2839506172839507	-0.905857740585774	0.5664488017429194
2182.647705078125	-3.238170648961297	-8.665549744614545	2.726259998198852	-2.813465744293312	-0.08440397232879937	0.7538729414087876	-0.2695473251028807	-0.9100418410041841	0.5642701525054467
2186.553955078125	-3.227860474891832	-8.644633347768993	2.818318010690915	-2.459894589714273	-0.0737968376914282	0.7539790127551612	-0.2695473251028807	-0.9100418410041841	0.5642701525054467
2190.460205078125	-3.259081993781138	-8.736482206396653	2.661898201055488	-4.242834130238322	-0.8735536806235675	0.7459814443258399	-0.2695473251028807	-0.9100418410041841	0.5642701525054467
2194.366455078125	-3.17727959348087	-8.637050257177918	2.667687822519427	-1.745190672031624	-0.4254900485191577	1.50517906177896	-0.2695473251028807	-0.9100418410041841	0.5642701525054467
2198.272705078125	-3.597289854953412	-8.213833980189655	2.735153584259165	-2.091229805151307	0.3103974342036698	1.13517944604015	-0.2613168724279836	-0.905857740585774	0.5708061002178649
2202.178955078125	-3.318762583901391	-8.643935157815838	2.706332787987366	-2.805913998123812	-0.08417741994371439	1.131233697498676	-0.2613168724279836	-0.905857740585774	0.5708061002178649
2206.085205078125	-3.356414321114696	-8.368704838742323	2.881333948185071	-2.821017490462812	-0.08463052471388435	0.3765121853188989	-0.2613168724279836	-0.905857740585774	0.5708061002178649
2209.991455078125	-3.198987137552646	-8.787602644153468	2.720549188335993	-2.437239351205775	-0.07311718053617323	1.886061281024827	-0.2654320987654321	-0.8933054393305438	0.5686274509803922
2213.897705078125	-3.360468066544596	-8.774079381732287	2.739812562369152	-2.813465744293312	-0.08440397232879937	0.7538729414087876	-0.2654320987654321	-0.8933054393305438	0.5686274509803922
2217.803955078125	-3.045903685696264	-8.630772610030368	2.54810334274253	-2.790830230494957	0.6625437498015692	1.138700909196129	-0.2654320987654321	-0.8933054393305438	0.5686274509803922
2221.710205078125	-3.307758261499338	-8.553603927711535	2.670555352312562	-4.596405284817361	-0.8841608152609387	0.7458753729794662	-0.2654320987654321	-0.8933054393305438	0.5686274509803922
2225.616455078125	-3.079169254187935	-8.927026428894493	2.149119612276023	-2.429707329746419	0.6733774368240254	1.516167736632391	-0.2818930041152264	-0.8912133891213389	0.5686274509803922
2229.522705078125	-3.088610479835239	-8.86104798352385	2.667475637439597	-2.422165445931992	1.046738021696667	1.519901342481118	-0.2818930041152264	-0.8912133891213389	0.5686274509803922
2233.428955078125	-3.0060037970419	-8.681187784998034	2.636890673789781	-3.167036898872351	-0.09501110696617054	0.7537668700624138	-0.2818930041152264	-0.8912133891213389	0.5686274509803922
2237.335205078125	-3.29046315668289	-8.844295466268683	2.928920999160141	-2.805923860478885	0.2889566125438424	0.757606547257514	-0.2695473251028807	-0.907949790794979	0.5642701525054467
2241.241455078125	-3.349892155922772	-8.726589329650855	2.45946454125116	-2.768165129631388	0.2900893744692674	2.644410327706957	-0.2695473251028807	-0.907949790794979	0.5642701525054467
2245.147705078125	-3.106190518901745	-8.598849869972479	2.58950065181741	-2.422165445931992	1.046738021696667	1.519901342481118	-0.2695473251028807	-0.907949790794979	0.5642701525054467
2249.053955078125	-3.409745525322314	-8.651320208999072	2.795962796923086	-3.144401385073996	0.6519366151641981	1.138594837849755	-0.2695473251028807	-0.907949790794979	0.5642701525054467
2252.960205078125	-3.159721783327489	-8.901471262041797	2.523329219064636	-2.775736600511031	1.036130887059296	1.519795271134744	-0.2798353909465021	-0.8953974895397488	0.5664488017429194
2256.866455078125	-3.459930327917593	-8.619295418021837	2.867769259153066	-3.535701683435317	-0.4792053788612685	0.3725664367774251	-0.2798353909465021	-0.8953974895397488	0.5664488017429194
2260.772705078125	-3.116885657330331	-8.658262702730088	2.687433159805344	-2.790820368139886	0.2894097173140124	1.512328059437291	-0.2798353909465021	-0.8953974895397488	0.5664488017429194
2264.678955078125	-3.03620076511717	-8.670581562221948	2.627018005146822	-3.159485152702851	-0.09478455458108556	1.131127626152302	-0.2839506172839507	-0.8974895397489538	0.5555555555555556
2268.585205078125	-3.398052106613384	-8.492079348207044	2.581819551927555	-3.159485152702851	-0.09478455458108556	1.131127626152302	-0.2839506172839507	-0.8974895397489538	0.5555555555555556
2272.491455078125	-3.235841665108875	-8.432651359372302	2.788433257804539	-3.129278168024854	-0.09387834504074562	2.640570650511857	-0.2839506172839507	-0.8974895397489538	0.5555555555555556
2276.397705078125	-3.127695981945111	-8.729194154107056	2.643374443586308	-2.798372114309385	0.2891831649289274	1.134967303347403	-0.2839506172839507	-0.8974895397489538	0.5555555555555556
2280.303955078125	-3.184835403133111	-8.382530212300976	2.852055438383924	-2.42215558357692	0.6736039892091104	1.89352849272228	-0.2818930041152264	-0.8953974895397488	0.579520697167756
2284.210205078125	-3.156099480893244	-8.539241018617313	2.389961802745051	-2.42215558357692	0.6736039892091104	1.89352849272228	-0.2818930041152264	-0.8953974895397488	0.579520697167756
2288.116455078125	-3.047575906206355	-8.797994661039439	2.99427097253243	-2.437239351205775	-0.07311718053617323	1.886061281024827	-0.2818930041152264	-0.8953974895397488	0.579520697167756
2292.022705078125	-3.360580221515363	-8.785294878809029	2.628139554854497	-2.414613699762493	1.046964574081752	1.897262098571006	-0.2880658436213992	-0.8953974895397488	0.5555555555555556
2295.928955078125	-3.21859303892896	-8.727990761582875	2.581919582036618	-3.144391522718925	0.2788025826766412	1.512221988090918	-0.2880658436213992	-0.8953974895397488	0.5555555555555556
2299.835205078125	-3.066479576008945	-8.668159621096457	2.808654495912361	-2.79084009285003	1.035677782289126	0.7650737589549668	-0.2880658436213992	-0.8953974895397488	0.5555555555555556
2303.741455078125	-3.18787773301582	-8.686763200571859	2.725702254560441	-2.76062324581696	0.6634499593419091	2.648143933555684	-0.2880658436213992	-0.8953974895397488	0.5555555555555556
2307.647705078125	-2.954389271170623	-8.570240248375368	2.723762276687708	-2.422175308287064	1.419872054184224	1.146274192239956	-0.271604938271605	-0.8974895397489538	0.5686274509803922
2311.553955078125	-3.331183494312596	-8.875925188835378	2.714811097534298	-2.384446164504783	2.54040691357232	1.912196521965912	-0.271604938271605	-0.8974895397489538	0.5686274509803922
2315.460205078125	-3.328888864235004	-8.646462181076103	2.433377901293744	-4.919808904138691	0.5986743895922573	0.7607037250279981	-0.271604938271605	-0.8974895397489538	0.5686274509803922
2319.366455078125	-3.419267583380982	-8.593425004764821	2.50583304362492	-2.053480936658882	0.6846642286166514	2.648356076248431	-0.2777777777777778	-0.899581589958159	0.5816993464052288
2323.272705078125	-3.347847095915265	-8.522083328900184	2.712134534313011	-2.399529932133638	1.793685743827036	1.904729310268459	-0.2777777777777778	-0.899581589958159	0.5816993464052288
2327.178955078125	-3.529850363747367	-8.540591930292232	2.517469879645895	-2.422175308287064	1.419872054184224	1.146274192239956	-0.2777777777777778	-0.899581589958159	0.5816993464052288
2331.085205078125	-3.076595752291137	-8.669676239214672	2.636760331526457	-2.79084009285003	1.035677782289126	0.7650737589549668	-0.2777777777777778	-0.899581589958159	0.5816993464052288
2334.991455078125	-3.278566646540407	-8.664745462121473	2.725896252347715	-2.414623562117565	1.420098606569309	1.523634948329844	-0.2757201646090535	-0.9100418410041841	0.5882352941176471
2338.897705078125	-3.268262534901794	-8.644435308361151	2.757317831455147	-2.05352038607917	2.177200358566879	1.153847475283782	-0.2757201646090535	-0.9100418410041841	0.5882352941176471
2342.803955078125	-3.418948295356095	-8.561496202276079	2.669048838245767	-2.422185170642136	1.793006086671781	0.7726470419987933	-0.2757201646090535	-0.9100418410041841	0.5882352941176471
2346.710205078125	-3.288376670064558	-8.635646804435611	2.585838943582625	-2.045968639909671	2.177426910951964	1.531208231373671	-0.2860082304526749	-0.8828451882845187	0.5577342047930284
2350.616455078125	-3.118202215230421	-8.789918492739043	2.650534174422865	-2.407091540658209	2.166593223929508	1.153741403937408	-0.2860082304526749	-0.8828451882845187	0.5577342047930284
2354.522705078125	-3.107183747156379	-8.698172695435872	2.756241749978865	-2.061062269893597	1.803839773694237	1.150113869435056	-0.2860082304526749	-0.8828451882845187	0.5577342047930284
2358.428955078125	-3.21779886048731	-8.648572917417841	2.444484274615145	-3.136869363614642	1.398431232524397	0.7687012934573195	-0.2860082304526749	-0.8828451882845187	0.5577342047930284
2362.335205078125	-2.893790222776248	-8.57094146954395	2.774838256618273	-2.429727054456564	1.419645501799139	0.7689134361500669	-0.2880658436213992	-0.901673640167364	0.5577342047930284
2366.241455078125	-3.399371695728899	-8.624038259758613	2.514602349852761	-2.045948915199527	1.43115884597685	2.278462531855995	-0.2880658436213992	-0.901673640167364	0.5577342047930284
2370.147705078125	-3.138769011896823	-8.826396139177289	3.002039977669642	-2.39953979448871	2.166819776314592	1.531102160027297	-0.2880658436213992	-0.901673640167364	0.5577342047930284
2374.053955078125	-3.165758954051231	-8.495087324314925	2.745608246263944	-2.391997910674283	2.540180361187234	1.534835765876023	-0.2777777777777778	-0.8912133891213389	0.5664488017429194
2377.960205078125	-3.327844105318126	-8.541986289388259	2.782046486901649	-2.39953979448871	2.166819776314592	1.531102160027297	-0.2777777777777778	-0.8912133891213389	0.5664488017429194
2381.866455078125	-3.298781822217377	-8.666061009616421	2.553911151499026	-2.39953979448871	2.166819776314592	1.531102160027297	-0.2777777777777778	-0.8912133891213389	0.5664488017429194
2385.772705078125	-3.257768467096475	-8.605129537930313	2.668478969745652	-2.39953979448871	2.166819776314592	1.531102160027297	-0.2777777777777778	-0.8912133891213389	0.5664488017429194
2389.678955078125	-3.464006302260617	-9.026892852324309	2.503914284260169	-2.753110949067749	2.156212641677221	1.530996088680923	-0.2839506172839507	-0.8953974895397488	0.5577342047930284
2393.585205078125	-3.574075796814841	-8.922731196635644	2.598930763008151	-2.753120811422821	2.529346674164778	1.157368938439761	-0.2839506172839507	-0.8953974895397488	0.5577342047930284
2397.491455078125	-3.250991679808754	-8.937551819259214	2.773137744764205	-2.384436302149711	2.167272881084763	2.285823672207074	-0.2839506172839507	-0.8953974895397488	0.5577342047930284
2401.397705078125	-3.153368355794286	-9.276229518822543	2.43394776979386	-2.407091540658209	2.166593223929508	1.153741403937408	-0.2921810699588477	-0.9163179916317991	0.5599128540305012
2405.303955078125	-3.161048445278999	-9.0341374571928	2.385369511374439	-2.030875009925744	2.551014048209691	1.912302593312286	-0.2921810699588477	-0.9163179916317991	0.5599128540305012
2409.210205078125	-3.412073498769594	-8.884117553727108	2.743895609548171	-4.174957175908475	2.486691583230209	0.7795838969643776	-0.2921810699588477	-0.9163179916317991	0.5599128540305012
2413.116455078125	-3.139413650377451	-8.890859987240001	2.614971955043317	-2.783327796100819	2.528440464624438	-0.3520740859197934	-0.2921810699588477	-0.9163179916317991	0.5599128540305012
2417.022705078125	-2.86702661137366	-8.924883359588208	2.787711828533116	-1.654688066258496	4.054836969952544	1.549982331963677	-0.2860082304526749	-0.8953974895397488	0.5664488017429194
2420.928955078125	-3.038091233137943	-8.859628364299272	2.910476053292042	-2.361840237771645	4.406756733165357	1.176143039029767	-0.2860082304526749	-0.8953974895397488	0.5664488017429194
2424.835205078125	-3.440932690436792	-8.739733690143765	2.983149443133899	-2.030914459346032	4.043550178159918	0.4177939923476369	-0.2860082304526749	-0.8953974895397488	0.5664488017429194
2428.741455078125	-3.159295392357544	-8.858832165047339	2.74768766004628	-0.9324521271164907	4.449638376485013	1.931288836595039	-0.2860082304526749	-0.8953974895397488	0.5664488017429194
2432.647705078125	-3.148895292230436	-8.828923162437553	2.72908509097602	-0.9173782218427081	5.569493578717854	1.56512889805133	-0.2860082304526749	-0.8953974895397488	0.5664488017429194
2436.553955078125	-3.249803443361705	-8.818728174554279	2.53666656693968	-0.9173782218427081	5.569493578717854	1.56512889805133	-0.2860082304526749	-0.8953974895397488	0.5664488017429194
2440.460205078125	-3.240255114769344	-8.873996325419206	3.089554198237912	-3.452770548541832	4.747163152200462	-0.7072453496100709	-0.2860082304526749	-0.8953974895397488	0.5664488017429194
2444.366455078125	-3.231738409827015	-9.032426841287311	2.415051172827264	-0.2102457750397026	5.963841880480152	1.191713890502915	-0.2983539094650206	-0.8953974895397488	0.5577342047930284
2448.272705078125	-3.078315461842904	-8.841647194391371	2.607942566470084	-0.2102359126846305	5.590707847992596	1.565341040744077	-0.2983539094650206	-0.8953974895397488	0.5577342047930284
2452.178955078125	-3.159270132228993	-8.856306152192218	3.000339465815574	-1.293594752575173	5.18507275443767	0.8065677086764522	-0.2983539094650206	-0.8953974895397488	0.5577342047930284
2456.085205078125	-3.148890240204726	-8.828417959866528	2.779615452129879	-0.609097819570522	4.832473334069601	0.04832473334069601	-0.2983539094650206	-0.8953974895397488	0.5577342047930284
2459.991455078125	-3.369964864474712	-8.713658164642915	2.70233461484028	0.1282514742655536	4.854593812884684	1.557979900392998	-0.2983539094650206	-0.8953974895397488	0.5577342047930284
2463.897705078125	-3.20837885334799	-8.716673213586787	2.724001742706373	-0.2404330350075563	5.216667605964699	0.4295251666256847	-0.2983539094650206	-0.8953974895397488	0.5577342047930284
2467.803955078125	-3.194310982555244	-8.3199871444133	3.026805007701258	-0.2328714264829847	4.843760125862227	1.180513072956735	-0.2983539094650206	-0.8953974895397488	0.5577342047930284
2471.710205078125	-3.218583945282682	-8.727081396955031	2.672874232113564	-2.399598968619142	4.405623971239933	-0.7106607414196762	-0.2839506172839507	-0.8912133891213389	0.5708061002178649
2475.616455078125	-3.085465088628041	-8.546508862804069	2.814547178700789	-0.9702108579639881	4.448505614559588	0.04448505614559588	-0.2839506172839507	-0.8912133891213389	0.5708061002178649
2479.522705078125	-3.41967578705837	-8.634245372503591	2.463383902797167	-0.985304487947915	4.074918477301861	-0.3366093057930192	-0.2839506172839507	-0.8912133891213389	0.5708061002178649
2483.428955078125	-3.417913640490637	-8.458030715730287	2.916656701545954	-1.3086883825591	4.811485617179944	0.4254733467378372	-0.2839506172839507	-0.8912133891213389	0.5708061002178649
2487.335205078125	-3.317859281704399	-8.553604938116676	2.650252271388234	-0.2555266649914831	4.843080468706972	0.04843080468706971	-0.2839506172839507	-0.8912133891213389	0.5708061002178649
2491.241455078125	-3.348029979245976	-8.540371661971266	2.903137480745341	0.1131479819265547	4.854140708114513	0.8032583882132207	-0.2839506172839507	-0.8912133891213389	0.5708061002178649
2495.147705078125	-3.247073328667889	-8.545716705172703	2.570546461757717	-0.2404330350075563	5.216667605964699	0.4295251666256847	-0.2839506172839507	-0.8912133891213389	0.5708061002178649
2499.053955078125	-3.276552909092304	-8.463371717311155	2.665278006255641	0.1206701410308378	5.973769357962269	0.05973769357962268	-0.2818930041152264	-0.9100418410041841	0.5577342047930284
2502.960205078125	-3.377931909019767	-8.500261609047357	2.813934873184708	-1.67737289183221	5.173559410259959	-0.702981387029476	-0.2818930041152264	-0.9100418410041841	0.5577342047930284
2506.866455078125	-3.184737393834332	-8.372729282423103	2.822243434667775	0.8353543340033429	6.368344212109653	0.06368344212109653	-0.2818930041152264	-0.9100418410041841	0.5577342047930284
2510.772705078125	-3.417711559462227	-8.437822612889311	2.917669127498287	-0.624211174264593	5.205154261786988	-1.080023929080243	-0.2818930041152264	-0.9100418410041841	0.5577342047930284
2514.678955078125	-3.397626726048582	-8.449541291726792	2.796071920678428	0.1357539086596926	6.720490527707552	0.06720490527707552	-0.2818930041152264	-0.9100418410041841	0.5577342047930284
2518.585205078125	-3.335309988912724	-8.278473638747084	2.855753521203822	-0.2404527597177005	5.962935670939813	-0.3177291338566396	-0.2818930041152264	-0.9100418410041841	0.5577342047930284
2522.491455078125	-3.448141931125309	-8.450556748894551	2.59349579374907	0.1357539086596926	6.720490527707552	0.06720490527707552	-0.2818930041152264	-0.9100418410041841	0.5577342047930284
2526.397705078125	-3.721122077947483	-8.475844158384605	2.549097581402306	-0.6015559357560947	5.205833918942242	0.05205833918942243	-0.2839506172839507	-0.8953974895397488	0.5664488017429194
2530.303955078125	-3.508717740201417	-8.447531595899257	2.774859475126256	0.1206701410308378	5.973769357962269	0.05973769357962268	-0.2839506172839507	-0.8953974895397488	0.5664488017429194
2534.210205078125	-3.587188834748351	-8.213832969784514	2.755456665183493	-0.2404428973626284	5.589801638452256	0.05589801638452255	-0.2839506172839507	-0.8953974895397488	0.5664488017429194
2538.116455078125	-3.659296397710661	-8.353882195308467	2.747733128277673	-0.6166495657400215	4.832246781684516	-0.3290360227491926	-0.2839506172839507	-0.8953974895397488	0.5664488017429194
2542.022705078125	-3.556598819072824	-8.185134432534904	2.656187391192628	-0.6015362110459503	4.459565853967129	0.7993126396717468	-0.2839506172839507	-0.8953974895397488	0.5664488017429194
2545.928955078125	-3.541867112101753	-8.732165755629822	2.527973041097492	-2.06107213224867	2.176973806181794	0.7764867191938934	-0.2839506172839507	-0.8953974895397488	0.5664488017429194
2549.835205078125	-3.720513814051969	-8.41501776883327	2.572347003720848	-2.091279116926668	2.176067596641454	-0.732956305165661	-0.2839506172839507	-0.8953974895397488	0.5664488017429194
2553.741455078125	-3.447024423038203	-8.338805940183956	2.659700569871532	-1.022994182309908	1.461847487963539	0.3919769654456732	-0.2818930041152264	-0.9121338912133891	0.5490196078431373
2557.647705078125	-3.590317049068134	-8.52665440176281	2.780188351845421	-2.106343159845378	0.6830783619210565	0.006830783619210566	-0.2818930041152264	-0.9121338912133891	0.5490196078431373
2561.553955078125	-3.719998507429525	-8.363487106588783	2.675938790909397	-2.474998082053272	-0.07424994246159816	-0.0007424994246159817	-0.2818930041152264	-0.9121338912133891	0.5490196078431373
2565.460205078125	-3.376519362631183	-8.359006970188938	2.800809710389494	-3.197224158840205	-0.842185381481624	-0.00842185381481624	-0.2818930041152264	-0.9121338912133891	0.5490196078431373
2569.366455078125	-3.801285601107348	-8.41138839356303	2.773740956634008	-2.843613554840877	-2.32411437679448	1.486192818496206	-0.3004115226337449	-0.8891213389121339	0.5729847494553377
2573.272705078125	-3.35652445527518	-8.379718254790653	2.789873085131958	-2.851185025720521	-1.578072864204451	0.3615777619239933	-0.3004115226337449	-0.8891213389121339	0.5729847494553377
2577.178955078125	-3.467926674211767	-8.408829037338219	2.686293422805113	-4.295647041649458	-2.740809709756947	-0.02740809709756947	-0.3004115226337449	-0.8891213389121339	0.5729847494553377
2581.085205078125	-3.497847801683257	-8.370638754184203	2.405075442859816	-4.310730809278312	-3.48753087950223	-0.03487530879502231	-0.2880658436213992	-0.899581589958159	0.5686274509803922
2584.991455078125	-3.478212598557822	-8.427320461842854	2.836781143851573	-3.611130383934662	-3.839677195100129	-0.03839677195100129	-0.2880658436213992	-0.899581589958159	0.5686274509803922
2588.897705078125	-3.378968584695509	-8.603929176621559	2.546114865422977	-3.957149792344202	-3.850057777352416	0.3388579127925136	-0.2880658436213992	-0.899581589958159	0.5686274509803922
2592.803955078125	-3.096016749526456	-8.591573942544587	2.327339923256294	-4.333356460721594	-4.607612634120155	-0.04607612634120155	-0.2880658436213992	-0.899581589958159	0.5686274509803922
2596.710205078125	-3.257980652176305	-8.626348045913337	2.566405821485601	-3.964691676158629	-4.223418362225058	0.3351243069437872	-0.2674897119341564	-0.901673640167364	0.5577342047930284
2600.616455078125	-3.056782717860703	-8.708574816373265	2.826932724932023	-5.070686029847526	-5.376001177910351	-0.808476992911179	-0.2674897119341564	-0.901673640167364	0.5577342047930284
2604.522705078125	-3.14726955035688	-8.666348975081906	2.828139148671629	-5.431799068240992	-5.759968897420364	-0.8123166701062792	-0.2674897119341564	-0.901673640167364	0.5577342047930284
2608.428955078125	-3.025496533042304	-8.610259364836494	2.620040147235834	-4.679385731486206	-4.244859183884885	-0.04244859183884885	-0.2757201646090535	-0.8870292887029287	0.5381263616557734
2612.335205078125	-2.936824388181247	-8.833953969639813	2.650146178848319	-4.686927615300633	-4.618219768757527	-0.04618219768757526	-0.2757201646090535	-0.8870292887029287	0.5381263616557734
2616.241455078125	-2.832813282858747	-8.533853538399908	2.565181210453438	-3.949607908529774	-3.476697192479774	0.34259151864124	-0.2757201646090535	-0.8870292887029287	0.5381263616557734
2620.147705078125	-3.217478562057281	-8.616543074414896	2.617806141466764	-3.964711400868773	-3.477150297249944	-0.4121299935385372	-0.2757201646090535	-0.8870292887029287	0.5381263616557734
2624.053955078125	-3.148124353107054	-8.751829250099233	2.359210122246797	-3.942075887070419	-2.730202575119575	-0.02730202575119576	-0.2962962962962963	-0.903765690376569	0.5642701525054467
2627.960205078125	-2.957232551240348	-8.854568255347893	2.568103302124243	-3.565869218693027	-1.972647718351836	0.3576320133825194	-0.2962962962962963	-0.903765690376569	0.5642701525054467
2631.866455078125	-3.2818969418886	-8.997774996940748	2.749615513057309	-3.558337197233671	-1.226153100991637	-0.01226153100991637	-0.2962962962962963	-0.903765690376569	0.5642701525054467
2635.772705078125	-2.99915830220452	-9.006739311361006	2.418661350399804	-3.942105474135635	-1.610800477656905	-1.148183476474682	-0.2880658436213992	-0.903765690376569	0.5468409586056645
2639.678955078125	-3.11945915922713	-8.915612892409909	2.19979244055491	-3.528169661975962	0.2672892384989301	0.002672892384989301	-0.2880658436213992	-0.903765690376569	0.5468409586056645
2643.585205078125	-3.087909258666657	-8.790925866665665	2.610382694888131	-3.182150253566422	0.2776698207512163	-0.3745817923585256	-0.2880658436213992	-0.903765690376569	0.5468409586056645
2647.491455078125	-3.170736209780963	-8.992812897288147	2.458045932431723	-2.821047077528028	1.034771572748786	-0.7443692654045877	-0.2880658436213992	-0.903765690376569	0.5468409586056645
2651.397705078125	-3.016583749284292	-8.729081999136287	2.876814405984687	-3.151982718308712	1.771112160241783	-0.3596473689636199	-0.2757201646090535	-0.8933054393305438	0.5577342047930284
2655.303955078125	-3.399267623999269	-8.613631086795511	2.545426779521242	-2.798421426084746	2.154853327366711	-0.7331684478584084	-0.2757201646090535	-0.8933054393305438	0.5577342047930284
2659.210205078125	-3.06025345952364	-9.055648982667016	2.456008955665353	-2.422214757707352	2.912408184134451	-0.3482344087246932	-0.2757201646090535	-0.8933054393305438	0.5577342047930284
2663.116455078125	-3.145867108019716	-8.526104741365538	2.713953263568698	-2.045968639909671	2.177426910951964	1.531208231373671	-0.2860082304526749	-0.907949790794979	0.5555555555555556
2667.022705078125	-3.460570924777651	-8.683355104027727	2.521125525449827	-2.407121127723426	3.285995321392178	0.03285995321392178	-0.2860082304526749	-0.907949790794979	0.5555555555555556
2670.928955078125	-3.298375639350273	-8.62544272290606	2.576148147865235	-2.753150398488037	3.648748771627448	0.03648748771627448	-0.2860082304526749	-0.907949790794979	0.5555555555555556
2674.835205078125	-3.157304894227708	-8.659782352063731	2.454629752646456	-2.775785912286391	2.90180104949708	-0.348340480071067	-0.2860082304526749	-0.907949790794979	0.5555555555555556
2678.741455078125	-3.491767183538407	-8.772677949800265	2.617357521583694	-2.760692282302465	3.275388186754807	0.03275388186754807	-0.3024691358024691	-0.8933054393305438	0.5620915032679739
2682.647705078125	-3.318895957380141	-8.65727250569088	2.382432263626503	-2.745598652318538	3.648975324012533	0.4138482438061631	-0.3024691358024691	-0.8933054393305438	0.5620915032679739
2686.553955078125	-3.288356461961718	-8.633625994151513	2.78796038819806	-3.114263436881504	3.264781052117435	0.03264781052117436	-0.3024691358024691	-0.8933054393305438	0.5620915032679739
2690.460205078125	-3.389688983252646	-8.665868022234291	2.391395567641618	-3.099169806897577	3.638368189375162	0.4137421724597894	-0.2880658436213992	-0.905857740585774	0.5577342047930284
2694.366455078125	-3.26784624798327	-8.602806616508742	2.880615550129074	-3.445169490596972	2.881719542147763	1.538251157685629	-0.2880658436213992	-0.905857740585774	0.5577342047930284
2698.272705078125	-3.267248088139177	-8.542990632099455	2.802804250139899	-3.099159944542505	3.265234156887606	0.7873693227009516	-0.2880658436213992	-0.905857740585774	0.5577342047930284
2702.178955078125	-3.066998924251958	-8.720094445397764	2.664638419800724	-4.889661093591125	2.838384794057938	0.02838384794057938	-0.2880658436213992	-0.905857740585774	0.5577342047930284
2706.085205078125	-3.238874901345305	-8.735974983015344	2.753034724058002	-3.828937767498937	2.497072165482495	0.4023292122208627	-0.2818930041152264	-0.901673640167364	0.5577342047930284
2709.991455078125	-3.400683201603279	-8.755188847196544	2.528233725624141	-3.791218486071728	3.990741057358147	0.794624391705657	-0.2818930041152264	-0.901673640167364	0.5577342047930284
2713.897705078125	-3.298510023234166	-8.638881111295309	2.2421415512736	-4.536070214301942	2.102723863720195	0.7757442197692774	-0.2818930041152264	-0.901673640167364	0.5577342047930284
2717.803955078125	-3.259095129047985	-8.737795733081317	2.530519262055455	-4.182499059722903	2.113330998357567	0.7758502911156512	-0.2839506172839507	-0.8870292887029287	0.5403050108932462
2721.710205078125	-3.37845630928849	-8.552701635919686	2.619388435919212	-6.003207193449522	1.685575425987559	-1.492578208004276	-0.2839506172839507	-0.8870292887029287	0.5403050108932462
2725.616455078125	-3.51964325100239	-8.529981665895578	2.588809534700248	-4.174947313553403	2.113557550742652	1.15321104720554	-0.2839506172839507	-0.8870292887029287	0.5403050108932462
2729.522705078125	-3.329985153814127	-8.756091138988394	2.57940064201749	-4.536070214301942	2.102723863720195	0.7757442197692774	-0.2839506172839507	-0.8870292887029287	0.5403050108932462
2733.428955078125	-3.227876641374105	-8.646249995996271	2.656620854998567	-5.265857899613446	1.707695904802641	0.01707695904802642	-0.2777777777777778	-0.8912133891213389	0.5446623093681918
2737.335205078125	-3.157993990534585	-8.728691982751458	2.632995561967183	-3.828918042788792	1.750804100507381	1.149583512703187	-0.2777777777777778	-0.8912133891213389	0.5446623093681918
2741.241455078125	-3.519861498513073	-8.551806416963831	2.426099953055567	-4.882099485066553	2.465477313955466	0.7793717542716302	-0.2777777777777778	-0.8912133891213389	0.5446623093681918
2745.147705078125	-3.268065505899094	-8.624732408091202	2.707799896253621	-4.897183252695409	1.718756144210183	0.7719045425741774	-0.2880658436213992	-0.8953974895397488	0.5511982570806101
2749.053955078125	-3.450953888635631	-8.731752499926722	2.75112505833953	-4.528518468132442	2.10295041610528	1.153104975859166	-0.2880658436213992	-0.8953974895397488	0.5511982570806101
2752.960205078125	-3.189486298001962	-8.847619699186025	2.798451424787952	-4.528518468132442	2.10295041610528	1.153104975859166	-0.2880658436213992	-0.8953974895397488	0.5511982570806101
2756.866455078125	-3.277455200884154	-8.553600896496109	2.731464595085546	-4.54361209811637	1.729363278847554	0.772010613920551	-0.2880658436213992	-0.8953974895397488	0.5511982570806101
2760.772705078125	-3.319294057006109	-8.697082468287601	2.441043845106468	-4.167405429738976	2.486918135615293	1.156944653054266	-0.2942386831275721	-0.899581589958159	0.5620915032679739
2764.678955078125	-3.288167516200155	-8.614731417995202	2.65759387515036	-5.24321252346002	2.081509594445453	0.77553207707653	-0.2942386831275721	-0.899581589958159	0.5620915032679739
2768.585205078125	-3.368358320298855	-8.55300374705716	2.609373300151225	-4.904734998864908	1.718529591825098	0.3945437864842887	-0.2942386831275721	-0.899581589958159	0.5620915032679739
2772.491455078125	-3.198102022648211	-8.699091153709995	2.482559371582968	-4.167405429738976	2.486918135615293	1.156944653054266	-0.2962962962962963	-0.8953974895397488	0.5620915032679739
2776.397705078125	-3.247070297452463	-8.545413583630088	2.600864678450032	-4.528518468132442	2.10295041610528	1.153104975859166	-0.2962962962962963	-0.8953974895397488	0.5620915032679739
2780.303955078125	-3.197382614187072	-8.627150307596125	2.607375729185395	-2.768214441406748	2.155759536907051	0.7762745765011461	-0.2962962962962963	-0.8953974895397488	0.5620915032679739
2784.210205078125	-3.250697651912418	-8.908149029625596	2.683701733615758	-4.174947313553403	2.113557550742652	1.15321104720554	-0.2962962962962963	-0.8953974895397488	0.5620915032679739
2788.116455078125	-3.168003063871721	-8.719498306363956	2.522244043942075	-4.912276882679334	1.345169006952456	0.3908101806355623	-0.2860082304526749	-0.9163179916317991	0.5511982570806101
2792.022705078125	-3.520268691785319	-8.592525744188398	2.393756884458586	-3.4451596282419	2.508585509660206	1.911878307926791	-0.2860082304526749	-0.9163179916317991	0.5511982570806101
2795.928955078125	-3.351288535829083	-8.866227320281993	2.634286859738721	-4.882099485066553	2.465477313955466	0.7793717542716302	-0.2860082304526749	-0.9163179916317991	0.5511982570806101
2799.835205078125	-3.237691716923966	-8.617656540881434	2.466033185079619	-4.174947313553403	2.113557550742652	1.15321104720554	-0.2860082304526749	-0.8974895397489538	0.5511982570806101
2803.741455078125	-3.260296500761881	-8.857932904470914	2.635611500879947	-3.4451596282419	2.508585509660206	1.911878307926791	-0.2860082304526749	-0.8974895397489538	0.5511982570806101
2807.647705078125	-3.280805704335187	-8.888651241599481	2.553062411179705	-3.813824412804865	2.124391237765108	1.530677874641802	-0.2860082304526749	-0.8974895397489538	0.5511982570806101
2811.553955078125	-3.339999279176972	-8.747402665171917	2.418118762838524	-2.768214441406748	2.155759536907051	0.7762745765011461	-0.2860082304526749	-0.8974895397489538	0.5511982570806101
2815.460205078125	-3.250714828799833	-8.909866718367079	2.511898505692638	-3.859134889821862	2.123031923454598	-0.7334866618975295	-0.2798353909465021	-0.903765690376569	0.5446623093681918
2819.366455078125	-3.419554538441324	-8.622120510799006	2.666011560388768	-3.437617744427472	2.881946094532848	1.915611913775517	-0.2798353909465021	-0.903765690376569	0.5446623093681918
2823.272705078125	-3.53127200378223	-8.682755933778493	2.439640392364163	-3.099150082187432	2.892100124400049	1.160996472942114	-0.2798353909465021	-0.903765690376569	0.5446623093681918
2827.178955078125	-3.227682643586831	-8.626850217268935	2.576784703104726	-3.791198761361583	3.244472992383033	1.541878692187981	-0.2942386831275721	-0.8891213389121339	0.5686274509803922
2831.085205078125	-3.320586365182789	-8.826313285955639	2.646690593262512	-3.452721236766471	2.881492989762678	1.16089040159574	-0.2942386831275721	-0.8891213389121339	0.5686274509803922
2834.991455078125	-3.178594130570676	-8.768503966158463	2.651000981598492	-2.722933551454967	3.276520948680232	1.919557662316991	-0.2942386831275721	-0.8891213389121339	0.5686274509803922
2838.897705078125	-3.390178019341398	-8.714771631109452	2.550561658453134	-2.730485297624467	3.276294396295147	1.542196906227103	-0.2942386831275721	-0.8891213389121339	0.5686274509803922
2842.803955078125	-3.257790696009601	-8.60735242924282	2.446145380668673	-2.376914143045428	3.286901530932518	1.542302977573476	-0.2777777777777778	-0.901673640167364	0.5468409586056645
2846.710205078125	-3.196586414935138	-8.54753038240268	2.490152566225464	-2.354278629247073	4.033849253062886	1.927130945360818	-0.2777777777777778	-0.901673640167364	0.5468409586056645
2850.616455078125	-3.236442856168394	-8.492770465324206	2.835926341101399	-3.452731099121544	3.254627022250235	0.7872632513545779	-0.2777777777777778	-0.901673640167364	0.5468409586056645
2854.522705078125	-3.380280090569888	-8.73507976405949	2.559746241194357	-2.008259220837534	4.044229835315173	1.549876260617303	-0.2962962962962963	-0.905857740585774	0.5446623093681918
2858.428955078125	-3.299980162715846	-8.785895059463405	2.689321607015833	-2.361840237771645	4.406756733165357	1.176143039029767	-0.2962962962962963	-0.905857740585774	0.5446623093681918
2862.335205078125	-3.310895569465399	-8.867334724317677	2.604332388897543	-2.015810967007033	4.044003282930087	1.172515504527414	-0.2962962962962963	-0.905857740585774	0.5446623093681918
2866.241455078125	-3.158212238045268	-8.75051673381971	2.470285980322502	-2.376914143045428	3.286901530932518	1.542302977573476	-0.2962962962962963	-0.905857740585774	0.5446623093681918
2870.147705078125	-3.258892037614434	-8.717486589726136	2.541637760238559	-1.28602328169553	4.439031241847642	1.931182765248665	-0.2901234567901235	-0.8974895397489538	0.5555555555555556
2874.053955078125	-3.472070345699308	-8.823196186092419	2.655432618551518	0.1131578442816268	4.481006675626956	1.176885538454383	-0.2901234567901235	-0.8974895397489538	0.5555555555555556
2877.960205078125	-3.521672144527624	-8.732871018418972	2.497836697330746	-0.9400038732859902	4.449411824099928	1.55392808050515	-0.2901234567901235	-0.8974895397489538	0.5555555555555556
2881.866455078125	-3.321366397952451	-8.904316562921805	2.92561091191479	-2.023342988466389	3.297508665569889	1.54240904891985	-0.2901234567901235	-0.8974895397489538	0.5555555555555556
2885.772705078125	-3.573771664867085	-8.892318001859977	2.610555474167422	-0.593984464876451	4.459792406352213	1.176673395761636	-0.2901234567901235	-0.8974895397489538	0.5555555555555556
2889.678955078125	-3.299991277172409	-8.787006505119658	2.578154812477344	-0.9475556194554897	4.449185271714843	1.176567324415262	-0.2901234567901235	-0.8974895397489538	0.5555555555555556
2893.585205078125	-3.521971224449671	-8.762779010623614	2.536742347325333	-1.33885591781681	3.318043277689376	0.4105389233429315	-0.2901234567901235	-0.8974895397489538	0.5555555555555556
2897.491455078125	-3.298164464675585	-8.604325255437242	2.668115223894514	-0.2253098179584131	4.470852645759756	1.931500979287786	-0.2962962962962963	-0.9142259414225941	0.5490196078431373
2901.397705078125	-3.572251005128302	-8.740252027981636	2.668679029963777	-0.9626393870843445	3.702464101969559	1.169100112717809	-0.2962962962962963	-0.9142259414225941	0.5490196078431373
2905.303955078125	-3.580713148192959	-8.576365324346469	2.878808945735091	0.0905321928383447	3.360924921009031	1.165684720908204	-0.2962962962962963	-0.9142259414225941	0.5490196078431373
2909.210205078125	-3.178489048435903	-8.757995752681156	2.691931483497745	-1.384156532478735	2.94354993089131	-1.479998462955238	-0.2962962962962963	-0.9142259414225941	0.5490196078431373
2913.116455078125	-3.569121780403376	-8.427329555489132	2.654053415532621	-0.2479453317567673	3.723904923629386	1.546673011500445	-0.2962962962962963	-0.9142259414225941	0.5490196078431373
2917.022705078125	-3.480872995296838	-8.693360135744294	2.490119222855777	0.07544842520948997	2.614203751263747	1.158217509210751	-0.2962962962962963	-0.9142259414225941	0.5490196078431373
2920.928955078125	-3.761031060248125	-8.426338348044784	2.369355600278108	-0.9928365094072702	3.328423859941663	0.03328423859941663	-0.2962962962962963	-0.9142259414225941	0.5490196078431373
2924.835205078125	-3.449446364163694	-8.581000052733046	2.677869675135853	-0.6317037463036599	2.966123514476562	0.7843782162768411	-0.3024691358024691	-0.901673640167364	0.5555555555555556
2928.741455078125	-3.439557529038463	-8.602217550310929	2.59609960780013	-0.9852650385276265	2.582382347351634	1.15789929517163	-0.3024691358024691	-0.901673640167364	0.5555555555555556
2932.647705078125	-3.349246507037003	-8.662024441073937	2.856638636108257	-0.6543589848121584	2.965443857321307	-0.3477040519928247	-0.3024691358024691	-0.901673640167364	0.5555555555555556
2936.553955078125	-3.289484074100244	-8.746387208004156	2.620694889767881	-0.6392554924731594	2.965896962091477	0.4070174601869525	-0.3024691358024691	-0.901673640167364	0.5555555555555556
2940.460205078125	-3.197991888487728	-8.688077737661663	2.57402023463608	-0.2630389617406941	3.35031778637166	1.16557864956183	-0.3024691358024691	-0.901673640167364	0.5555555555555556
2944.366455078125	-3.460759870539215	-8.702249680184039	2.651492038497528	0.08299030902391732	2.987564336136389	1.161951115059477	-0.3024691358024691	-0.901673640167364	0.5555555555555556
2948.272705078125	-3.600522141002827	-8.537062585131055	2.729060841252612	-0.278132591724621	2.976730649113933	0.7844842876232149	-0.3024691358024691	-0.901673640167364	0.5555555555555556
2952.178955078125	-3.25795842326318	-8.624125154600829	2.78873941056258	-0.29323608406362	2.976277544343763	0.02976277544343763	-0.2839506172839507	-0.907949790794979	0.5555555555555556
2956.085205078125	-3.299472939334538	-8.735172721332557	2.712064816358209	-0.2554773532161226	2.977410306269188	1.916566555892881	-0.2839506172839507	-0.907949790794979	0.5555555555555556
2959.991455078125	-3.337023636033638	-8.449838350838554	2.88757218953208	0.08298044666884523	3.360698368623946	0.788323964818315	-0.2839506172839507	-0.907949790794979	0.5555555555555556
2963.897705078125	-3.329365775462051	-8.694153303780803	2.713816858874522	-0.6468171009977309	3.338804442193949	-0.3439704461440983	-0.2839506172839507	-0.907949790794979	0.5555555555555556
2967.803955078125	-3.295432329171485	-8.331111705027256	2.722207263174095	0.06033507051541891	2.986884678981134	0.02986884678981134	-0.2839506172839507	-0.907949790794979	0.5555555555555556
2971.710205078125	-3.565093295102028	-9.034582035455301	2.542922995579246	-0.3309948149111173	2.975144782418338	-1.857041005006006	-0.2839506172839507	-0.907949790794979	0.5555555555555556
2975.616455078125	-3.187697880900535	-8.668777989043392	2.504381091435795	0.07541883814427364	3.733605848726418	0.03733605848726418	-0.2839506172839507	-0.907949790794979	0.5555555555555556
2979.522705078125	-3.562584459134321	-8.783698438684592	2.383775092060286	0.06788681668491839	2.987111231366219	0.4072296028796999	-0.3024691358024691	-0.901673640167364	0.5555555555555556
2983.428955078125	-3.370291225335594	-8.746294250731088	2.46837631460403	0.421438246553813	3.743986430978704	-0.3399186262562507	-0.3024691358024691	-0.901673640167364	0.5555555555555556
2987.335205078125	-3.764563436624727	-8.779575985705034	2.39206243503537	0.08299030902391732	2.987564336136389	1.161951115059477	-0.3024691358024691	-0.901673640167364	0.5555555555555556
2991.241455078125	-3.31997507007185	-8.76518377486169	2.700258232273369	-0.3007779678780473	2.602916959471121	0.02602916959471122	-0.3024691358024691	-0.901673640167364	0.5555555555555556
2995.147705078125	-3.875736293594069	-8.785750571528091	2.562359148891696	0.04524144053149207	2.613297541723408	-0.3512255151488037	-0.3024691358024691	-0.901673640167364	0.5555555555555556
2999.053955078125	-3.440344634644119	-8.680928110876527	2.804277420837006	0.0603252081603468	3.360018711468691	-0.3437583034513508	-0.3024691358024691	-0.901673640167364	0.5555555555555556
3002.960205078125	-2.996607029220847	-8.751612012993691	2.683968480573259	0.4138963627393857	3.370625846106063	-0.3436522321049771	-0.3024691358024691	-0.901673640167364	0.5555555555555556
3006.866455078125	-3.754826162270803	-8.815949560413646	2.814583553285903	0.4138963627393857	3.370625846106063	-0.3436522321049771	-0.2901234567901235	-0.903765690376569	0.5490196078431373
3010.772705078125	-3.470558779606804	-8.672039576841923	2.622601524270927	0.3988125951105309	2.623904676360779	-0.35111944380243	-0.2901234567901235	-0.903765690376569	0.5490196078431373
3014.678955078125	-3.280069118986634	-8.814992706744125	2.849681996705251	0.4063347542148141	3.743533326208534	-1.094640138436028	-0.2901234567901235	-0.903765690376569	0.5490196078431373
3018.585205078125	-3.520839570690576	-8.649613634714152	2.744432134678599	-0.3234332063865458	2.602237302315866	-1.106053098674955	-0.2901234567901235	-0.903765690376569	0.5490196078431373
3022.491455078125	-3.320388325774947	-8.806509345171483	2.607278730291758	0.3912608489410315	2.623678123975694	-0.7284801998923186	-0.2962962962962963	-0.8933054393305438	0.5490196078431373
3026.397705078125	-3.610722180911809	-8.546965565928275	2.728463691813661	-0.3309750902009731	2.228876717443224	-1.109786704523681	-0.2962962962962963	-0.8933054393305438	0.5490196078431373
3030.303955078125	-3.622245851556875	-8.689231620333883	2.620225051376829	-0.3158814602170463	2.602463854700951	-0.728692342585066	-0.2962962962962963	-0.8933054393305438	0.5490196078431373
3034.210205078125	-3.319706302304064	-8.738306998083193	2.358170415355628	0.04523157817641997	2.986431574210964	-0.7248526653899658	-0.2983539094650206	-0.8933054393305438	0.5403050108932462
3038.116455078125	-3.386030306233288	-8.300000320298432	2.621846751629817	0.3912608489410315	2.623678123975694	-0.7284801998923186	-0.2983539094650206	-0.8933054393305438	0.5403050108932462
3042.022705078125	-3.819577975798999	-8.220423842526097	2.641692119024797	0.03014781054756524	2.239710404465681	-0.7323198770874187	-0.2983539094650206	-0.8933054393305438	0.5403050108932462
3045.928955078125	-3.176774390909846	-8.586530000075481	2.67021888740026	-0.6996497371190109	2.217816478035683	-1.864614288049832	-0.2983539094650206	-0.8933054393305438	0.5403050108932462
3049.835205078125	-3.509240119659857	-8.499769541743177	2.600525182322304	-1.060762775512477	1.833848758525671	-1.868453965244932	-0.3004115226337449	-0.8828451882845187	0.5533769063180829
3053.741455078125	-3.431593515708835	-8.8159172274491	2.454181132763386	0.3837189651266041	2.250317539103052	-0.732213805741045	-0.3004115226337449	-0.8828451882845187	0.5533769063180829
3057.647705078125	-3.409262551664415	-8.603022843209141	2.57616027272694	-0.3234332063865458	2.602237302315866	-1.106053098674955	-0.3004115226337449	-0.8828451882845187	0.5533769063180829
3061.553955078125	-3.643761418651661	-8.820586309610507	2.573038120838009	-0.3083395764026189	2.975824439573593	-0.7249587367363396	-0.2818930041152264	-0.905857740585774	0.5555555555555556
3065.460205078125	-3.421099447903516	-8.776611457018261	2.36534227105389	0.03768969436199261	2.613070989338322	-0.7285862712386924	-0.2818930041152264	-0.905857740585774	0.5555555555555556
3069.366455078125	-3.479952516212431	-8.601312227303653	2.605841934179765	-0.3083395764026189	2.975824439573593	-0.7249587367363396	-0.2818930041152264	-0.905857740585774	0.5555555555555556
3073.272705078125	-3.480594123477632	-8.665472953823748	2.249092128245754	-0.3309849525560452	2.602010749930781	-1.483413854764843	-0.2818930041152264	-0.905857740585774	0.5555555555555556
3077.178955078125	-3.350062914391778	-8.743665176551477	2.771740354452751	-1.075856405496404	1.460261621267944	-2.249548327183547	-0.2901234567901235	-0.903765690376569	0.5490196078431373
3081.085205078125	-3.318891915759573	-8.656868343634061	2.42285655254959	-0.3536204663543994	1.855063027800413	-1.868241822552185	-0.2901234567901235	-0.903765690376569	0.5490196078431373
3084.991455078125	-3.499642281215535	-8.550086707412063	2.638509342827343	-0.6996300124088667	1.47154841306057	-1.117359987567508	-0.2901234567901235	-0.903765690376569	0.5490196078431373
3088.897705078125	-3.319797238766849	-8.747400644361631	2.45872492468718	-0.3385268363704725	2.22865016505814	-1.48714746061357	-0.2880658436213992	-0.9100418410041841	0.5359477124183007
3092.803955078125	-3.520147443168273	-8.580400882483813	2.596384542050188	-0.6920979909495114	2.218043030420769	-1.487253531959943	-0.2880658436213992	-0.9100418410041841	0.5359477124183007
3096.710205078125	-3.188905315045283	-8.789521403518219	2.548836896875657	-1.106073252529474	1.832489444215161	-4.132618501784264	-0.2880658436213992	-0.9100418410041841	0.5359477124183007
3100.616455078125	-3.328474598126764	-8.605035570252104	2.536463475506128	0.3610637266181057	2.249637881947797	-1.864296074010711	-0.2880658436213992	-0.9100418410041841	0.5359477124183007
3104.522705078125	-3.541165890933171	-8.662043638771635	2.470880098546026	-1.045659283173478	1.834301863295841	-1.113732453065155	-0.2860082304526749	-0.9121338912133891	0.5533769063180829
3108.428955078125	-3.308568606423261	-8.634638420103846	2.646293504041687	-0.361182074878971	2.227970507902885	-2.619229728883235	-0.2860082304526749	-0.9121338912133891	0.5533769063180829
3112.335205078125	-3.287658272008562	-8.563806998835943	2.700549228954279	-1.09850178164983	1.086447931625132	-3.008003445212051	-0.2860082304526749	-0.9121338912133891	0.5533769063180829
3116.241455078125	-3.397748985070769	-8.461767193945581	2.583338190856054	0.3459799589892509	1.502916712202513	-1.871763285708164	-0.2942386831275721	-0.905857740585774	0.5555555555555556
3120.147705078125	-3.400600348381631	-8.746903525031744	2.346830638446415	-0.3611722125238989	1.854836475415328	-2.245602578642073	-0.2942386831275721	-0.905857740585774	0.5555555555555556
3124.053955078125	-3.441583391348271	-8.804803781291705	2.535444987122943	-0.3687140963383262	1.481475890542686	-2.2493361844908	-0.2942386831275721	-0.905857740585774	0.5555555555555556
3127.960205078125	-3.20750586330526	-8.629374209313774	2.364739059184088	-0.7222951132724373	1.844002788392872	-2.623069406078335	-0.2942386831275721	-0.905857740585774	0.5555555555555556
3131.866455078125	-3.169705596536073	-8.889751572799172	2.665229506808823	-1.429427560075443	1.449654486630573	-2.249654398529921	-0.2901234567901235	-0.9100418410041841	0.5642701525054467
3135.772705078125	-3.521973245259955	-8.762981091652025	2.51653020286379	-0.3536303287094715	2.228197060287969	-2.241868972793347	-0.2901234567901235	-0.9100418410041841	0.5642701525054467
3139.678955078125	-3.44137120626844	-8.783585273308681	2.637518135382993	-1.083427876376048	2.206303133857972	-3.37416338375576	-0.2901234567901235	-0.9100418410041841	0.5642701525054467
3143.585205078125	-3.357348945871091	-8.462167314381833	2.624126225630279	-1.090959897835403	1.459808516497774	-3.004269839363324	-0.2839506172839507	-0.9121338912133891	0.5511982570806101
3147.491455078125	-3.33858269116782	-8.605743864256679	2.445417888966397	-0.7373986056114362	1.843549683622702	-3.377790918258113	-0.2839506172839507	-0.9121338912133891	0.5511982570806101
3151.397705078125	-3.359374808180899	-8.664753545362611	2.563471604953091	-1.075876130206548	2.206529686243057	-2.996802627665871	-0.2839506172839507	-0.9121338912133891	0.5511982570806101
3155.303955078125	-3.377565131953203	-8.463583902390987	2.442035052550818	-1.068324384037049	2.206756238628143	-2.619441871575983	-0.2839506172839507	-0.9121338912133891	0.5511982570806101
3159.210205078125	-3.489747383659451	-8.570697961904717	2.617375708876251	-1.113634861054045	2.205396924317633	-4.883606408115314	-0.3045267489711934	-0.9267782426778242	0.5511982570806101
3163.116455078125	-3.358766544285386	-8.603927155811276	2.586721027271634	-0.007630645010076338	2.984845707515369	-3.366377958019186	-0.3045267489711934	-0.9267782426778242	0.5511982570806101
3167.022705078125	-3.522388521773337	-8.804508742990228	2.403338556420635	-0.7072212079986546	2.963857990625712	-2.989229344622045	-0.3045267489711934	-0.9267782426778242	0.5511982570806101
3170.928955078125	-3.540468711385158	-8.592325683970271	2.373362867071474	-1.060802224932766	3.326384888475898	-3.362962566209581	-0.2901234567901235	-0.9100418410041841	0.5511982570806101
3174.835205078125	-3.319784103500003	-8.746087117676968	2.590103863687212	-1.421915263326232	2.942417168965885	-3.366802243404681	-0.2901234567901235	-0.9100418410041841	0.5511982570806101
3178.741455078125	-3.471975367615956	-8.813698377757161	2.595302398143053	-7.889884057686591e-05	2.985072259900454	-2.989017201929298	-0.2901234567901235	-0.9100418410041841	0.5511982570806101
3182.647705078125	-3.348879729970438	-8.625346734417567	2.484738815474367	-1.767934671735771	2.932036586713598	-2.989547558661166	-0.2901234567901235	-0.9100418410041841	0.5511982570806101
3186.553955078125	-3.54197421504681	-8.742876050135537	2.466830394736695	-1.414363517156732	2.94264372135097	-2.989441487314792	-0.2942386831275721	-0.907949790794979	0.5511982570806101
3190.460205078125	-3.442077479462733	-8.854212592737891	2.6440807167806	-2.520377595555774	2.53632897064079	-4.880297087652083	-0.2942386831275721	-0.907949790794979	0.5511982570806101
3194.366455078125	-3.218216157810976	-8.690302649784455	2.311080483710445	-2.843731903101743	2.153494013056201	-2.99733298439774	-0.2942386831275721	-0.907949790794979	0.5511982570806101
3198.272705078125	-3.288058392444813	-8.603819042461076	2.738948665972701	-1.399269887172806	3.316230858608697	-2.608347125376177	-0.2880658436213992	-0.899581589958159	0.5468409586056645
3202.178955078125	-3.379802168937699	-8.687287600840582	2.289413355844352	-2.490180473232848	2.910369212668686	-3.744481213533691	-0.2880658436213992	-0.899581589958159	0.5468409586056645
3206.085205078125	-3.38048318200344	-8.75538890741467	2.548627743011253	-2.113973804855455	3.667924069436426	-3.359547174399975	-0.2880658436213992	-0.899581589958159	0.5468409586056645
3209.991455078125	-3.429561590968175	-8.612724753383093	2.575472186825205	-2.136609318653809	2.920976347306058	-3.744375142187317	-0.2880658436213992	-0.899581589958159	0.5468409586056645
3213.897705078125	-3.328784792505373	-8.636055008113001	2.464202330962226	-1.767964258800988	4.051438684176269	-4.110429009384653	-0.2880658436213992	-0.9142259414225941	0.5468409586056645
3217.803955078125	-3.541158818097177	-8.661336355172201	2.541622604161429	-2.482648451773493	3.656863830028885	-4.114374757926127	-0.2880658436213992	-0.9142259414225941	0.5468409586056645
3221.710205078125	-3.4214955267192	-8.816219338586572	2.444165996995399	-3.204884390915497	3.262062423496416	-4.495681262557489	-0.2880658436213992	-0.9142259414225941	0.5468409586056645
3225.616455078125	-3.239795380429711	-8.828022891455985	2.637312012734015	-2.851313236336458	3.272669558133787	-4.495575191211115	-0.2942386831275721	-0.9163179916317991	0.5533769063180829
3229.522705078125	-3.552273274659714	-8.762681001324836	2.485939176783121	-3.558445683139464	2.878321256371488	-4.1221601836627	-0.2942386831275721	-0.9163179916317991	0.5533769063180829
3233.428955078125	-3.361379451982724	-8.865217925545087	2.715044501122111	-3.588662530172534	3.250549079318705	-6.005230358263417	-0.2942386831275721	-0.9163179916317991	0.5533769063180829
3237.335205078125	-3.422095707373576	-8.87623740402427	2.501765152523031	-4.318440353128965	2.482387087913594	-6.390270468743506	-0.2942386831275721	-0.9163179916317991	0.5533769063180829
3241.241455078125	-3.338147206551597	-8.562195402634377	2.760730980024988	-3.235091375593495	3.261156213956076	-6.005124286917043	-0.2901234567901235	-0.8933054393305438	0.5381263616557734
3245.147705078125	-3.282398102839056	-9.047891091986367	2.787508737099564	-3.949775568566	2.866581359808692	-6.009070035458517	-0.2901234567901235	-0.8933054393305438	0.5381263616557734
3249.053955078125	-3.25914665971023	-8.742948799305765	3.025210588387105	-3.949785430921072	3.239715392296249	-6.38269718569968	-0.2901234567901235	-0.8933054393305438	0.5381263616557734
3252.960205078125	-3.602617721267436	-8.74662061159197	2.981188246753182	-3.987534299413497	2.865448597883267	-7.895873815907961	-0.3004115226337449	-0.907949790794979	0.5490196078431373
3256.866455078125	-3.523668705088312	-8.932527074487806	2.730258171345939	-3.626371949244671	1.383746154955496	-6.02389838750705	-0.3004115226337449	-0.907949790794979	0.5490196078431373
3260.772705078125	-3.442749398882195	-8.921404534684134	2.994249754024447	-4.017662385250919	-0.1205298715575276	-6.416299638338217	-0.3004115226337449	-0.907949790794979	0.5490196078431373
3264.678955078125	-3.260555164478246	-8.883799276107363	3.078760040105406	-5.830818772808038	-0.5480588915424501	-8.307367381368255	-0.3004115226337449	-0.907949790794979	0.5490196078431373
3268.585205078125	-3.603226995568091	-8.80754804165751	2.947832752203869	-8.290733087232455	0.1244123357412353	-8.300642669095419	-0.3004115226337449	-0.907949790794979	0.5620915032679739
3272.491455078125	-3.28993572519874	-8.791552317853736	3.153785653117953	-10.37445059563455	1.927572452280217	-8.282611067930029	-0.3004115226337449	-0.907949790794979	0.5620915032679739
3276.397705078125	-3.594342503154056	-8.929199810355041	2.921636988491112	-12.18005523702217	1.50026998468038	-9.796318054870179	-0.3004115226337449	-0.907949790794979	0.5620915032679739
3280.303955078125	-3.302123232022132	-9.000201990091949	2.466463617670131	-11.82647422008806	1.137743086830194	-9.422584833282642	-0.2942386831275721	-0.9225941422594142	0.5315904139433552
3284.210205078125	-3.305126156104301	-9.300494398308842	2.734247250846748	-11.11933191092998	1.158957356104936	-9.422372690589894	-0.2942386831275721	-0.9225941422594142	0.5315904139433552
3288.116455078125	-3.509851414770796	-9.571000062938138	2.546957543311446	-9.359027884204288	1.211766476906707	-9.799203089947914	-0.2942386831275721	-0.9225941422594142	0.5315904139433552
3292.022705078125	-3.362918299014064	-9.019102628679114	2.475011645171864	-9.419402404139994	-0.2825820721241999	-11.32358053770237	-0.2942386831275721	-0.9225941422594142	0.5315904139433552
3295.928955078125	-3.20487779953079	-9.376668841967899	2.388006668795187	-5.484838813818786	0.9548578206600633	-10.17913066707642	-0.2818930041152264	-0.9435146443514644	0.5359477124183007
3299.835205078125	-2.922596873376058	-9.431404509322965	2.529506836103122	-6.545562139910976	1.296170449235507	-10.5530760313567	-0.2818930041152264	-0.9435146443514644	0.5359477124183007
3303.741455078125	-3.083053251553971	-9.315426165498039	2.695317351128751	-4.416603190977386	2.106307874419932	-10.9223331476709	-0.2818930041152264	-0.9435146443514644	0.5359477124183007
3307.647705078125	-2.739468014215714	-9.300336775106684	2.871224844738873	-5.138848992474464	2.08464050037502	-11.67726680254342	-0.271604938271605	-0.9246861924686192	0.542483660130719
3311.553955078125	-2.76068248057817	-9.401581391150255	2.805344408667009	-4.762612737031854	1.722793259680089	-10.17145131268622	-0.271604938271605	-0.9246861924686192	0.542483660130719
3315.460205078125	-2.679506531465972	-9.364794560738542	2.605975307658515	-4.454342197114739	1.358907047519394	-12.06188262763802	-0.271604938271605	-0.9246861924686192	0.542483660130719
3319.366455078125	-2.567925470819242	-9.317799607176713	2.478127734629942	-4.492081203252093	0.6115062206188552	-13.20143210760513	-0.271604938271605	-0.9246861924686192	0.542483660130719
3323.272705078125	-2.499650374560723	-9.560997052031855	2.537357684056841	-2.709141662728044	1.411263063550995	-13.19343453917581	-0.2736625514403292	-0.907949790794979	0.5315904139433552
3327.178955078125	-2.044084966544627	-9.459001704967744	2.536912095389197	-0.941305614542994	2.210566801712964	-13.94015848292627	-0.2736625514403292	-0.907949790794979	0.5315904139433552
3331.085205078125	-2.236778320779606	-9.536417936546378	2.490710309863875	0.1495556597416878	4.482098610090758	-14.67216014597457	-0.2736625514403292	-0.907949790794979	0.5315904139433552
3334.991455078125	-2.2565519494095	-9.493578779333793	2.694674733458408	1.308323475421432	8.994473584859659	-14.24967790566084	-0.2798353909465021	-0.9309623430962343	0.5403050108932462
3338.897705078125	-2.47977873663205	-9.594035279366565	2.30358125674616	2.045613595127075	11.25539825860008	-14.98178564005551	-0.2798353909465021	-0.9309623430962343	0.5403050108932462
3342.803955078125	-2.811384610606177	-9.421289343445915	2.753346939246895	3.805937346562914	10.56193931442674	-14.6113617389312	-0.2798353909465021	-0.9309623430962343	0.5403050108932462
3346.710205078125	-3.135588256509654	-9.518421610561349	2.492723036906836	5.874551362626011	8.758326093117587	-15.38411485227637	-0.2798353909465021	-0.9309623430962343	0.5403050108932462
3350.616455078125	-3.263221623648112	-9.150445193094033	2.671461685724979	10.83214858467742	7.041382367988083	-13.13713334613144	-0.2695473251028807	-0.9184100418410041	0.5359477124183007
3354.522705078125	-3.40957577725845	-9.644446412713663	2.473580911490723	15.05995812141732	4.929410683941027	-11.64881910070776	-0.2695473251028807	-0.9184100418410041	0.5359477124183007
3358.428955078125	-3.283835909356192	-9.191671743699905	2.547982094125484	19.76955083758152	9.175176077366251	-10.09692748450936	-0.2695473251028807	-0.9184100418410041	0.5359477124183007
3362.335205078125	-3.39150063967234	-8.847033664203636	2.453026239686025	21.2969933001793	13.69861129154269	-8.919617660669479	-0.2695473251028807	-0.9184100418410041	0.5359477124183007
3366.241455078125	-3.308905071335563	-8.668284911334069	2.311274481497719	21.41013141975078	18.92588603214476	-8.48998642269742	-0.2695473251028807	-0.9184100418410041	0.5359477124183007
3370.147705078125	-3.540490940298282	-8.594548575282779	2.151029277994495	19.69506883355658	21.4863744530664	-8.464381538488205	-0.2695473251028807	-0.9184100418410041	0.5359477124183007
3374.053955078125	-3.729022435753162	-8.255778928851527	2.31759759687666	16.49782495000623	21.39045713655989	-9.220057692785346	-0.2695473251028807	-0.9184100418410041	0.5359477124183007
3377.960205078125	-3.592104455764418	-8.705395071391237	2.07426374732734	13.63906845340607	20.55842578494546	-9.983094987433565	-0.2654320987654321	-0.901673640167364	0.5294117647058824
3381.866455078125	-3.315801086430046	-8.347785410681343	2.024200193349107	11.87877428903545	20.13248263165614	-9.232637437834383	-0.2654320987654321	-0.901673640167364	0.5294117647058824
3385.772705078125	-3.492917024590058	-8.887662054965414	2.227758434076536	10.39658312932423	17.84921092671555	-10.3875456265819	-0.2654320987654321	-0.901673640167364	0.5294117647058824
3389.678955078125	-3.431326768751334	-8.789242531699013	2.091881171384102	10.35886384789702	16.35554203483989	-10.7798408060667	-0.2654320987654321	-0.901673640167364	0.5294117647058824
3393.585205078125	-3.551574074301416	-8.69276096549506	2.408634089770112	10.2985287773816	13.36865735585876	-10.80970965285651	-0.2654320987654321	-0.901673640167364	0.5294117647058824
3397.491455078125	-3.431609682191108	-8.817533875676379	2.292483977071038	12.07394615880137	13.04878554894315	-10.05819138979359	-0.2654320987654321	-0.901673640167364	0.5294117647058824
3401.397705078125	-3.291439208050108	-8.941900602990591	2.257364315143707	11.63739455755348	9.677480045681831	-10.84662142595828	-0.2654320987654321	-0.901673640167364	0.5294117647058824
3405.303955078125	-3.077655667285146	-8.775667738615587	2.136500662456976	13.05925064674928	8.973867071641283	-9.72158208400057	-0.2798353909465021	-0.9246861924686192	0.5555555555555556
3409.210205078125	-2.765149481711167	-8.838180494349002	2.570843520869479	13.39016656281982	8.983794549123401	-10.85355828092386	-0.2798353909465021	-0.9246861924686192	0.5555555555555556
3413.116455078125	-2.745155584760306	-8.858992819464925	2.549800823381172	14.50370280032315	10.50973794968134	-9.706223375220169	-0.2798353909465021	-0.9246861924686192	0.5555555555555556
3417.022705078125	-2.261578714991192	-8.986154327402044	2.92201589041938	13.766343644132	10.86075150335381	-11.58950569251363	-0.2798353909465021	-0.9246861924686192	0.5555555555555556
3420.928955078125	-2.301277533022288	-8.915632090107609	2.82413491309369	14.91001782982782	14.99953934086498	-11.54811781413852	-0.2798353909465021	-0.9246861924686192	0.5555555555555556
3424.835205078125	-2.130182599103744	-8.977855869970398	3.004552855257918	14.24056521503173	17.59139606092856	-12.27691622806996	-0.2798353909465021	-0.9246861924686192	0.5555555555555556
3428.741455078125	-2.182967174129514	-9.20580832204231	3.336061730338408	13.90959998718583	19.44713874588423	-13.01307578235248	-0.2798353909465021	-0.9246861924686192	0.5555555555555556
3432.647705078125	-2.142510552241881	-9.200550173683087	2.932688799934842	16.42227790124602	22.50759371017171	-14.11454670440772	-0.2613168724279836	-0.9163179916317991	0.5511982570806101
3436.553955078125	-2.445582585004552	-9.204723146919751	2.919348420844372	18.22028148468878	24.80033978782425	-14.84633622476327	-0.2613168724279836	-0.9163179916317991	0.5511982570806101
3440.460205078125	-2.245258651136821	-9.374349962166896	2.518930925481297	20.01076290902726	25.97345721562903	-14.83460505048522	-0.2613168724279836	-0.9163179916317991	0.5511982570806101
3444.366455078125	-2.74846163038509	-9.189597381943281	2.816065817629289	20.34168868745287	25.61025066062358	-15.59295409716735	-0.2613168724279836	-0.9163179916317991	0.5511982570806101
3448.272705078125	-2.615569104482268	-9.031657922974212	2.714180604725659	21.0110919904736	24.88406410299779	-16.73229143444172	-0.2613168724279836	-0.9163179916317991	0.5511982570806101
3452.178955078125	-2.367106438431908	-9.43791657046347	2.989281591940993	21.30428862511693	23.40032268860426	-18.25656281084981	-0.2613168724279836	-0.9163179916317991	0.5511982570806101
3456.085205078125	-2.449100815709166	-9.556546217381131	3.083540266832438	21.62012077355861	22.66352899634109	-19.39600621947055	-0.2613168724279836	-0.9163179916317991	0.5511982570806101
3459.991455078125	-2.530473793824062	-9.613035948062793	3.332427303042459	24.1101828985306	24.23076817352308	-20.13505080883081	-0.2633744855967078	-0.899581589958159	0.5533769063180829
3463.897705078125	-2.489452355462025	-9.551296152263046	3.527843699135258	25.88557069288514	25.03029846407014	-20.50441399649138	-0.2633744855967078	-0.899581589958159	0.5533769063180829
3467.803955078125	-2.479038109662928	-9.519972582454391	3.650726141295803	28.3680909340427	26.22417705637949	-21.24719219170036	-0.2633744855967078	-0.899581589958159	0.5533769063180829
3471.710205078125	-2.571342661009651	-9.659518626217606	3.652926803695185	30.45177885537958	25.54041903730318	-22.38610524358923	-0.2633744855967078	-0.899581589958159	0.5533769063180829
3475.616455078125	-2.276271016161723	-9.445283434354147	3.444367057514615	32.91923505361843	25.24130839489214	-22.38909635001334	-0.2633744855967078	-0.899581589958159	0.5533769063180829
3479.522705078125	-1.94219571202043	-9.371086353558079	3.451417664595832	34.64935182037627	24.54694324117845	-23.52811547324859	-0.2633744855967078	-0.899581589958159	0.5533769063180829
3483.428955078125	-2.094869949794282	-9.486994979428204	3.676418723247819	36.40964598474689	24.97288639446778	-24.27857302284778	-0.2633744855967078	-0.899581589958159	0.5533769063180829
3487.335205078125	-2.27644682665644	-9.462864483825795	3.706112509562348	37.47033972377386	25.75097586335501	-25.02550910929098	-0.2633744855967078	-0.8891213389121339	0.5708061002178649
3491.241455078125	-2.255652688833077	-9.403652721691454	3.608270938037198	39.62192432415073	27.68119504315736	-25.383565408059	-0.2633744855967078	-0.8891213389121339	0.5708061002178649
3495.147705078125	-2.104370789344967	-9.426977924395649	3.598516486795859	41.03619908011182	28.0967576141944	-25.75676827291466	-0.2633744855967078	-0.8891213389121339	0.5708061002178649
3499.053955078125	-2.434785395656618	-9.135105222227448	3.842129208164386	41.35202136619843	27.73309795441879	-27.26983883177657	-0.2633744855967078	-0.8891213389121339	0.5708061002178649
3502.960205078125	-2.468318721510933	-9.458134777355864	3.795339366846391	43.49607394511594	28.91682251686095	-27.25800158615215	-0.2695473251028807	-0.9184100418410041	0.5773420479302833
3506.866455078125	-2.620591828443392	-9.533930319086654	3.992047060710729	44.91788072253639	30.07887970525818	-28.00109799540025	-0.2695473251028807	-0.9184100418410041	0.5773420479302833
3510.772705078125	-2.326199175850921	-9.387594352768872	4.062913846158604	47.01665241150212	30.14184285592716	-29.13254383559168	-0.2695473251028807	-0.9184100418410041	0.5773420479302833
3514.678955078125	-2.618780172023699	-9.352764677117309	3.930416388666322	48.78448845968717	30.94114659408912	-29.87926777934213	-0.271604938271605	-0.8807531380753137	0.5882352941176471
3518.585205078125	-2.638877130299049	-9.342258484450285	3.93074072871692	49.1456113604357	30.95198028111158	-29.50180095190587	-0.271604938271605	-0.8807531380753137	0.5882352941176471
3522.491455078125	-2.808139189289916	-9.096747211819849	3.900919631354493	49.79237914965808	29.47884600135541	-31.02596625696758	-0.271604938271605	-0.8807531380753137	0.5882352941176471
3526.397705078125	-2.839548643535644	-9.207389606089617	3.884972406997537	50.46180217738895	28.0063913787545	-31.41804929375963	-0.271604938271605	-0.8807531380753137	0.5882352941176471
3530.303955078125	-2.970650731526756	-9.186285273887645	3.712999431010553	51.16896421125716	27.28133758305414	-30.67058285058456	-0.2551440329218107	-0.901673640167364	0.6034858387799565
3534.210205078125	-3.113640236014071	-9.343821581205034	3.835005851912942	52.19193866885693	26.56575816006571	-31.80981411651255	-0.2551440329218107	-0.901673640167364	0.6034858387799565
3538.116455078125	-3.011469078455241	-9.227715926332211	3.528701533100858	52.87644546421666	25.84002470721008	-32.19442994160715	-0.2551440329218107	-0.901673640167364	0.6034858387799565
3542.022705078125	-2.971589397903719	-9.280151911583976	3.415367419532674	53.56095225957638	25.11429125435446	-32.57904576670174	-0.257201646090535	-0.8640167364016735	0.6230936819172114
3545.928955078125	-2.952768581322776	-9.418272273691757	3.782386983330468	55.27599512106043	23.30007089840793	-33.35190495139328	-0.257201646090535	-0.8640167364016735	0.6230936819172114
3549.835205078125	-3.072868367722119	-9.307038792413891	3.554424427207135	55.25335960726208	22.55312317627756	-33.73673291918062	-0.257201646090535	-0.8640167364016735	0.6230936819172114
3553.741455078125	-2.748546504417022	-9.198084785136491	3.987357770446481	56.25371827577364	20.34432796618366	-34.51353785241364	-0.257201646090535	-0.8640167364016735	0.6230936819172114
3557.647705078125	-2.660228001355681	-9.457143569911516	3.510641551591878	58.37516492795802	19.66170270903277	-33.76564712385307	-0.2489711934156379	-0.8577405857740585	0.6100217864923748
3561.553955078125	-2.670527060968584	-9.476948521100812	3.529750333638304	59.41325274025185	18.57344235832696	-33.77652972736013	-0.2489711934156379	-0.8577405857740585	0.6100217864923748
3565.460205078125	-2.567108053059324	-9.236057831184967	3.58323309861723	60.41358182169819	17.48404924569572	-35.67421611131663	-0.2489711934156379	-0.8577405857740585	0.6100217864923748
3569.366455078125	-2.265537482337739	-9.38203106205675	3.730465294296008	62.56519600914027	18.2948663280354	-34.91139095936116	-0.2695473251028807	-0.8598326359832635	0.6122004357298475
3573.272705078125	-2.004490220243162	-9.539931115225283	3.614069653147416	63.98702251127087	18.71065545145753	-34.90723306812693	-0.2695473251028807	-0.8598326359832635	0.6122004357298475
3577.178955078125	-2.225751769464427	-9.443863815129568	3.68736747336706	64.67904160337979	19.47768468093722	-36.40899673809629	-0.2695473251028807	-0.8598326359832635	0.6122004357298475
3581.085205078125	-2.297652199372618	-9.563199735241522	3.731186723567431	65.01750926561984	19.48783871080442	-37.1636121789297	-0.2695473251028807	-0.8598326359832635	0.6122004357298475
3584.991455078125	-2.219785327100629	-9.857320588850781	3.767764400114738	66.49216840387169	21.02461579838481	-35.63881044578974	-0.2427983539094651	-0.8514644351464434	0.6492374727668846
3588.897705078125	-2.169177164750833	-9.847009404376175	3.889998162174088	68.95205313123088	21.47154666856379	-36.76641660878607	-0.2427983539094651	-0.8514644351464434	0.6492374727668846
3592.803955078125	-1.956972887222893	-9.838702863703391	4.134959774407249	71.44213498091302	22.29251778077067	-36.758206897664	-0.2427983539094651	-0.8514644351464434	0.6492374727668846
3596.710205078125	-1.752383022845432	-9.581736627977548	3.978136813120144	74.32350726660138	24.61776491949058	-36.35759593571075	-0.2448559670781893	-0.8284518828451882	0.6492374727668846
3600.616455078125	-2.106122831861279	-9.602182176026904	4.2564054204558	74.69213260174408	26.4944953213359	-37.47090410339042	-0.2448559670781893	-0.8284518828451882	0.6492374727668846
3604.522705078125	-1.591678085002576	-9.672859005308077	4.278218046662349	76.48261402608254	27.66761274914069	-37.45917292911237	-0.2448559670781893	-0.8284518828451882	0.6492374727668846
3608.428955078125	-1.943726475810633	-9.524162732578468	4.302334396592769	78.31082459420331	29.96126503633356	-36.68151942510836	-0.2448559670781893	-0.8284518828451882	0.6492374727668846
3612.335205078125	-1.994953006107364	-9.59631071174646	4.055790489907159	78.70963718931384	32.58516971269434	-37.03263886891079	-0.2407407407407408	-0.8305439330543932	0.6753812636165578
3616.241455078125	-1.972814019039933	-9.402614025205429	4.277817926226097	80.16917311051655	34.86776176047968	-37.00981294843294	-0.2407407407407408	-0.8305439330543932	0.6753812636165578
3620.147705078125	-1.998082230832289	-9.909233184238962	4.070416104338316	82.31322568943406	36.05148632292183	-36.99797570280852	-0.2407407407407408	-0.8305439330543932	0.6753812636165578
3624.053955078125	-1.956269645244027	-9.768378665816796	4.098078976317327	83.75768770536301	37.21422316847433	-36.60898984378696	-0.2551440329218107	-0.8326359832635982	0.6884531590413944
3627.960205078125	-2.119770374114932	-9.956835391291165	4.11732416305793	86.62397622342253	38.79274913744894	-36.21584609353118	-0.2551440329218107	-0.8326359832635982	0.6884531590413944
3631.866455078125	-2.105636826987954	-9.55358168869436	4.066921112951969	88.06088649318195	39.95525943061636	-36.2042209905995	-0.2551440329218107	-0.8326359832635982	0.6884531590413944
3635.772705078125	-1.611474952950737	-9.632343779922204	4.249742808949131	89.15176749217679	41.48052317401903	-36.18896835316547	-0.2551440329218107	-0.8326359832635982	0.6884531590413944
3639.678955078125	-1.765574872380021	-9.890820571335409	4.356490091396299	91.00260371174085	44.89425721582984	-35.40011403161529	-0.2222222222222222	-0.805439330543933	0.6775599128540306
3643.585205078125	-1.835278681509397	-9.790494413565959	4.148688149072266	92.79308513607931	46.06737464363462	-35.38838285733724	-0.2222222222222222	-0.805439330543933	0.6775599128540306
3647.491455078125	-1.925730149825603	-9.744732154277429	4.503607100888884	94.26773441197611	47.97728576370257	-34.23720827443845	-0.2222222222222222	-0.805439330543933	0.6775599128540306
3651.397705078125	-1.794157213038297	-9.71875160685993	4.33450468591046	96.81060944835923	51.41178097001794	-34.20286332237529	-0.2448559670781893	-0.7782426778242677	0.7124183006535948
3655.303955078125	-1.653401714320051	-9.78461587644952	4.09019478499392	99.3459426009279	54.47291559146068	-34.17225197616087	-0.2448559670781893	-0.7782426778242677	0.7124183006535948
3659.210205078125	-1.883854919118534	-9.597613123974561	4.147745441074734	102.2046695104629	56.42434904053776	-34.53009613223613	-0.2448559670781893	-0.7782426778242677	0.7124183006535948
3663.116455078125	-1.853137592395109	-9.556183481935136	4.311740258060101	104.3864512331626	58.72860846236802	-33.75233655688576	-0.2448559670781893	-0.7782426778242677	0.7124183006535948
3667.022705078125	-1.812220225762702	-9.504850859098489	4.476332224484419	107.267823518851	61.05385560108792	-33.35172559493252	-0.2386831275720165	-0.7656903765690376	0.7298474945533769
3670.928955078125	-1.668927599732772	-9.317002397519635	4.35584444251053	109.4269697277525	62.6111673007878	-32.95879398736948	-0.2386831275720165	-0.7656903765690376	0.7298474945533769
3674.835205078125	-1.595301397841963	-9.025089279145753	4.401479390751162	110.4801117206099	63.38903021728994	-34.08309082990257	-0.2386831275720165	-0.7656903765690376	0.7298474945533769
3678.741455078125	-1.84967594437845	-9.210018680269227	4.591709377249826	112.3083222887307	65.68268250448281	-33.30543732589857	-0.2427983539094651	-0.7322175732217573	0.758169934640523
3682.647705078125	-1.937747908585131	-8.926306010028211	4.504004190109709	114.4976360328899	68.73343654367326	-32.89757129494063	-0.2427983539094651	-0.7322175732217573	0.758169934640523
3686.553955078125	-2.242124374386186	-9.06092228710337	4.575037692406021	115.9345463026493	69.89594683684068	-32.88594619200895	-0.2427983539094651	-0.7322175732217573	0.758169934640523
3690.460205078125	-2.209497381944288	-8.828526073216727	4.647589833630833	118.0861506277363	71.07989795166792	-32.49674819029465	-0.2427983539094651	-0.7322175732217573	0.758169934640523
3694.366455078125	-2.328962633914425	-8.653839149018198	4.705634577826109	119.1543961129328	71.85821397294022	-32.86632352064796	-0.2633744855967078	-0.7196652719665272	0.7712418300653595
3698.272705078125	-2.409048355878352	-8.581603264602851	4.698344504726227	122.0508817533152	73.81078018394274	-31.33736389627378	-0.2633744855967078	-0.7196652719665272	0.7712418300653595
3702.178955078125	-2.47849653250679	-8.455713856739568	5.027176816585429	122.7731275548123	73.83244755798766	-30.58243024140126	-0.2633744855967078	-0.7196652719665272	0.7712418300653595
3706.085205078125	-2.649574289537919	-8.391772388135294	5.018562102344322	123.4727181178009	73.85343527487731	-30.9595788547984	-0.2510288065843622	-0.707112970711297	0.766884531590414
3709.991455078125	-2.746703525437925	-8.003685877125784	5.249116347657009	124.2251314545557	75.36854498841278	-30.18971077653097	-0.2510288065843622	-0.707112970711297	0.766884531590414
3713.897705078125	-2.707946404999218	-8.168377873659166	5.019047096812505	124.9926384212944	77.257241839206	-29.03874833632493	-0.2510288065843622	-0.707112970711297	0.766884531590414
3717.803955078125	-3.070188773285406	-8.028978338641549	5.103202730688604	125.3613130682124	77.26830207861354	-28.28392075279877	-0.2510288065843622	-0.707112970711297	0.766884531590414
3721.710205078125	-3.292072732074173	-7.995151995296039	5.011766117358902	126.4446916328131	76.92766910719335	-26.77789312024882	-0.2777777777777778	-0.6673640167364017	0.8126361655773421
3725.616455078125	-3.372548470422931	-7.961917749363773	5.143936203585159	126.0307854077187	73.93017729357483	-26.80786803838501	-0.2777777777777778	-0.6673640167364017	0.8126361655773421
3729.522705078125	-3.498790509680788	-7.454808543836343	5.097322172761881	127.0840062994167	71.72296795017654	-24.9431476789888	-0.2777777777777778	-0.6673640167364017	0.8126361655773421
3733.428955078125	-3.369814314108547	-7.688502117925376	5.218240387326283	127.7685624065518	69.13156433488312	-23.45962775287759	-0.2880658436213992	-0.6506276150627615	0.8191721132897605
3737.335205078125	-3.630555423445084	-7.49998678895277	5.366472884095689	126.677691269912	67.23316655899288	-23.10125324007045	-0.2880658436213992	-0.6506276150627615	0.8191721132897605
3741.241455078125	-3.561569001966562	-7.67205171180768	5.46967061327884	125.9554849178352	65.71896305499774	-22.36167829397833	-0.2880658436213992	-0.6506276150627615	0.8191721132897605
3745.147705078125	-3.64470816826976	-7.905160261319467	5.224860561816986	125.6019532126765	64.21581979041015	-20.86727576436005	-0.2880658436213992	-0.6506276150627615	0.8191721132897605
3749.053955078125	-3.48026271059104	-7.622230655063539	5.563883819938893	124.8646729553259	61.58176108418217	-19.76154087972422	-0.2839506172839507	-0.6506276150627615	0.8344226579520698
3752.960205078125	-3.552354107071078	-7.760663232360214	5.717857438725421	125.2258353054947	60.10005864125439	-17.88956545132331	-0.2839506172839507	-0.6506276150627615	0.8344226579520698
3756.866455078125	-3.648736653571109	-7.2979077813533	5.335990981770363	123.7436835952038	56.32425080636357	-17.54996503910618	-0.2839506172839507	-0.6506276150627615	0.8344226579520698
3760.772705078125	-3.519933237278158	-7.548879283371367	5.748972865074813	124.8346237683291	55.61071035484093	-15.29294950022518	-0.3065843621399177	-0.5920502092050208	0.8496732026143792
3764.678955078125	-3.632127613846112	-7.657205829055557	5.803040654630984	123.7739398916572	54.45948685346614	-14.17238626354081	-0.3065843621399177	-0.5920502092050208	0.8496732026143792
3768.585205078125	-3.388229958227527	-7.509864509621439	5.873452757764936	122.6906205011869	52.56131562996099	-13.43665099464379	-0.3065843621399177	-0.5920502092050208	0.8496732026143792
3772.491455078125	-3.458858288061879	-7.501990422349453	5.509503815193828	121.983507779094	51.42069926322357	-12.31598168661305	-0.3065843621399177	-0.5920502092050208	0.8496732026143792
3776.397705078125	-3.16504358721066	-7.413449630156861	5.860303345246314	122.7284088190996	51.44304629442374	-10.42896576347086	-0.3312757201646091	-0.5669456066945606	0.8758169934640524
3780.303955078125	-3.096286527699383	-7.608450749736279	5.689624698246294	122.0137542131923	49.92906934281368	-9.312030061288844	-0.3312757201646091	-0.5669456066945606	0.8758169934640524
3784.210205078125	-3.267030851033636	-7.511165911444397	5.985710789856839	121.9986803079186	48.80921414058084	-8.945870122745136	-0.3312757201646091	-0.5669456066945606	0.8758169934640524
3788.116455078125	-3.226055891308132	-7.454073979298073	5.716247863334138	122.3824683095307	48.447593452271	-7.062693876798045	-0.323045267489712	-0.5418410041841004	0.8867102396514162
3792.022705078125	-2.904063011855458	-7.578018357262912	6.087007946967796	122.367414128967	46.58147018506305	-5.949279637772012	-0.323045267489712	-0.5418410041841004	0.8867102396514162
3795.928955078125	-3.255537492542832	-7.371931072464935	5.790767263370518	123.0745860251903	45.48328235687512	-4.828186044355777	-0.323045267489712	-0.5418410041841004	0.8867102396514162
3799.835205078125	-2.811150196613222	-7.377645923948363	6.108056706886956	122.7134729867969	45.0993146373651	-4.832025721550878	-0.323045267489712	-0.5418410041841004	0.8867102396514162
3803.741455078125	-2.960517378357148	-7.162848946825925	6.076898843521598	123.1123151689726	46.60381721626322	-4.062263714629821	-0.3333333333333334	-0.5125523012552301	0.8801742919389979
3807.647705078125	-2.851122834437813	-7.334505666003448	6.301733185325148	123.8873837442359	48.11960658695395	-2.160313368092725	-0.3333333333333334	-0.5125523012552301	0.8801742919389979
3811.553955078125	-3.220973553443627	-6.945840192847543	6.044740679065612	123.9402065180021	49.61372858359977	-1.013296676428153	-0.3333333333333334	-0.5125523012552301	0.8801742919389979
3815.460205078125	-3.242775065193614	-7.105789347644148	6.167838337521413	122.525931762041	49.19816601256273	-0.640093811572486	-0.3333333333333334	-0.5125523012552301	0.8801742919389979
3819.366455078125	-3.161288921702807	-7.037983079371539	6.040730381056821	123.2633007805872	48.47401842640269	1.61681565596214	-0.3333333333333334	-0.5125523012552301	0.8801742919389979
3823.272705078125	-3.169529786041356	-6.851968503125503	6.44388809516513	123.6319852898603	48.11194463332268	2.745270389729453	-0.3333333333333334	-0.5125523012552301	0.8801742919389979
3827.178955078125	-3.257806862491873	-6.588767057268078	6.324852265380366	123.2935176276203	48.10179060345548	3.499885830562857	-0.3333333333333334	-0.5125523012552301	0.8801742919389979
3831.085205078125	-3.149651075276689	-6.884299446860779	6.280854173469852	123.6697341583528	48.48621142773566	4.258447019937734	-0.3580246913580247	-0.4435146443514644	0.9193899782135078
3834.991455078125	-3.206708653648183	-6.529451223404105	6.298026008858971	124.023325037642	47.75055049739792	5.005807391766433	-0.3580246913580247	-0.4435146443514644	0.9193899782135078
3838.897705078125	-3.299620458485277	-6.729722616204449	6.287083321170583	123.6697834701281	46.62054126529788	6.126582771143545	-0.3580246913580247	-0.4435146443514644	0.9193899782135078
3842.803955078125	-3.087278765858018	-6.707674565599803	6.896369746687694	122.9626608856802	45.85305893104802	6.873624928933122	-0.3580246913580247	-0.4435146443514644	0.9193899782135078
3846.710205078125	-2.802950758885496	-6.557702151175788	6.300651041418013	124.0761971231835	47.37900233160595	8.020959834636814	-0.3580246913580247	-0.4435146443514644	0.9193899782135078
3850.616455078125	-2.70127975187198	-6.491611550834379	7.052447028979967	124.0762069855386	47.0058682991184	8.394586984877977	-0.3580246913580247	-0.4435146443514644	0.9193899782135078
3854.522705078125	-3.32533122772985	-6.27049651035871	6.703726912709818	122.6770258595614	46.96389286533909	9.148884211672259	-0.3580246913580247	-0.4435146443514644	0.9193899782135078
3858.428955078125	-3.457131505674118	-6.319211173472308	6.619165095966614	122.7072229818844	47.33793310736698	10.28470008579065	-0.3827160493827161	-0.399581589958159	0.9346405228758171
3862.335205078125	-3.296549837258591	-6.422660493535829	6.696406527455674	121.2627806906656	45.42892819683937	10.64296852725141	-0.3827160493827161	-0.399581589958159	0.9346405228758171
3866.241455078125	-3.578341727324572	-6.319021217305602	6.395740269336223	120.1266483887842	41.66350094420084	10.60531425472503	-0.3827160493827161	-0.399581589958159	0.9346405228758171
3870.147705078125	-3.594780008580563	-5.942647322702721	6.626515793375019	121.5409527318105	40.95966141777522	11.35299284059285	-0.3827160493827161	-0.399581589958159	0.9346405228758171
3874.053955078125	-3.655472014248006	-5.951241828840988	6.655782178314461	120.4500914575258	38.68812960939741	12.08499450364114	-0.3827160493827161	-0.399581589958159	0.9346405228758171
3877.960205078125	-3.553276606965768	-5.832711201627247	6.5920235930409	120.803682336815	37.95246867905967	12.83235487546984	-0.3827160493827161	-0.399581589958159	0.9346405228758171
3881.866455078125	-3.615389242262932	-5.98336867073757	6.553566562929382	119.6826140778523	35.68003066114154	12.05491351415859	-0.3827160493827161	-0.399581589958159	0.9346405228758171
3885.772705078125	-3.704544360781889	-5.807971431724183	6.743263055513044	120.412421487874	35.32879055508398	13.56083507536216	-0.4012345679012346	-0.3305439330543933	0.9564270152505447
3889.678955078125	-3.715466840367436	-5.890118380177889	6.587531331779352	118.5842207821083	32.66200423540354	13.15680872159932	-0.4012345679012346	-0.3305439330543933	0.9564270152505447
3893.585205078125	-3.700765445550626	-5.430079908597944	7.166235824862072	117.8544725462171	30.77444014653577	13.89265006184272	-0.4012345679012346	-0.3305439330543933	0.9564270152505447
3897.491455078125	-3.750553158925079	-5.358346195538192	7.169324633381316	116.7937788071901	29.99635067764854	14.63958614828592	-0.4012345679012346	-0.3305439330543933	0.9564270152505447
3901.397705078125	-3.930912497591069	-5.212461880318907	7.2556233365637	116.4779466587484	30.73314436991171	15.77902955690667	-0.4012345679012346	-0.3305439330543933	0.9564270152505447
3905.303955078125	-4.293054835768193	-5.063059334395008	7.330179111185195	115.3870656597536	29.20788062650903	15.76377691947264	-0.4012345679012346	-0.3305439330543933	0.9564270152505447
3909.210205078125	-4.090177608106506	-4.977356770246431	7.21528089045712	113.9803623746721	28.04627654288196	17.26159484090052	-0.4012345679012346	-0.3305439330543933	0.9564270152505447
3913.116455078125	-3.897908624031187	-4.942377554633845	7.057336379462341	113.6268109448032	27.28940134326947	18.00874307003647	-0.4053497942386832	-0.2761506276150628	0.9607843137254903
3917.022705078125	-4.068504417809559	-4.830239760753846	6.818813068794314	112.1899203997539	25.38062298512694	18.74437226758712	-0.4053497942386832	-0.2761506276150628	0.9607843137254903
3920.928955078125	-4.289579042079545	-4.715479965530231	6.741532231504714	110.4145523301095	23.83482462960478	19.86098975573001	-0.4053497942386832	-0.2761506276150628	0.9607843137254903
3924.835205078125	-4.227780642781559	-4.596246096337626	6.667303828149244	108.5863516243438	21.16803830992435	19.45696340196717	-0.4053497942386832	-0.2761506276150628	0.9607843137254903
3928.741455078125	-4.006507979103731	-4.691201950777083	6.705172802468089	106.3970576048948	17.37101620575879	19.79635167149155	-0.4053497942386832	-0.2761506276150628	0.9607843137254903
3932.647705078125	-4.056788770187504	-4.668776008649312	6.827003412875762	105.637151696101	13.61687574491288	20.89088573858121	-0.4053497942386832	-0.2761506276150628	0.9607843137254903
3936.553955078125	-4.087276734943684	-4.68726945396423	6.936884972073565	103.4629513066359	10.19344077800505	21.6113683700442	-0.4053497942386832	-0.2761506276150628	0.9607843137254903
3940.460205078125	-3.863882220467553	-4.570040228573448	6.985384418891906	103.4931385666038	10.9406150525205	22.37355709392143	-0.4197530864197531	-0.2112970711297071	0.9847494553376908
3944.366455078125	-3.553525166630712	-4.847466158020636	7.136232854574076	103.0942865220729	9.809246506109949	21.23016793675922	-0.4197530864197531	-0.2112970711297071	0.9847494553376908
3948.272705078125	-3.500384928994941	-4.583947444948607	7.331758374422217	103.1395674120247	10.93000791788313	22.37345102257506	-0.4197530864197531	-0.2112970711297071	0.9847494553376908
3952.178955078125	-3.176825921572091	-4.551279025895886	7.205314254135951	103.530867710386	12.0611499119086	23.13947942364739	-0.4197530864197531	-0.2112970711297071	0.9847494553376908
3956.085205078125	-3.336494183739205	-4.356489080991158	7.173053028355476	102.8689767041145	14.28009915186971	23.161668916047	-0.4218106995884774	-0.1694560669456067	0.982570806100218
3959.991455078125	-3.522019723896489	-4.727224914901406	7.10215593075334	103.9447640731254	15.43177575801466	22.79582719154241	-0.4218106995884774	-0.1694560669456067	0.982570806100218
3963.897705078125	-3.389817304705687	-4.638296127134268	7.168530454939665	102.9142477317112	15.77399459613044	23.93132485162169	-0.4218106995884774	-0.1694560669456067	0.982570806100218
3967.803955078125	-3.551299244102779	-4.624873905227293	7.177687756742054	103.2678090239352	16.15773576325537	23.5578037727269	-0.4135802469135803	-0.1715481171548117	0.9847494553376908
3971.710205078125	-3.288510043543309	-4.608580111906615	7.312443469726813	104.6971872722353	16.57375143906258	23.93932242005101	-0.4135802469135803	-0.1715481171548117	0.9847494553376908
3975.616455078125	-3.569583535553293	-4.43310103007672	7.126487496979016	105.833359023537	18.84664256175089	25.47148529354204	-0.4135802469135803	-0.1715481171548117	0.9847494553376908
3979.522705078125	-3.537690097244524	-4.274060229502819	6.932738269370597	106.9317819063462	20.7452668900262	25.49047153682479	-0.4135802469135803	-0.1715481171548117	0.9847494553376908
3983.428955078125	-3.493434352022788	-3.88888974773326	7.154459552931494	106.578191027057	21.48092782036395	24.74311116499609	-0.4382716049382717	-0.1234309623430962	0.9869281045751634
3987.335205078125	-3.677236141007737	-4.087250464409991	7.152804509308818	106.6461074308072	23.3486369542675	26.27122221859928	-0.4382716049382717	-0.1234309623430962	0.9869281045751634
3991.241455078125	-3.754374511172308	-3.720279400059014	7.331997840440883	107.0223140991846	24.10619181103524	26.656156257733	-0.4382716049382717	-0.1234309623430962	0.9869281045751634
3995.147705078125	-3.402959644388315	-3.932328075195079	7.031980262422627	107.0449298882728	25.59940759814072	26.29372992503801	-0.4465020576131687	-0.0899581589958159	1
3999.053955078125	-3.66238823744533	-3.612561118270337	7.176687455651425	106.7366297612904	27.08269590776409	27.06327978926632	-0.4465020576131687	-0.0899581589958159	1
4002.960205078125	-3.79518073323909	-3.760497566333123	7.26897280930045	106.0219357059629	27.06125508610426	26.68570689048369	-0.4465020576131687	-0.0899581589958159	1
4006.866455078125	-3.792324317902517	-3.474856032675937	7.556010722863947	106.0294775897773	27.4346156709769	26.68944049633241	-0.4465020576131687	-0.0899581589958159	1
4010.772705078125	-3.65429489225752	-3.813327609590285	7.318245216052457	104.9914095021936	27.7766079567076	27.44757740032179	-0.4382716049382717	-0.06903765690376569	1.004357298474946
4014.678955078125	-3.651243468728532	-3.508185256691558	7.535553049952886	104.6981832804851	30.37975146856381	27.85096732600639	-0.4382716049382717	-0.06903765690376569	1.004357298474946
4018.585205078125	-3.791715043601863	-3.413928602610397	7.589366217413261	104.0287503903991	32.22534012365227	27.86942321255728	-0.4382716049382717	-0.06903765690376569	1.004357298474946
4022.491455078125	-3.600235185942484	-3.457862028591819	7.619387374993813	103.7129083796023	33.335267848403	28.63523947093686	-0.4444444444444445	-0.02719665271966527	0.9782135076252724
4026.397705078125	-3.851114741092625	-3.293292291080626	7.41298585419666	104.8113411247667	34.86075814419077	29.02785286446078	-0.4444444444444445	-0.02719665271966527	0.9782135076252724
4030.303955078125	-4.061272948207916	-3.096991790488534	7.430800307256122	104.4577699701876	34.85015100955339	29.0277467931144	-0.4444444444444445	-0.02719665271966527	0.9782135076252724
4034.210205078125	-4.383209244972636	-2.967389143728222	7.625980268545682	103.3517953412089	32.95130012889299	28.63139979374176	-0.4444444444444445	-0.02719665271966527	0.9782135076252724
4038.116455078125	-4.090741414175769	-3.013535356970732	7.636698646292535	102.9907020275256	31.82106434440786	29.37481441702899	-0.4506172839506173	-0.008368200836820083	0.991285403050109
4042.022705078125	-4.478851164503546	-2.430570995809133	7.581157686039257	101.553772033056	31.40482211621556	28.61593501361499	-0.4506172839506173	-0.008368200836820083	0.991285403050109
4045.928955078125	-4.148506276146697	-2.729415493457471	7.650326990848489	100.8994524976641	32.87772984358664	29.76273956258681	-0.4506172839506173	-0.008368200836820083	0.991285403050109
4049.835205078125	-4.087105976474676	-2.649991586861586	7.634710168972983	100.1923200508611	32.48338154182434	30.13615457013523	-0.4835390946502058	0.01882845188284519	0.9891067538126362
4053.741455078125	-4.02640184594553	-2.64018459455286	7.726716650802802	99.83120701246764	32.09941382231433	30.13231489294013	-0.4835390946502058	0.01882845188284519	0.9891067538126362
4057.647705078125	-4.349784032468521	-2.655170923619727	7.601521391272107	99.4851876040581	32.08903324006204	30.50956957768364	-0.4835390946502058	0.01882845188284519	0.9891067538126362
4061.553955078125	-4.025020622116348	-2.502062211634794	7.400303248853664	99.12407456566463	31.70506552055203	30.50572990048854	-0.4835390946502058	0.01882845188284519	0.9891067538126362
4065.460205078125	-4.209613558327521	-2.779537650933942	7.566401729344777	97.74752895348583	32.41003780890308	31.64485509507017	-0.4794238683127572	0.04602510460251046	0.9934640522875818
4069.366455078125	-4.328043145027058	-2.501284199675416	7.882160409071011	96.31814084283067	32.36715616558342	30.88970929750489	-0.4794238683127572	0.04602510460251046	0.9934640522875818
4073.272705078125	-4.277050018318141	-2.452476579288751	7.814403650650362	96.32570245135524	31.99424868548095	31.64069720383594	-0.4794238683127572	0.04602510460251046	0.9934640522875818
4077.178955078125	-3.863207269832665	-2.48234314488257	7.675634608441385	95.61857986690731	31.2267663512311	32.38773936162552	-0.4897119341563786	0.07322175732217573	1.004357298474946
4081.085205078125	-4.195954901617307	-2.423772990013429	7.816649781281137	94.86616653015251	29.71165663769562	31.61787128335809	-0.4897119341563786	0.07322175732217573	1.004357298474946
4084.991455078125	-4.223232809237198	-2.121260721699454	7.710290494408516	94.1590439457046	28.94417430344576	32.36491344114767	-0.4897119341563786	0.07322175732217573	1.004357298474946
4088.897705078125	-4.305947605380736	-2.311932255245193	7.669626739466763	93.45945338271601	28.92318658655611	32.74206205454481	-0.4897119341563786	0.07322175732217573	1.004357298474946
4092.803955078125	-4.255844645601963	-2.352141327873023	7.78932943664528	92.07534616201265	30.00106635500963	33.13019934279538	-0.4814814814814815	0.1108786610878661	0.9651416122004358
4096.710205078125	-4.576996867976454	-2.144131242089728	7.74601336820565	91.3531200852257	29.23313091598961	33.12251998840518	-0.4814814814814815	0.1108786610878661	0.9651416122004358
4100.616455078125	-4.464501390676169	-2.005694623172485	7.673252073116434	90.63090387079384	28.09206144448202	33.48846778425614	-0.4814814814814815	0.1108786610878661	0.9651416122004358
4104.522705078125	-4.735540549220468	-1.836883204874971	7.850699424163038	88.86306782260881	27.29275770632006	34.2351917280066	-0.4855967078189301	0.1317991631799163	1.002178649237473
4108.428955078125	-4.450572955793027	-1.622952144959269	7.591518380365825	87.76463507744447	25.76726741053229	33.84257833448268	-0.4855967078189301	0.1317991631799163	1.002178649237473
4112.335205078125	-4.542860330252336	-1.760780499981	7.765522270688327	85.99677930454926	25.71423173734543	33.84204797775082	-0.4855967078189301	0.1317991631799163	1.002178649237473
4116.241455078125	-4.652544860447439	-1.618122408380276	7.670548228956311	84.91342046465873	25.30859664379051	33.08327464568319	-0.4855967078189301	0.1317991631799163	1.002178649237473
4120.147705078125	-4.702231533307688	-1.536284643900037	7.674143250451721	83.84516511710719	24.90341465500575	33.07922282579534	-0.5061728395061729	0.1589958158995816	0.962962962962963
4124.053955078125	-4.732727581305004	-1.555586413328594	7.70317623180335	82.07731920656707	24.47724494933134	33.45231961930464	-0.5061728395061729	0.1589958158995816	0.962962962962963
4127.960205078125	-4.701021067947512	-1.415238107882594	7.660005661704174	80.97889632375782	22.57862062105601	33.43333337602188	-0.5061728395061729	0.1589958158995816	0.962962962962963
4131.866455078125	-4.740994716177247	-1.372198890451885	7.843576067911594	79.54953780016787	21.41633688027369	33.7990690291801	-0.4897119341563786	0.1736401673640167	0.9564270152505447
4135.772705078125	-4.598003190879647	-1.214460502106083	7.741781791470749	78.81222795575209	19.90168027150838	33.78392246309244	-0.4897119341563786	0.1736401673640167	0.9564270152505447
4139.678955078125	-4.701740476408652	-1.487178953996466	7.535189304101748	78.42847940356027	18.770764829868	33.39525481811	-0.4897119341563786	0.1736401673640167	0.9564270152505447
4143.585205078125	-4.174872798328458	-1.325663671229687	7.568735765222909	76.60026883543951	16.47711254267513	32.617601314106	-0.4897119341563786	0.1736401673640167	0.9564270152505447
4147.491455078125	-4.174755591331982	-1.313942971581921	7.730939133891424	76.33724959840897	19.08116226407167	34.53043426415015	-0.5185185185185186	0.198744769874477	0.9542483660130719
4151.397705078125	-4.214660532012056	-1.26403299918528	7.591621441690314	75.63008756454073	19.80621605977204	33.78296782097508	-0.5185185185185186	0.198744769874477	0.9542483660130719
4155.303955078125	-4.224534211060156	-1.241299893894325	7.824982592487613	74.53164495702134	18.65385979647183	33.01672727721	-0.5185185185185186	0.198744769874477	0.9542483660130719
4159.210205078125	-4.043892969359535	-1.358993905650449	7.52797501138752	74.92295511773774	19.41186775800974	34.1563828285235	-0.5020576131687243	0.2343096234309623	0.9607843137254903
4163.116455078125	-4.112247887624275	-1.123778661417491	7.680466365830662	73.82450264786327	18.63264552719709	33.01651513451726	-0.5020576131687243	0.2343096234309623	0.9607843137254903
4167.022705078125	-4.213744094548217	-1.172389252801457	7.666919864091214	74.59198988989182	21.26761044296541	33.42022327424097	-0.5020576131687243	0.2343096234309623	0.9607843137254903
4170.928955078125	-4.329751740122262	-0.6519416889938419	7.964509438553127	74.23085712678822	21.62991078843051	32.66912929656355	-0.5020576131687243	0.2343096234309623	0.9607843137254903
4174.835205078125	-4.24040161341089	-0.8078381087656883	7.705082866306395	74.29124150907901	22.75112530497386	34.56713389455918	-0.4958847736625515	0.2405857740585774	0.9673202614379086
4178.741455078125	-4.168502193907842	-0.6886032291679394	7.651157543875253	73.89991162365247	22.73938540841106	32.68022404276336	-0.4958847736625515	0.2405857740585774	0.9673202614379086
4182.647705078125	-4.211236268985652	-0.9216066965449531	7.497665888341483	73.59915338048455	24.59603430290707	33.4535075128404	-0.4958847736625515	0.2405857740585774	0.9673202614379086
4186.553955078125	-4.20837480162337	-0.6354599603167423	7.835234163058839	72.9146268604147	26.06803582073782	33.09086903745266	-0.5	0.2594142259414225	0.9542483660130719
4190.460205078125	-4.358765523776193	-0.5230170240838453	7.667635230931785	72.22255845653041	27.16667675369591	32.72449695621621	-0.5	0.2594142259414225	0.9542483660130719
4194.366455078125	-4.418551196031219	-0.4409781889803377	7.671139315964409	71.87651932341072	27.90256423641874	32.35449734047739	-0.5	0.2594142259414225	0.9542483660130719
4198.272705078125	-4.334841150822762	-0.1507817489427955	7.56527411720625	70.44713121275555	27.85968259309909	31.59935154291212	-0.5	0.2594142259414225	0.9542483660130719
4202.178955078125	-4.610959616016138	-0.489900995553197	7.444546869213696	69.4090532628168	28.57480891131734	31.98386129666035	-0.5102880658436214	0.2928870292887029	0.9477124183006537
4206.085205078125	-4.601353694330681	-0.5394098371084445	7.563379607564909	67.95703950071835	27.41184551337976	31.2175146815489	-0.5102880658436214	0.2928870292887029	0.9477124183006537
4209.991455078125	-4.76140388964149	-0.3828132065731584	7.751427118956746	66.88879401552188	26.63352949210745	31.58709001190221	-0.5102880658436214	0.2928870292887029	0.9477124183006537
4213.897705078125	-4.863098135973272	-0.4512277387412805	7.777292480188053	65.82053866797034	26.22834750332269	31.58303819201436	-0.5102880658436214	0.3096234309623431	0.9281045751633988
4217.803955078125	-4.769393163099669	-0.1716395422901082	7.640693788224196	65.10585447499784	25.83377264917531	31.57909244347289	-0.5102880658436214	0.3096234309623431	0.9281045751633988
4221.710205078125	-4.820785399839695	-0.2603581657877002	7.756956055894038	64.31573171917091	22.45186001127662	30.79055633596182	-0.5102880658436214	0.3096234309623431	0.9281045751633988
4225.616455078125	-4.701408053116919	-0.4438356147220516	7.829784037722629	62.89392494175048	21.28980282287938	31.53365274520993	-0.5102880658436214	0.3096234309623431	0.9281045751633988
4229.522705078125	-4.891475364387712	-0.2586475498822116	7.786637717346862	61.84075336182779	21.63134200383991	31.53706813701953	-0.5123456790123457	0.3284518828451883	0.9324618736383443
4233.428955078125	-4.730105579961387	-0.2832852688659287	7.665807408029818	61.08080800361365	19.36973767294423	31.13709360314454	-0.5123456790123457	0.3284518828451883	0.9324618736383443
4237.335205078125	-4.840171032895044	-0.1787194511204439	7.801248175700887	60.31330103687494	17.48104082215103	29.9861311629385	-0.5123456790123457	0.3284518828451883	0.9324618736383443
4241.241455078125	-4.547338445841897	-0.1883900387349926	7.419854588352307	59.61371047388636	17.46005310526137	30.36327977633563	-0.5308641975308642	0.3284518828451883	0.9193899782135078
4245.147705078125	-4.614070653448507	0.209096271310998	7.641081783798743	58.92167165706729	17.4392919407568	31.11778914582267	-0.5308641975308642	0.3284518828451883	0.9193899782135078
4249.053955078125	-4.527435485353819	-0.218296010129352	7.499366400195551	57.83078079571738	16.28716222984167	30.72890935814748	-0.5308641975308642	0.3284518828451883	0.9193899782135078
4252.960205078125	-4.755970941192694	0.1604816383064636	7.546322958361984	55.66407297829137	15.10275801024426	29.58498984425339	-0.5308641975308642	0.3284518828451883	0.9193899782135078
4256.866455078125	-4.586079399798329	-0.02208139397433375	7.81162099488916	55.3105116860674	14.71901684311933	29.95851092314818	-0.5308641975308642	0.3744769874476987	0.9193899782135078
4260.772705078125	-4.321284545031894	0.1947778200430249	7.804909883935672	54.26488198995914	15.43391660895251	29.96565992080651	-0.5308641975308642	0.3744769874476987	0.9193899782135078
4264.678955078125	-4.292508206586344	0.04210863429488235	7.747059137527669	53.58036533224435	16.53278409429569	29.97664859565994	-0.5308641975308642	0.3744769874476987	0.9193899782135078
4268.585205078125	-4.26161810058363	0.1008162042633419	7.618990285772989	52.8656614145617	16.88447730512342	29.22544854663614	-0.5185185185185186	0.3828451882845188	0.89760348583878
4272.491455078125	-4.585686352198072	0.01722336605136328	7.702479052255336	52.51208039762759	17.2470042029736	28.85171532504861	-0.5185185185185186	0.3828451882845188	0.89760348583878
4276.397705078125	-4.56577025644315	-0.01136907865833274	7.913369803098613	52.51963214379708	17.24723075535869	29.22907608113849	-0.5185185185185186	0.3828451882845188	0.89760348583878
4280.303955078125	-4.250325812716093	0.2199439809160335	7.433140405565107	52.50453851381316	16.87364361810096	28.84798171919988	-0.5185185185185186	0.3828451882845188	0.89760348583878
4284.210205078125	-4.534287042622053	0.1066492731483894	7.656959290200897	53.59542937516306	18.02577332901609	29.23686150687507	-0.5144032921810699	0.3786610878661087	0.9237472766884532
4288.116455078125	-4.480240471573864	0.4608013274621925	7.826722510142221	53.60297125897748	18.39913391388873	29.2405951127238	-0.5144032921810699	0.3786610878661087	0.9237472766884532
4292.022705078125	-4.447618531157677	0.6926923387778107	7.848744290213173	53.24939024204338	18.76166081173891	28.86686189113626	-0.5144032921810699	0.3786610878661087	0.9237472766884532
4295.928955078125	-4.417830777164937	0.6411647077487497	7.806061745797607	52.51961241908693	17.9934988203338	28.48182178065617	-0.5144032921810699	0.3786610878661087	0.9237472766884532
4299.835205078125	-4.519310817606605	0.5941707645920615	7.954212399750508	51.45889895534982	17.96167741642169	28.48150356661705	-0.5144032921810699	0.3786610878661087	0.9237472766884532
4303.741455078125	-4.450445644745129	0.4099809800325657	7.854782471342057	51.12795345221407	19.07115203640224	28.49259831281686	-0.5144032921810699	0.3786610878661087	0.9237472766884532
4307.647705078125	-4.742011183750148	0.5463563724600298	7.777877504765299	50.44344665685434	19.79688548925787	28.87721413791145	-0.5144032921810699	0.3786610878661087	0.9237472766884532
4311.553955078125	-4.861781578073182	0.6905290613686842	7.814191465570532	49.72121071771234	19.4020840827254	28.49590763328009	-0.5205761316872428	0.4351464435146443	0.8997821350762528
4315.460205078125	-4.760206559548162	0.7470208128606308	7.605910591209168	49.32991041935102	18.27094208869993	27.72987923220776	-0.5205761316872428	0.4351464435146443	0.8997821350762528
4319.366455078125	-4.893939742529168	0.5050156460731045	7.380351788918769	48.26920681796897	17.86598665230026	28.1031881684098	-0.5205761316872428	0.4351464435146443	0.8997821350762528
4323.272705078125	-4.960980123704104	0.8716845992866076	7.549529984282846	47.85528086816437	15.61476290365687	27.32595894979129	-0.5205761316872428	0.4351464435146443	0.8997821350762528
4327.178955078125	-4.870174003183039	0.8613875604839887	7.711539355164088	47.47910378685219	13.73780594942646	28.06190636138106	-0.5205761316872428	0.4351464435146443	0.8997821350762528
4331.085205078125	-4.720615854867265	0.6656872405462733	7.632542849943289	46.38068090404294	11.83918162115114	28.0429201180983	-0.5205761316872428	0.4351464435146443	0.8997821350762528
4334.991455078125	-4.928228851429735	1.11650879642045	7.855027999791575	44.95130265574286	11.42316594534393	27.66140147077419	-0.5205761316872428	0.4351464435146443	0.8997821350762528
4338.897705078125	-4.504160802906727	1.099071224478972	7.969507912790842	44.6279088987766	12.53286711770957	28.04985697306389	-0.5349794238683128	0.4581589958158995	0.888888888888889
4342.803955078125	-4.776030514477787	1.184827340100078	7.920571970951136	43.95093412487623	14.00509518792539	28.06457925376605	-0.5349794238683128	0.4581589958158995	0.888888888888889
4346.710205078125	-4.695062708824852	1.200799824585584	7.659554010605678	42.15286150494796	14.32428733768575	26.18097872243346	-0.5349794238683128	0.4581589958158995	0.888888888888889
4350.616455078125	-5.079917944190091	1.099114671900081	7.832439382435933	40.39256734057734	13.89834418439643	26.93143627203265	-0.5349794238683128	0.4581589958158995	0.888888888888889
4354.522705078125	-5.10042916857368	1.068194253743104	7.729678148274147	40.78387750129374	14.65635214593433	28.07109182334614	-0.5349794238683128	0.4581589958158995	0.888888888888889
4358.428955078125	-5.201119072194266	1.100213992694629	7.699969205882487	39.67790287231499	12.75750126527393	27.6747448239735	-0.5349794238683128	0.4581589958158995	0.888888888888889
4362.335205078125	-4.887759094275255	1.123080471464335	7.583034008388041	38.55684447570737	10.11192921486824	27.2709306129034	-0.5349794238683128	0.4581589958158995	0.888888888888889
4366.241455078125	-4.998933972054882	1.116703804612866	7.733118577782823	38.19574129966899	9.354827462870668	27.64071808594946	-0.5226337448559671	0.4769874476987447	0.8583877995642702
4370.147705078125	-4.746659047403572	1.091671017218607	7.754591707861644	37.86481552124337	9.718034017876107	28.39906713263159	-0.5226337448559671	0.4769874476987447	0.8583877995642702
4374.053955078125	-4.745734526698598	1.18412308771607	7.910738708108718	37.17274711735907	10.81667495083421	28.03269505139514	-0.5226337448559671	0.4769874476987447	0.8583877995642702
4377.960205078125	-4.90933730648885	0.985461270307009	7.919371609642383	37.15765348737515	10.44308781357648	27.65160068945652	-0.5226337448559671	0.4769874476987447	0.8583877995642702
4381.866455078125	-4.816317388301556	1.196543998127275	8.00156301592234	36.39013665828136	8.927524995270829	26.12701109900932	-0.5226337448559671	0.4769874476987447	0.8583877995642702
