Time Stamp	Accelerometer X	Accelerometer Y	Accelerometer Z	Gyroscope X	Gyroscope Y	Gyroscope Z	Magnetometer X	Magnetometer Y	Magnetometer Z
780.303955078125	-2.73384409919507	-8.737945273042341	2.555966315557953	-15.17038436218151	41.70906757361217	12.49256237384933	-0.2489711934156379	-0.8933054393305438	0.6318082788671024
784.210205078125	-1.91970712477385	-9.14242964910216	3.12974205235776	29.59694478197593	2.007311328533905	29.07667688687025	-0.2530864197530864	-0.9163179916317991	0.5860566448801744
788.116455078125	-2.632800553774767	-8.734600832022158	3.092497508416701	46.98111262093333	-2.32190990495409	19.22206391981839	-0.2530864197530864	-0.9163179916317991	0.5860566448801744
792.022705078125	-2.149279256288467	-8.86731956824055	2.908878602762462	57.62476342202542	-6.480212321219835	7.859726178674594	-0.2530864197530864	-0.9163179916317991	0.5860566448801744
795.928955078125	-2.703749182039148	-8.758756587753117	2.555226698993974	62.08529644992223	-7.838933643815767	2.563120097524107	-0.2530864197530864	-0.9163179916317991	0.5860566448801744
799.835205078125	-2.645263901201939	-8.970834564638301	2.676520784271218	64.13876752422604	-8.150463839944861	-0.4588631289654864	-0.2674897119341564	-0.8912133891213389	0.5773420479302833
803.741455078125	-2.59283498878617	-8.778448373566507	2.828078524363106	-6.800842246025656	-3.189099894246441	-1.163966470640578	-0.2674897119341564	-0.8912133891213389	0.5773420479302833
807.647705078125	-2.410879209995745	-8.764688676342086	2.547757784183949	-1.474688725317079	-0.4173749901177214	-2.645683183863441	-0.2674897119341564	-0.8912133891213389	0.5773420479302833
811.553955078125	-2.614559709745361	-8.930718449283539	2.709136662256552	-0.3460588578298279	1.482155547697941	-1.117253916221134	-0.2304526748971193	-0.8953974895397488	0.5751633986928105
815.460205078125	-2.572852206291872	-8.800372144338681	2.695869032336309	0.383709102771532	2.623451571590609	-1.105840955982207	-0.2304526748971193	-0.8953974895397488	0.5751633986928105
819.366455078125	-2.585588363107397	-9.063886815790141	2.58155583618548	-0.6845561071350841	2.591403615293411	-1.483519926111217	-0.2304526748971193	-0.8953974895397488	0.5751633986928105
823.272705078125	-2.682754983997658	-8.67953880380621	2.438185408959612	-0.2856843378941205	2.976504096728848	0.4071235315333263	-0.2304526748971193	-0.8953974895397488	0.5751633986928105
827.178955078125	-2.58466788402299	-8.971838907349499	2.697278547509467	-1.338846055461738	2.94490924520182	0.7841660735840937	-0.2633744855967078	-0.8912133891213389	0.5816993464052288
831.085205078125	-2.755734526597557	-8.906785993088974	2.799830627806849	-1.707491115314559	1.814446908331608	1.150219940781429	-0.2633744855967078	-0.8912133891213389	0.5816993464052288
834.991455078125	-2.554776058300619	-9.012959365415458	2.685420432762383	-2.407061953592993	1.047191126466837	2.274622854660895	-0.2633744855967078	-0.8912133891213389	0.5816993464052288
838.897705078125	-2.73202435953424	-8.555971306959357	2.57518422135972	-2.038397169030028	1.431385398361935	2.655823287945884	-0.271604938271605	-0.8974895397489538	0.5708061002178649
842.803955078125	-2.452074438042215	-8.843807440585072	2.634298984600426	-2.053480936658882	0.6846642286166514	2.648356076248431	-0.271604938271605	-0.8974895397489538	0.5708061002178649
846.710205078125	-2.838045160684276	-9.057041320952759	2.761191724769762	-2.061042545183454	1.057571708719123	1.89736816991738	-0.271604938271605	-0.8974895397489538	0.5708061002178649
850.616455078125	-2.623969612833261	-8.861607747972547	2.530679916473041	-2.07613617516738	0.6839845714613965	1.516273807978765	-0.271604938271605	-0.8974895397489538	0.5708061002178649
854.522705078125	-2.51387182693506	-8.962940269263473	2.718633460186668	-1.715023136773914	1.06795229097141	1.520113485173865	-0.2427983539094651	-0.903765690376569	0.5882352941176471
858.428955078125	-2.694438298655168	-8.837769259456188	2.753389376262862	-1.730126629112913	1.06749918620124	0.7653919729940879	-0.2427983539094651	-0.903765690376569	0.5882352941176471
862.335205078125	-2.645251776340234	-8.969622078467843	2.797793651040479	-2.467446335883773	-0.07402339007651318	0.3766182566652727	-0.2427983539094651	-0.903765690376569	0.5882352941176471
866.241455078125	-2.725257676297939	-8.889403993430307	2.578782274070556	-1.707481252959487	1.441312875844051	1.523847091022592	-0.2818930041152264	-0.903765690376569	0.5664488017429194
870.147705078125	-2.725869981814021	-8.950634545038461	2.515108562828927	-2.775746462866103	1.409264919546853	1.146168120893582	-0.2818930041152264	-0.903765690376569	0.5664488017429194
874.053955078125	-2.796652903635106	-8.958219656439823	2.625132589151759	-2.08368792133688	0.6837580190763115	1.138913051888876	-0.2818930041152264	-0.903765690376569	0.5664488017429194
877.960205078125	-2.614839591969709	-8.958706671718289	2.940057684635803	-2.437249213560847	0.3000168519513836	1.512434130783665	-0.2818930041152264	-0.903765690376569	0.5664488017429194
881.866455078125	-2.554270855729595	-8.962439108313019	2.687951497643216	-1.715023136773914	1.06795229097141	1.520113485173865	-0.2633744855967078	-0.9163179916317991	0.5816993464052288
885.772705078125	-2.55620173995605	-9.155527530958539	2.567166656557564	-1.715023136773914	1.06795229097141	1.520113485173865	-0.2633744855967078	-0.9163179916317991	0.5816993464052288
889.678955078125	-2.675990321571642	-9.013173571305572	2.421571317208905	-2.098791413675879	0.6833049143061415	0.3841915397090992	-0.2633744855967078	-0.9163179916317991	0.5816993464052288
893.585205078125	-2.555902660034004	-9.125619538753895	2.528261006562976	-2.805923860478885	0.2889566125438424	0.757606547257514	-0.2489711934156379	-0.8933054393305438	0.5751633986928105
897.491455078125	-2.655784239540951	-9.012767388438467	2.502601767980647	-1.715023136773914	1.06795229097141	1.520113485173865	-0.2489711934156379	-0.8933054393305438	0.5751633986928105
901.397705078125	-2.632829855523886	-8.7375310069341	2.799421413724319	-1.730126629112913	1.06749918620124	0.7653919729940879	-0.2489711934156379	-0.8933054393305438	0.5751633986928105
905.303955078125	-2.826231503763441	-8.885776638970352	2.739570065135061	-2.437249213560847	0.3000168519513836	1.512434130783665	-0.2489711934156379	-0.8933054393305438	0.5751633986928105
909.210205078125	-2.888245119356684	-9.026532137688598	2.681407103538165	-2.113894906014878	0.6828518095359716	-0.370529972470678	-0.2386831275720165	-0.8912133891213389	0.5751633986928105
913.116455078125	-2.684155405524538	-8.819580956494168	2.572583438524087	-1.361461844549948	1.451693458096337	1.146592406279077	-0.2386831275720165	-0.8912133891213389	0.5751633986928105
917.022705078125	-2.552229837342657	-8.758337269619169	2.900197201781979	-1.722584745298486	1.440859771073881	0.7691255788428143	-0.2386831275720165	-0.8912133891213389	0.5751633986928105
920.928955078125	-2.654949644893619	-8.929307923705238	2.769409349790045	-1.745239983806984	1.440180113918626	-0.3629566894268515	-0.2386831275720165	-0.8912133891213389	0.5751633986928105
924.835205078125	-2.636369304736483	-9.091475928193782	2.751385742866179	-1.730136491467986	1.440633218688796	0.3917648227529257	-0.2386831275720165	-0.8912133891213389	0.5751633986928105
928.741455078125	-2.483864815026495	-8.992542108710078	2.848766569646555	-1.36147170690502	1.824827490583894	0.7729652560379144	-0.2386831275720165	-0.8912133891213389	0.5751633986928105
932.647705078125	-2.715952855344813	-8.969022908218607	2.716308517954814	-1.73015621617813	2.18690128366391	-0.3554894777293987	-0.2386831275720165	-0.8912133891213389	0.5751633986928105
936.553955078125	-2.716151905157796	-8.988927889516969	2.745614308694796	-1.715052723839131	2.18735438843408	0.3992320344503786	-0.2448559670781893	-0.9163179916317991	0.5599128540305012
940.460205078125	-2.605572156006837	-9.042064085532171	2.703659255981505	-1.346387939276165	2.571548660329178	0.7804324677353673	-0.2448559670781893	-0.9163179916317991	0.5599128540305012
944.366455078125	-2.594260670441601	-8.921016539109587	2.709824748158287	-1.707500977669631	2.187580940819165	0.7765927905402672	-0.2448559670781893	-0.9163179916317991	0.5599128540305012
948.272705078125	-2.634151465449686	-8.869691999514078	2.711992067187982	-1.353939685445664	2.571322107944093	0.4030717116454787	-0.2448559670781893	-0.9163179916317991	0.5599128540305012
952.178955078125	-2.443261684393266	-8.972633085791148	2.900673102603884	-2.098811138386023	1.429572979281255	-0.3630627607732252	-0.2448559670781893	-0.9163179916317991	0.5599128540305012
956.085205078125	-2.692414457155644	-8.635385109503821	2.793831852478506	-1.369033315429591	2.197734970686366	0.02197734970686366	-0.2448559670781893	-0.9163179916317991	0.5599128540305012
959.991455078125	-2.745850743498036	-8.928508693237879	2.667530199317268	-1.369033315429591	2.197734970686366	0.02197734970686366	-0.2448559670781893	-0.9163179916317991	0.5599128540305012
963.897705078125	-2.936403049237012	-8.79182007521638	2.823974258676104	-1.015462160850552	2.208342105323737	0.02208342105323737	-0.2613168724279836	-0.8891213389121339	0.5860566448801744
967.803955078125	-2.45206231318051	-8.842594954414613	2.755571851369687	-1.361481569260092	2.197961523071451	0.3993381057967523	-0.2613168724279836	-0.8891213389121339	0.5860566448801744
971.710205078125	-2.805708154518147	-8.853643734642919	2.963604166066108	-1.75277200526634	0.6936854965584277	0.006936854965584278	-0.2613168724279836	-0.8891213389121339	0.5860566448801744
975.616455078125	-2.676043873044171	-9.01852871855843	2.896050499079011	-2.083707646047024	1.430026084051425	0.391658751406552	-0.2613168724279836	-0.8891213389121339	0.5860566448801744
979.522705078125	-2.400557921469716	-8.742660833840281	2.750982591214501	-1.730136491467986	1.440633218688796	0.3917648227529257	-0.2613168724279836	-0.8891213389121339	0.5860566448801744
983.428955078125	-2.715337518613305	-8.907489235067837	2.810300445888759	-1.760333613790911	1.0665929766609	-0.7440510513654666	-0.2613168724279836	-0.8891213389121339	0.5860566448801744
987.335205078125	-2.645048684906682	-8.949312935112662	2.808912149223584	-2.475017806763416	0.6720181225135154	-0.7479967999069403	-0.2613168724279836	-0.8891213389121339	0.5860566448801744
991.241455078125	-2.755742609838693	-8.907594317202612	2.718982049960675	-2.482559690577844	0.2986575376408737	-0.7517304057556667	-0.2633744855967078	-0.901673640167364	0.5642701525054467
995.147705078125	-2.613626095394108	-8.837357014158233	2.956238312580572	-2.467456198238845	0.2991106424110436	0.002991106424110436	-0.2633744855967078	-0.901673640167364	0.5642701525054467
999.053955078125	-2.703703713807756	-8.754209764613899	3.009999949378703	-2.091229805151307	0.3103974342036698	1.13517944604015	-0.2633744855967078	-0.901673640167364	0.5642701525054467
1002.960205078125	-2.510939631212834	-8.669720697040921	2.753525780957038	-2.512756812900769	-0.07538270438702309	-1.887546279874059	-0.2633744855967078	-0.901673640167364	0.5642701525054467
1006.866455078125	-2.736264019510277	-8.979937304563018	2.594347565283817	-1.760313889080767	0.320324911685786	0.003203249116857859	-0.2633744855967078	-0.901673640167364	0.5642701525054467
1010.772705078125	-2.574250607008468	-8.94021221599823	2.850479206362328	-1.74522025909684	0.6939120489435127	0.3842976110554729	-0.2633744855967078	-0.901673640167364	0.5642701525054467
1014.678955078125	-2.824191495781645	-8.681775840790706	2.941709697043053	-3.212327651179204	-0.842638486251794	-0.7631433659945934	-0.2633744855967078	-0.901673640167364	0.5642701525054467
1018.585205078125	-2.57497203627989	-9.012355143140512	2.705450704298358	-2.482549828222771	-0.07447649484668314	-0.3781032555145046	-0.2427983539094651	-0.9142259414225941	0.5555555555555556
1022.491455078125	-2.352503052913877	-8.987679028761397	2.587697078638853	-1.4067525968568	0.7040660788107139	-0.3703178297779307	-0.2427983539094651	-0.9142259414225941	0.5555555555555556
1026.397705078125	-2.946233280864005	-8.764742227814615	2.481795505295579	-2.121436789829305	0.3094912246633298	-0.3742635783194045	-0.2427983539094651	-0.9142259414225941	0.5555555555555556
1030.303955078125	-2.643540150029603	-8.798459447404781	2.745762838250677	-2.490101574392271	-0.07470304723176813	-0.7554640116043932	-0.2427983539094651	-0.9142259414225941	0.5555555555555556
1034.210205078125	-2.564558800885935	-8.981132613846063	2.818227074228131	-2.151643774507303	0.3085850151229899	-1.883706602678959	-0.2427983539094651	-0.9142259414225941	0.5555555555555556
1038.116455078125	-2.665141601561464	-8.93840258038882	2.849660778197268	-1.75277200526634	0.6936854965584277	0.006936854965584278	-0.2427983539094651	-0.9142259414225941	0.5555555555555556
1042.022705078125	-2.732223409347224	-8.575876288257717	2.604490012099703	-1.767875497605339	0.6932323917882577	-0.747784657214193	-0.2427983539094651	-0.9142259414225941	0.5555555555555556
1045.928955078125	-2.69567200333361	-8.961139727300342	2.535087303702657	-1.406772321566944	1.450334143785827	-1.117572130260255	-0.257201646090535	-0.9184100418410041	0.5620915032679739
1049.835205078125	-2.656068163385866	-9.041159772930039	2.693098501436812	-2.121446652184377	0.6826252571508865	-0.7478907285605667	-0.257201646090535	-0.9184100418410041	0.5620915032679739
1053.741455078125	-2.584158639831398	-8.92091448819024	2.740233901313387	-2.11390476836995	1.055985842023528	-0.7441571227118402	-0.257201646090535	-0.9184100418410041	0.5620915032679739
1057.647705078125	-2.752912465035815	-8.624579836914753	2.743262085524107	-1.406772321566944	1.450334143785827	-1.117572130260255	-0.257201646090535	-0.9184100418410041	0.5620915032679739
1061.553955078125	-2.490542582610295	-8.650217856989096	2.724401863142625	-1.384126945413518	1.824147833428639	-0.3591170122317514	-0.257201646090535	-0.9184100418410041	0.5620915032679739
1065.460205078125	-2.753415646796555	-8.67489801298878	2.760943165104818	-1.767895222315483	1.439500456763371	-1.495038957696517	-0.257201646090535	-0.9184100418410041	0.5620915032679739
1069.366455078125	-2.814923049413631	-8.765032214090382	2.715417340619527	-2.497663182916843	0.2982044328707037	-1.506451917935444	-0.257201646090535	-0.9184100418410041	0.5620915032679739
1073.272705078125	-2.644442441821453	-8.888688626589737	2.811949427080582	-1.384126945413518	1.824147833428639	-0.3591170122317514	-0.2613168724279836	-0.901673640167364	0.5686274509803922
1077.178955078125	-2.696879437478358	-9.081883141775171	2.579543109142519	-1.038117399359051	2.207662448168482	-1.109998847216428	-0.2613168724279836	-0.901673640167364	0.5686274509803922
1081.085205078125	-2.722213325604947	-8.584968924131013	2.725347602355582	-1.752791729976484	1.439953561533541	-0.7403174455167402	-0.2613168724279836	-0.901673640167364	0.5686274509803922
1084.991455078125	-2.778157437509903	-9.128875064121576	2.768299924944075	-2.12145651453945	1.055759289638443	-1.121517878801729	-0.2613168724279836	-0.901673640167364	0.5686274509803922
1088.897705078125	-2.805128181966611	-8.795646479489319	2.70388356592304	-1.030555790834479	1.83475496806601	-0.3590109408853777	-0.2613168724279836	-0.9100418410041841	0.5860566448801744
1092.803955078125	-2.936849648309798	-8.836479982494936	2.397494373079025	-1.745239983806984	1.440180113918626	-0.3629566894268515	-0.2613168724279836	-0.9100418410041841	0.5860566448801744
1096.710205078125	-2.776618590478563	-8.974990360987547	3.008332780894322	-1.384117083058446	1.451013800941082	0.01451013800941083	-0.2613168724279836	-0.9100418410041841	0.5860566448801744
1100.616455078125	-2.562728957173685	-8.798148242621032	2.938505702337616	-1.01545229849548	1.835208072836181	0.3957105712943996	-0.2674897119341564	-0.8953974895397488	0.5773420479302833
1104.522705078125	-2.484579171461923	-9.063977752252924	2.774480573197988	-1.737668512927341	0.6941386013285977	0.7616583671453615	-0.2674897119341564	-0.8953974895397488	0.5773420479302833
1108.428955078125	-2.413097049282542	-8.98647260502179	2.587151459862146	-1.038097674648906	1.461394383193369	-0.3627445467341041	-0.2674897119341564	-0.8953974895397488	0.5773420479302833
1112.335205078125	-2.513849598021934	-8.960717377950965	2.940967049263647	-2.121446652184377	0.6826252571508865	-0.7478907285605667	-0.2674897119341564	-0.8953974895397488	0.5773420479302833
1116.241455078125	-2.674451474540302	-8.859288868171545	2.661604173159152	-1.760323751435839	0.6934589441733428	-0.3704239011243043	-0.2448559670781893	-0.8933054393305438	0.579520697167756
1120.147705078125	-2.474682253095556	-9.084386925717167	2.773559083708439	-1.767875497605339	0.6932323917882577	-0.747784657214193	-0.2448559670781893	-0.8933054393305438	0.579520697167756
1124.053955078125	-2.77412187937256	-8.725319250387299	2.727912010606102	-1.760323751435839	0.6934589441733428	-0.3704239011243043	-0.2448559670781893	-0.8933054393305438	0.579520697167756
1127.960205078125	-2.715850804425466	-8.958817816283915	2.726920803161752	-2.113894906014878	0.6828518095359716	-0.370529972470678	-0.2366255144032922	-0.9142259414225941	0.5555555555555556
1131.866455078125	-2.999927220517619	-8.073530132569905	2.808748463590572	-1.030536066124335	1.088486903090897	0.3882433595969467	-0.2366255144032922	-0.9142259414225941	0.5555555555555556
1135.772705078125	-3.028429739169672	-8.903579977573251	2.575041754234692	-1.737668512927341	0.6941386013285977	0.7616583671453615	-0.2366255144032922	-0.9142259414225941	0.5555555555555556
1139.678955078125	-2.714630235013871	-8.836760875124423	2.813843936721923	-1.4067525968568	0.7040660788107139	-0.3703178297779307	-0.2366255144032922	-0.9142259414225941	0.5555555555555556
1143.585205078125	-2.794826091138281	-8.775538406757406	2.715093000568929	-1.75277200526634	0.6936854965584277	0.006936854965584278	-0.2674897119341564	-0.905857740585774	0.5729847494553377
1147.491455078125	-2.812890114267829	-8.561738699510171	2.846814466912117	-1.767865635250266	0.320098359300701	-0.3741575069730307	-0.2674897119341564	-0.905857740585774	0.5729847494553377
1151.397705078125	-2.865806041962065	-8.802826418428715	2.874634962093288	-1.775407519064694	-0.05326222557194082	-0.3778911128217572	-0.2674897119341564	-0.905857740585774	0.5729847494553377
1155.303955078125	-2.606459291721556	-9.130777657004055	2.921436928272986	-1.760313889080767	0.320324911685786	0.003203249116857859	-0.2818930041152264	-0.901673640167364	0.5664488017429194
1159.210205078125	-2.65423528845819	-8.857872280162391	2.843695346238612	-1.04561983375319	0.3417657333456133	0.3807761478994939	-0.2818930041152264	-0.901673640167364	0.5664488017429194
1163.116455078125	-2.646300576877681	-9.074502132212505	2.408700776509487	-1.04561983375319	0.3417657333456133	0.3807761478994939	-0.2818930041152264	-0.901673640167364	0.5664488017429194
1167.022705078125	-2.616286492133123	-9.103396688059673	2.609576391584777	-2.505185342021126	-0.8214242169770517	-0.762931223301846	-0.2818930041152264	-0.901673640167364	0.5664488017429194
1170.928955078125	-2.411637013852281	-8.840469061995742	3.049011691913206	-1.399190988332229	0.3311585987082421	0.3806700765531202	-0.2633744855967078	-0.901673640167364	0.5642701525054467
1174.835205078125	-2.774840277428556	-8.797159055986965	2.613201725234448	-1.414284618316155	-0.04242853854948467	-0.0004242853854948467	-0.2633744855967078	-0.901673640167364	0.5642701525054467
1178.741455078125	-2.433276860779539	-8.984251734519566	2.768878887090469	-1.767855772895194	-0.05303567318685583	-0.0005303567318685583	-0.2633744855967078	-0.901673640167364	0.5642701525054467
1182.647705078125	-2.713438967351395	-8.717634108876874	2.607690975589714	-1.045629696108262	0.7148997658331701	0.007148997658331701	-0.2448559670781893	-0.8953974895397488	0.5664488017429194
1186.553955078125	-2.84621933828345	-8.864358070769203	2.821249196007999	-1.391649104517801	0.7045191835808838	0.3844036824018466	-0.2448559670781893	-0.8953974895397488	0.5664488017429194
1190.460205078125	-2.696057978097872	-8.999737203726607	2.714971751951883	-1.399200850687301	0.7042926311957989	0.007042926311957989	-0.2448559670781893	-0.8953974895397488	0.5664488017429194
1194.366455078125	-2.885006770876418	-8.702697289661966	2.74813627992935	-1.030526203769263	0.7153528706033401	0.7618705098381089	-0.2448559670781893	-0.8953974895397488	0.5664488017429194
1198.272705078125	-2.66153445520435	-8.577687944677409	2.564702278416107	-1.384097358348302	0.7047457359659689	0.7617644384917353	-0.2633744855967078	-0.8870292887029287	0.5533769063180829
1202.178955078125	-2.63376346987514	-8.830892442059405	2.552319763400299	-0.6769649115452961	1.099094037728268	0.3883494309433204	-0.2633744855967078	-0.8870292887029287	0.5533769063180829
1206.085205078125	-2.806137576703517	-8.89658595317999	2.708927508392148	-1.399190988332229	0.3311585987082421	0.3806700765531202	-0.2633744855967078	-0.8870292887029287	0.5533769063180829
1209.991455078125	-2.816028432639033	-8.875570536630518	2.770485431266327	-1.391649104517801	0.7045191835808838	0.3844036824018466	-0.2304526748971193	-0.8933054393305438	0.5838779956427016
1213.897705078125	-2.573738331601449	-8.888984675296358	2.923752776858562	-0.6845067953597235	0.7257334528556262	0.384615825094594	-0.2304526748971193	-0.8933054393305438	0.5838779956427016
1217.803955078125	-2.745337457685875	-8.877180112021803	2.750909842044274	-1.391639242162729	0.3313851510933271	0.7580308326430089	-0.2304526748971193	-0.8933054393305438	0.5838779956427016
1221.710205078125	-2.723129763068785	-8.676612670514835	2.650049179954682	-1.030516341414191	0.3422188381157832	1.135497660079271	-0.2304526748971193	-0.8933054393305438	0.5838779956427016
1225.616455078125	-2.915592744931376	-8.730991664854759	2.887829842843302	-2.121426927474233	-0.063642807824227	-0.0006364280782422699	-0.2530864197530864	-0.8953974895397488	0.579520697167756
1229.522705078125	-2.373001142030621	-9.017285920233711	2.6163147834771	-1.022964595244691	0.3424453905008682	1.51285841616916	-0.2530864197530864	-0.8953974895397488	0.579520697167756
1233.428955078125	-2.672629714069187	-8.677112821060151	2.701034223422463	-1.399181125977156	-0.0419754337793147	0.7542972267942823	-0.2530864197530864	-0.8953974895397488	0.579520697167756
1237.335205078125	-2.635681218834748	-9.022667338020261	2.56291386131468	-1.399181125977156	-0.0419754337793147	0.7542972267942823	-0.2674897119341564	-0.907949790794979	0.5838779956427016
1241.241455078125	-2.564264772989599	-8.951729824212444	2.728791063079684	-1.391639242162729	0.3313851510933271	0.7580308326430089	-0.2674897119341564	-0.907949790794979	0.5838779956427016
1245.147705078125	-2.716236779189728	-8.997415292710178	2.906805251410978	-1.030516341414191	0.3422188381157832	1.135497660079271	-0.2674897119341564	-0.907949790794979	0.5838779956427016
1249.053955078125	-2.755027242998123	-8.836057633145559	2.803374118640014	-1.361461844549948	1.451693458096337	1.146592406279077	-0.2674897119341564	-0.907949790794979	0.5838779956427016
1252.960205078125	-2.612935988682089	-8.768346342956303	2.787978575490617	-1.752752280556195	-0.05258256841668587	0.7541911554479087	-0.257201646090535	-0.905857740585774	0.5599128540305012
1256.866455078125	-2.948221758183557	-8.963589959769813	2.795065557156947	-1.022964595244691	0.3424453905008682	1.51285841616916	-0.257201646090535	-0.905857740585774	0.5599128540305012
1260.772705078125	-2.613154236192771	-8.790171094024556	2.625268993845936	-1.745200534386696	-0.05235601603160088	1.131551911537797	-0.257201646090535	-0.905857740585774	0.5599128540305012
1264.678955078125	-2.644138309873696	-8.85827543181407	2.823574138239853	-1.030516341414191	0.3422188381157832	1.135497660079271	-0.2633744855967078	-0.8891213389121339	0.5773420479302833
1268.585205078125	-2.994991391398711	-8.590048230780093	2.68196181596115	-1.391629379807657	-0.04174888139422971	1.131657982884171	-0.2633744855967078	-0.8891213389121339	0.5773420479302833
1272.491455078125	-2.604464751971152	-8.931323681963626	2.668803309796249	-1.760294164370623	-0.4259431532893276	0.7504575495991822	-0.2633744855967078	-0.8891213389121339	0.5773420479302833
1276.397705078125	-2.447223482955239	-9.36881294198847	2.668703279687186	-1.752752280556195	-0.05258256841668587	0.7541911554479087	-0.2633744855967078	-0.8891213389121339	0.5773420479302833
1280.303955078125	-2.765654684282191	-8.888700751451442	2.568312455988647	-1.737648788217196	-0.0521294636465159	1.508912667627686	-0.2654320987654321	-0.903765690376569	0.5816993464052288
1284.210205078125	-2.694745461818351	-8.868485575774471	2.711446448411275	-1.022964595244691	0.3424453905008682	1.51285841616916	-0.2654320987654321	-0.903765690376569	0.5816993464052288
1288.116455078125	-2.794819018302287	-8.774831123157972	2.785835506184332	-1.384077633638158	-0.04152232900914473	1.50901873897406	-0.2654320987654321	-0.903765690376569	0.5816993464052288
1292.022705078125	-2.663659337218079	-8.790176146050266	2.523753589224296	-1.038058225228618	-0.03114174675685855	1.131764054230545	-0.257201646090535	-0.903765690376569	0.5620915032679739
1295.928955078125	-2.836038496072167	-8.856374859741877	2.629830973062286	-1.38408749599323	0.3316117034784121	1.135391588732897	-0.257201646090535	-0.903765690376569	0.5620915032679739
1299.835205078125	-2.839420322082604	-8.184456450684587	3.148241560103531	-1.760294164370623	-0.4259431532893276	0.7504575495991822	-0.257201646090535	-0.903765690376569	0.5620915032679739
1303.741455078125	-2.754665517957269	-8.799885129060213	2.380943936852266	-2.121417065119161	-0.4367768403117838	0.37299072216292	-0.257201646090535	-0.903765690376569	0.5620915032679739
1307.647705078125	-2.574973046685033	-9.012456183654718	2.695344632067586	-1.745210396741768	0.3207780164559559	0.7579247612966351	-0.2695473251028807	-0.907949790794979	0.5904139433551199
1311.553955078125	-2.694136187517695	-8.80755814570893	2.744801942960589	-1.37653574982373	0.331838255863497	1.512752344822786	-0.2695473251028807	-0.907949790794979	0.5904139433551199
1315.460205078125	-2.714535256930518	-8.827263066789165	2.753713716313459	-2.121417065119161	-0.4367768403117838	0.37299072216292	-0.2695473251028807	-0.907949790794979	0.5904139433551199
1319.366455078125	-2.888537126442737	-9.055732846293807	2.791055259148155	-1.038058225228618	-0.03114174675685855	1.131764054230545	-0.2530864197530864	-0.9100418410041841	0.5751633986928105
1323.272705078125	-2.674038218837204	-8.817963297861748	2.754583675140763	-1.37653574982373	0.331838255863497	1.512752344822786	-0.2530864197530864	-0.9100418410041841	0.5751633986928105
1327.178955078125	-2.391471348027272	-8.844104499696835	2.725799253454078	-1.722574882943414	1.067725738586325	1.142752729083977	-0.2530864197530864	-0.9100418410041841	0.5751633986928105
1331.085205078125	-2.353281064873254	-9.065480224699153	2.886829541752674	-2.128958948933589	-0.8101374251844257	0.3692571163141935	-0.2530864197530864	-0.9100418410041841	0.5751633986928105
1334.991455078125	-2.494965125917043	-9.092472187663841	2.934568153499052	-2.106313572780162	-0.4363237355416138	1.127712234342697	-0.2613168724279836	-0.9100418410041841	0.5620915032679739
1338.897705078125	-2.553776767615133	-8.913030296866834	2.579315767985558	-1.391639242162729	0.3313851510933271	0.7580308326430089	-0.2613168724279836	-0.9100418410041841	0.5620915032679739
1342.803955078125	-2.555579330388548	-9.093286574208333	2.731901090106911	-1.752752280556195	-0.05258256841668587	0.7541911554479087	-0.2613168724279836	-0.9100418410041841	0.5620915032679739
1346.710205078125	-2.632430745492777	-8.697620003823172	2.750915904475126	-1.384077633638158	-0.04152232900914473	1.50901873897406	-0.257201646090535	-0.899581589958159	0.5751633986928105
1350.616455078125	-2.654655616997282	-8.89990513407162	2.679973338641598	-2.490081849682127	-0.8209711122068817	-0.008209711122068817	-0.257201646090535	-0.899581589958159	0.5751633986928105
1354.522705078125	-2.838697882406039	-9.122313493129111	2.293275124297262	-2.098761826610662	-0.4360971831565288	1.505072990432586	-0.257201646090535	-0.899581589958159	0.5751633986928105
1358.428955078125	-2.654850625189698	-8.919405953313161	2.749703418304668	-1.745200534386696	-0.05235601603160088	1.131551911537797	-0.257201646090535	-0.899581589958159	0.5751633986928105
1362.335205078125	-2.674054385319477	-8.819579946089027	2.592886519448415	-2.113865318949661	-0.4365502879266988	0.7503514782528086	-0.271604938271605	-0.907949790794979	0.5773420479302833
1366.241455078125	-2.876205131684031	-8.832634380524297	2.903343603394319	-1.730097042047697	-0.05190291126143091	1.886273423717574	-0.271604938271605	-0.907949790794979	0.5773420479302833
1370.147705078125	-2.735764879370105	-8.930023290545808	2.536242196780019	-1.745200534386696	-0.05235601603160088	1.131551911537797	-0.271604938271605	-0.907949790794979	0.5773420479302833
1374.053955078125	-2.436321211472532	-9.288686803818861	2.622313558805443	-2.106323435135234	-0.06318970305405704	0.754085084101535	-0.257201646090535	-0.903765690376569	0.579520697167756
1377.960205078125	-2.565170095996875	-9.042262124940013	2.764659435217274	-1.737658650572269	0.3210045688410409	1.135285517386524	-0.257201646090535	-0.903765690376569	0.579520697167756
1381.866455078125	-2.624457638516871	-8.910410316333502	2.699952079515329	-1.38408749599323	0.3316117034784121	1.135391588732897	-0.257201646090535	-0.903765690376569	0.579520697167756
1385.772705078125	-2.805335315020731	-8.816359784901318	2.652340778816848	-1.760304026725695	-0.05280912080177085	0.37683039935802	-0.257201646090535	-0.903765690376569	0.579520697167756
1389.678955078125	-2.832801157997042	-8.532641052229449	2.686454077222699	-2.08368792133688	0.6837580190763115	1.138913051888876	-0.2592592592592593	-0.9121338912133891	0.5577342047930284
1393.585205078125	-2.913598205180972	-8.531537689814332	2.635196224366565	-1.760304026725695	-0.05280912080177085	0.37683039935802	-0.2592592592592593	-0.9121338912133891	0.5577342047930284
1397.491455078125	-2.63505577805182	-8.960123259727443	2.757966511556343	-2.121426927474233	-0.063642807824227	-0.0006364280782422699	-0.2592592592592593	-0.9121338912133891	0.5577342047930284
1401.397705078125	-2.65120205222176	-8.554548656519351	2.879093879985149	-1.745210396741768	0.3207780164559559	0.7579247612966351	-0.2592592592592593	-0.9121338912133891	0.5577342047930284
1405.303955078125	-2.875296777461329	-8.741798958254114	2.897793447949045	-1.391639242162729	0.3313851510933271	0.7580308326430089	-0.2592592592592593	-0.9121338912133891	0.5577342047930284
1409.210205078125	-2.676549075615195	-9.069048975660868	2.893519434198179	-1.384097358348302	0.7047457359659689	0.7617644384917353	-0.2592592592592593	-0.9121338912133891	0.5577342047930284
1413.116455078125	-2.53287451644157	-8.843007199712568	2.552722915051977	-1.74522025909684	0.6939120489435127	0.3842976110554729	-0.2592592592592593	-0.9121338912133891	0.5577342047930284
1417.022705078125	-2.604462731160867	-8.931121600935217	2.689015454257793	-1.376555474533874	1.078106320838611	0.7654980443404616	-0.2510288065843622	-0.903765690376569	0.5882352941176471
1420.928955078125	-2.643325944139489	-8.777038858393349	2.868048130972272	-1.715042861484059	1.814220355946523	0.7728591846915408	-0.2510288065843622	-0.903765690376569	0.5882352941176471
1424.835205078125	-2.310564166682858	-8.83419444606362	2.868517969363324	-2.121426927474233	-0.063642807824227	-0.0006364280782422699	-0.2510288065843622	-0.903765690376569	0.5882352941176471
1428.741455078125	-2.55242888715564	-8.778242250917529	2.929502992521962	-2.13652055745816	-0.4372299450819538	-0.3817307900168573	-0.2510288065843622	-0.903765690376569	0.5882352941176471
1432.647705078125	-2.575585352201114	-9.073686735262871	2.631670920825957	-1.391649104517801	0.7045191835808838	0.3844036824018466	-0.2510288065843622	-0.903765690376569	0.5882352941176471
1436.553955078125	-2.775348511215007	-8.847982434632018	2.5803524436613	-1.384097358348302	0.7047457359659689	0.7617644384917353	-0.2510288065843622	-0.903765690376569	0.5882352941176471
1440.460205078125	-2.554591154159624	-8.994468951315966	2.514629630791596	-2.482549828222771	-0.07447649484668314	-0.3781032555145046	-0.2510288065843622	-0.903765690376569	0.5882352941176471
1444.366455078125	-2.654455556779157	-8.879899112259055	2.660773620132387	-1.391649104517801	0.7045191835808838	0.3844036824018466	-0.2366255144032922	-0.8974895397489538	0.5751633986928105
1448.272705078125	-2.557497079348157	-9.285061470169191	2.742495188021292	-2.490091712037199	-0.447837079719325	-0.381836861363231	-0.2366255144032922	-0.8974895397489538	0.5751633986928105
1452.178955078125	-2.805898110684852	-8.872639351313435	3.083864606883036	-2.821027352817884	0.2885035077736725	0.002885035077736724	-0.2366255144032922	-0.8974895397489538	0.5751633986928105
1456.085205078125	-2.796037566903598	-8.896685983289053	2.719124517085704	-2.13652055745816	-0.4372299450819538	-0.3817307900168573	-0.2366255144032922	-0.8974895397489538	0.5751633986928105
1459.991455078125	-2.614942653294198	-8.969012804167187	2.919339327198093	-1.030506479059119	-0.03091519437177356	1.509124810320433	-0.2366255144032922	-0.8974895397489538	0.5751633986928105
1463.897705078125	-2.675058728030673	-8.920014217208674	2.648460823071381	-1.399190988332229	0.3311585987082421	0.3806700765531202	-0.2366255144032922	-0.8974895397489538	0.5751633986928105
1467.803955078125	-2.65505876864896	-8.940220299239366	2.688054558967704	-1.782949402879121	-0.4266228104445826	-0.3816247186704836	-0.2366255144032922	-0.8974895397489538	0.5751633986928105
1471.710205078125	-2.531252816188582	-8.680837174413742	2.611352683824498	-1.399190988332229	0.3311585987082421	0.3806700765531202	-0.2674897119341564	-0.901673640167364	0.579520697167756
1475.616455078125	-2.441764263972749	-8.822891043739521	2.726356997092489	-1.406742734501728	0.3309320463231571	0.003309320463231571	-0.2674897119341564	-0.901673640167364	0.579520697167756
1479.522705078125	-2.674039229242346	-8.818064338375953	2.744477602909992	-1.391649104517801	0.7045191835808838	0.3844036824018466	-0.2674897119341564	-0.901673640167364	0.579520697167756
1483.428955078125	-2.522755308943952	-8.841187460051739	2.754935296130196	-1.414284618316155	-0.04242853854948467	-0.0004242853854948467	-0.2674897119341564	-0.901673640167364	0.579520697167756
1487.335205078125	-2.623545242673601	-8.819170732006498	2.734826212993142	-1.790501149048621	-0.4268493628296676	-0.7589854747603723	-0.2674897119341564	-0.901673640167364	0.579520697167756
1491.241455078125	-2.695035448094119	-8.89748420335127	2.841306748482809	-1.038058225228618	-0.03114174675685855	1.131764054230545	-0.2674897119341564	-0.901673640167364	0.579520697167756
1495.147705078125	-2.575175127713442	-9.032664286495693	2.694332206115253	-1.414284618316155	-0.04242853854948467	-0.0004242853854948467	-0.2674897119341564	-0.901673640167364	0.579520697167756
1499.053955078125	-2.674281726476437	-8.842314061785123	2.339222287726788	-1.053171579922689	0.3415391809605283	0.003415391809605283	-0.257201646090535	-0.8953974895397488	0.5620915032679739
1502.960205078125	-2.576066305048729	-9.121782020024394	2.871685589483647	-1.376565336888947	1.451240353326168	0.3918708940992994	-0.257201646090535	-0.8953974895397488	0.5620915032679739
1506.866455078125	-2.654633388084157	-8.897682242759114	2.902306927718577	-2.144082165982732	-0.06432246497948195	-1.132718696347908	-0.257201646090535	-0.8953974895397488	0.5620915032679739
1510.772705078125	-2.63749691687501	-9.204237142046425	2.584120244436	-1.053181442277761	0.7146732134480851	-0.3702117584315569	-0.257201646090535	-0.8953974895397488	0.5620915032679739
1514.678955078125	-2.701198919460617	-8.503730329900009	2.810427756936657	-1.361481569260092	2.197961523071451	0.3993381057967523	-0.257201646090535	-0.8953974895397488	0.5620915032679739
1518.585205078125	-2.453076759943127	-8.944039630676309	2.710085432684936	-1.060723326092188	0.3413126285754433	-0.3739453642802834	-0.257201646090535	-0.8953974895397488	0.5620915032679739
1522.491455078125	-2.735233406265387	-8.876875980074045	2.801531139660917	-1.030526203769263	0.7153528706033401	0.7618705098381089	-0.257201646090535	-0.8953974895397488	0.5620915032679739
1526.397705078125	-2.844275318790148	-8.66995612143902	3.073412976093683	-1.038097674648906	1.461394383193369	-0.3627445467341041	-0.2407407407407408	-0.907949790794979	0.5577342047930284
1530.303955078125	-2.584265742776455	-8.931624782695957	2.67909125495259	-0.3234036193213294	1.482835204853196	0.01482835204853196	-0.2407407407407408	-0.907949790794979	0.5577342047930284
1534.210205078125	-2.683872492084764	-8.791289612516803	2.371980632837151	-0.6769747739003683	1.472228070215825	0.01472228070215825	-0.2407407407407408	-0.907949790794979	0.5577342047930284
1538.116455078125	-2.665350755425869	-8.959317966829229	2.777905846629533	-0.6845265200698678	1.47200151783074	-0.3626384753877304	-0.2407407407407408	-0.907949790794979	0.5577342047930284
1542.022705078125	-2.615606489472523	-9.035396421999792	2.340255932187104	-0.6920782662393673	1.471774965445655	-0.739999231477619	-0.2633744855967078	-0.907949790794979	0.5773420479302833
1545.928955078125	-2.775750652461543	-8.888196559285561	2.598539736218178	-0.3234134816764015	1.855969237340753	-0.3587987981926302	-0.2633744855967078	-0.907949790794979	0.5773420479302833
1549.835205078125	-2.705638639654779	-8.947702349316236	2.848790819369964	-1.053191304632833	1.087807245935642	-0.7438389086727191	-0.2633744855967078	-0.907949790794979	0.5773420479302833
1553.741455078125	-2.614056527984621	-8.880400273209512	2.69145558267584	-0.6996201500537946	1.098414380573013	-0.7437328373263454	-0.2530864197530864	-0.903765690376569	0.5816993464052288
1557.647705078125	-2.776042659547595	-8.917397267890768	2.708187891828168	-0.6845265200698678	1.47200151783074	-0.3626384753877304	-0.2530864197530864	-0.903765690376569	0.5816993464052288
1561.553955078125	-2.693428903918261	-8.736829785765517	2.748345433793754	-0.6845265200698678	1.47200151783074	-0.3626384753877304	-0.2530864197530864	-0.903765690376569	0.5816993464052288
1565.460205078125	-2.673833106593368	-8.797452073478158	2.785914317785411	-0.6845265200698678	1.47200151783074	-0.3626384753877304	-0.2530864197530864	-0.903765690376569	0.5816993464052288
1569.366455078125	-2.888133974791059	-9.015417681126062	2.782974038822049	-0.3158617355069021	1.856195789725838	0.01856195789725838	-0.2551440329218107	-0.905857740585774	0.5751633986928105
1573.272705078125	-2.74482215106343	-8.825649449777314	2.854501629232824	-0.3234134816764015	1.855969237340753	-0.3587987981926302	-0.2551440329218107	-0.905857740585774	0.5751633986928105
1577.178955078125	-2.554053618624054	-8.94071539775897	2.840555007057125	-0.3309553654908289	1.482608652468111	-0.3625324040413567	-0.2551440329218107	-0.905857740585774	0.5751633986928105
1581.085205078125	-2.684333236829538	-8.837364086994226	2.814116746110277	-0.6996201500537946	1.098414380573013	-0.7437328373263454	-0.2469135802469136	-0.903765690376569	0.5686274509803922
1584.991455078125	-2.615264972534511	-9.001244728198545	2.72580531588493	-0.7147137800377213	0.7248272433152863	-1.12482719926496	-0.2469135802469136	-0.903765690376569	0.5686274509803922
1588.897705078125	-2.583349305312617	-8.839981036312134	2.75438967735349	-0.3384972493052563	1.109248067595469	-0.3662660098900831	-0.2469135802469136	-0.903765690376569	0.5686274509803922
1592.803955078125	-3.079455198843135	-8.955620894414473	2.319404201270643	-0.7222556638521488	0.3514666584426445	-1.128560805113687	-0.2469135802469136	-0.903765690376569	0.5686274509803922
1596.710205078125	-2.904574276857334	-8.639245867551589	2.993537418399302	0.02262565144328209	1.120081754617925	0.01120081754617925	-0.2633744855967078	-0.9100418410041841	0.5686274509803922
1600.616455078125	-2.694001803633803	-8.794119757319681	3.078808539552224	0.714674330617433	0.767708886634941	-0.3696814016996884	-0.2633744855967078	-0.9100418410041841	0.5686274509803922
1604.522705078125	-2.381747208940194	-8.881791601090113	3.016941432704578	-0.7222556638521488	0.3514666584426445	-1.128560805113687	-0.2633744855967078	-0.9100418410041841	0.5686274509803922
1608.428955078125	-2.531637780547703	-8.719333610325799	2.801343204304496	-0.3384972493052563	1.109248067595469	-0.3662660098900831	-0.2654320987654321	-0.8933054393305438	0.5882352941176471
1612.335205078125	-2.756232656332587	-8.956598966591976	2.868042068541419	-0.3611327631036104	0.3623003454651006	-0.7510939776774245	-0.2654320987654321	-0.8933054393305438	0.5882352941176471
1616.241455078125	-2.755235386457385	-8.856871979071764	2.741725259303051	-0.3686746469180378	-0.01106023940754114	-0.754827583526151	-0.2654320987654321	-0.8933054393305438	0.5882352941176471
1620.147705078125	-2.675839771205476	-8.998118534689045	2.917275069492888	0.3082902646272583	-1.110154277135809	-1.143177014469471	-0.2654320987654321	-0.8933054393305438	0.5882352941176471
1624.053955078125	-2.464493327643136	-9.075595390576201	2.6629894386089	-0.3384873869501842	0.7361140351079124	0.007361140351079124	-0.2654320987654321	-0.8953974895397488	0.5642701525054467
1627.960205078125	-2.816313366889091	-8.904063961636293	2.950876092491719	-0.3686746469180378	-0.01106023940754114	-0.754827583526151	-0.2654320987654321	-0.8953974895397488	0.5642701525054467
1631.866455078125	-2.615889402912297	-9.063687765977157	2.54085873787404	0.7071324468030056	0.3943483017622991	-0.3734150075484148	-0.2654320987654321	-0.8953974895397488	0.5642701525054467
1635.772705078125	-2.512950337445511	-8.870791320308626	2.844462243741427	0.01508376762885473	0.7467211697452836	0.007467211697452836	-0.2448559670781893	-0.905857740585774	0.579520697167756
1639.678955078125	-2.724376603014073	-8.801296665043655	2.300368168394445	0.376196806022321	1.130688889255296	0.01130688889255296	-0.2448559670781893	-0.905857740585774	0.579520697167756
1643.585205078125	-2.795355543432715	-8.82848363620076	2.470016202149575	-0.353581016934111	0.3625268978501856	-0.3737332215875359	-0.2448559670781893	-0.905857740585774	0.579520697167756
1647.491455078125	-2.616176357972639	-9.092383272011341	2.701037254637889	0.3460095460544673	0.383514614739843	-0.7508818349846771	-0.2448559670781893	-0.905857740585774	0.579520697167756
1651.397705078125	-2.675049634384394	-8.91910485258083	2.739415473148327	0.3309257784256125	-0.3632065550054406	-0.75834904668213	-0.2592592592592593	-0.899581589958159	0.5751633986928105
1655.303955078125	-2.43174811779962	-8.831377436527589	2.907851020732999	-0.3460391331196837	0.7358874827228274	-0.3699996157388095	-0.2592592592592593	-0.899581589958159	0.5751633986928105
1659.210205078125	-2.884977469127299	-8.699767114750026	3.041212374621731	0.02262565144328209	1.120081754617925	0.01120081754617925	-0.2592592592592593	-0.899581589958159	0.5751633986928105
1663.116455078125	-2.56356961425187	-8.882213950439489	2.611061687143588	-0.3611327631036104	0.3623003454651006	-0.7510939776774245	-0.2551440329218107	-0.9121338912133891	0.5838779956427016
1667.022705078125	-2.513071586062556	-8.882916182013211	2.641834586149825	0.3912904360062478	1.504276026513023	0.392401250831168	-0.2551440329218107	-0.9121338912133891	0.5838779956427016
1670.928955078125	-2.74605989736244	-8.949424079678289	2.595775267749532	0.3912904360062478	1.504276026513023	0.392401250831168	-0.2551440329218107	-0.9121338912133891	0.5838779956427016
1674.835205078125	-2.766037627831028	-8.92699510633509	2.778515120930188	-0.3460391331196837	0.7358874827228274	-0.3699996157388095	-0.2551440329218107	-0.9121338912133891	0.5838779956427016
1678.741455078125	-2.624465721758007	-8.911218640447141	2.619103501669154	0.01507390527378262	1.11985520223284	-0.3661599385437094	-0.2469135802469136	-0.8870292887029287	0.5838779956427016
1682.647705078125	-2.675129456390617	-8.927087053203016	2.951136777018368	0.3912904360062478	1.504276026513023	0.392401250831168	-0.2469135802469136	-0.8870292887029287	0.5838779956427016
1686.553955078125	-2.727154206749565	-9.079057038592859	2.801603888831145	0.7297679606013598	1.141296023892668	0.01141296023892668	-0.2469135802469136	-0.8870292887029287	0.5838779956427016
1690.460205078125	-2.574260711059888	-8.941222621140279	2.74941848405461	0.7599453582141414	2.261604330895678	0.3999745338749945	-0.2407407407407408	-0.8974895397489538	0.5838779956427016
1694.366455078125	-2.805539416859424	-8.836769968770703	2.631116208402972	0.7448517282302145	1.888017193637951	0.01888017193637951	-0.2407407407407408	-0.8974895397489538	0.5838779956427016
1698.272705078125	-2.755532445569147	-8.886577890247999	2.800843053759182	0.752403474399714	1.888243746023036	0.3962409280262681	-0.2407407407407408	-0.8974895397489538	0.5838779956427016
1702.178955078125	-2.594142453039982	-8.909194798947617	2.882134189057573	0.7373098444157872	1.514656608765309	0.0151465660876531	-0.2407407407407408	-0.8974895397489538	0.5838779956427016
1706.085205078125	-2.624335379494683	-8.898184414114711	2.912685809337702	0.3837386898367483	1.504049474127938	0.01504049474127938	-0.257201646090535	-0.901673640167364	0.5729847494553377
1709.991455078125	-2.866624470127125	-8.884669234934666	2.769524535976239	0.7297679606013598	1.141296023892668	0.01141296023892668	-0.257201646090535	-0.901673640167364	0.5729847494553377
1713.897705078125	-2.873784200963682	-8.590541308489414	2.875068425899226	0.3686549222078936	0.7573283043826547	0.007573283043826548	-0.257201646090535	-0.901673640167364	0.5729847494553377
1717.803955078125	-2.684139239042265	-8.817964308266891	2.734280594216435	0.3837485521918205	1.130915441640381	0.3886676449824416	-0.2613168724279836	-0.8953974895397488	0.5620915032679739
1721.710205078125	-2.752899329768968	-8.62326631023009	2.87464102452414	0.7373197067708593	1.141522576277753	0.3887737163288153	-0.2613168724279836	-0.8953974895397488	0.5620915032679739
1725.616455078125	-2.774818048515431	-8.794936164674459	2.835535314311426	-0.3611229007485384	-0.01083368702245615	-0.3774668274362623	-0.2613168724279836	-0.8953974895397488	0.5620915032679739
1729.522705078125	-2.83482196828114	-8.734722080639203	2.67632981769937	0.01509362998392684	0.3735871372577268	0.381094361938615	-0.2613168724279836	-0.8953974895397488	0.5620915032679739
1733.428955078125	-2.843931781041852	-8.635602346609362	2.469073494152043	0.01509362998392684	0.3735871372577268	0.381094361938615	-0.2551440329218107	-0.9100418410041841	0.5751633986928105
1737.335205078125	-2.75494236896619	-8.827570229952348	2.642183175923832	0	0	0	-0.2551440329218107	-0.9100418410041841	0.5751633986928105
1741.241455078125	-2.635891383104294	-9.043683764974876	2.481052857516173	-0.3611130383934663	-0.383967719510013	-0.003839677195100129	-0.2551440329218107	-0.9100418410041841	0.5751633986928105
1745.147705078125	-2.856720478924763	-8.904371124799475	2.839345552102092	0.03017739761278156	1.12030830700301	0.3885615736360679	-0.2489711934156379	-0.899581589958159	0.5773420479302833
1749.053955078125	-2.433180872291045	-8.974652885670103	2.718854738912777	0.3611229007485384	0.01083368702245615	0.3774668274362623	-0.2489711934156379	-0.899581589958159	0.5773420479302833
1752.960205078125	-2.717245163521493	-9.098253725886645	2.921955266110857	0.7222458014970767	0.0216673740449123	0.7549336548725246	-0.2489711934156379	-0.899581589958159	0.5773420479302833
1756.866455078125	-2.694953605277613	-8.889299921700676	2.649797589074312	-0.7373295691259315	-0.7683885437901959	-0.7624008665699775	-0.2489711934156379	-0.899581589958159	0.5773420479302833
1760.772705078125	-2.853981270584669	-8.630450290790055	2.964180096997076	0.353581016934111	-0.3625268978501856	0.3737332215875359	-0.2551440329218107	-0.899581589958159	0.5664488017429194
1764.678955078125	-2.685158737830592	-8.919914187099611	2.638263814377825	0.7373295691259315	0.7683885437901959	0.7624008665699775	-0.2551440329218107	-0.899581589958159	0.5664488017429194
1768.585205078125	-2.59275112515938	-8.770062010887502	2.656781509416153	0	0	0	-0.2551440329218107	-0.899581589958159	0.5664488017429194
1772.491455078125	-2.523475727810233	-8.913229346679817	2.620012866296998	0.7222359391420046	0.3948014065324691	0.3813065046313625	-0.2510288065843622	-0.8933054393305438	0.5925925925925927
1776.397705078125	-2.73484541069084	-8.838076422619372	2.641858835873235	0.3988421821757472	1.504502578898108	0.7697620069210566	-0.2510288065843622	-0.8933054393305438	0.5925925925925927
1780.303955078125	-2.745465779138915	-8.890012257325822	2.47753967883727	0.3837485521918205	1.130915441640381	0.3886676449824416	-0.2510288065843622	-0.8933054393305438	0.5925925925925927
1784.210205078125	-2.713005503545456	-8.674287728282982	2.90279192218676	0.7448615905852867	1.514883161150395	0.3925073221775417	-0.2510288065843622	-0.8933054393305438	0.5925925925925927
1788.116455078125	-2.847050901715356	-8.947514413959816	2.584759830890917	1.105984491333825	1.52571684817285	0.7699741496138041	-0.2510288065843622	-0.907949790794979	0.579520697167756
1792.022705078125	-2.575060951932391	-9.021246708390542	2.826217358091453	0.01508376762885473	0.7467211697452836	0.007467211697452836	-0.2510288065843622	-0.907949790794979	0.579520697167756
1795.928955078125	-2.694221061549628	-8.816045548902141	2.905992885676771	1.105974628978753	1.898850880660407	0.3963469993726418	-0.2510288065843622	-0.907949790794979	0.579520697167756
1799.835205078125	-2.715044501122111	-8.878187485948423	2.71075836250954	0.7448615905852867	1.514883161150395	0.3925073221775417	-0.2366255144032922	-0.8870292887029287	0.5816993464052288
1803.741455078125	-2.89611415460296	-8.803334652215167	2.763195358166445	0.3912904360062478	1.504276026513023	0.392401250831168	-0.2366255144032922	-0.8870292887029287	0.5816993464052288
1807.647705078125	-2.715537578831431	-8.927495256880404	2.829500164397969	1.090880998994826	1.525263743402681	0.01525263743402681	-0.2366255144032922	-0.8870292887029287	0.5816993464052288
1811.553955078125	-2.833379109738294	-8.59043622635464	2.96638682182731	0.7222162144318603	1.141069471507583	-0.3659477958509619	-0.2366255144032922	-0.8870292887029287	0.5816993464052288
1815.460205078125	-2.877928882856366	-9.005009497757817	2.834101549414859	0.714674330617433	0.767708886634941	-0.3696814016996884	-0.2592592592592593	-0.8933054393305438	0.5838779956427016
1819.366455078125	-2.887806603525035	-8.982680554523682	3.027038411289071	1.444462015928937	1.162736845552495	0.3889858590215627	-0.2592592592592593	-0.8933054393305438	0.5838779956427016
1823.272705078125	-2.979875730473661	-9.098684158477157	2.353650873155245	0.3158321484416857	-0.7367936922631674	-1.139443408620745	-0.2592592592592593	-0.8933054393305438	0.5838779956427016
1827.178955078125	-2.674420151980898	-8.856156612231192	2.974892412313076	1.760304026725695	0.05280912080177085	-0.37683039935802	-0.2469135802469136	-0.8870292887029287	0.5773420479302833
1831.085205078125	-2.905099687531199	-8.691786934938124	2.788884908903035	1.376555474533874	-1.078106320838611	-0.7654980443404616	-0.2469135802469136	-0.8870292887029287	0.5773420479302833
1834.991455078125	-2.685321413058462	-8.936181709886597	3.031388205425591	2.061062269893597	-1.803839773694237	-1.150113869435056	-0.2469135802469136	-0.8870292887029287	0.5773420479302833
1838.897705078125	-2.69634291234793	-9.028230628732382	2.895362413177276	2.061062269893597	-1.803839773694237	-1.150113869435056	-0.2469135802469136	-0.8870292887029287	0.5773420479302833
1842.803955078125	-2.686741032283041	-9.078143632344448	2.973770862605402	2.768214441406748	-2.155759536907051	-0.7762745765011461	-0.2386831275720165	-0.8828451882845187	0.5969498910675382
1846.710205078125	-2.70603370806532	-8.987209190370343	2.937720617542245	2.392007773029354	-2.913314393674791	-1.161208615634861	-0.2386831275720165	-0.8828451882845187	0.5969498910675382
1850.616455078125	-2.817924963090658	-9.065223581793072	2.993307046026915	3.460272982935971	-2.881266437377593	-0.7835296455058515	-0.2386831275720165	-0.8828451882845187	0.5969498910675382
1854.522705078125	-2.242789220969654	-9.127406945450179	2.97574721506325	3.437627606782545	-3.255080127020404	-1.541984763534355	-0.2325102880658436	-0.8953974895397488	0.5838779956427016
1858.428955078125	-2.414681364545274	-9.144904131295037	2.90244636362818	3.80629239134551	-2.870885855125306	-1.160784330249366	-0.2325102880658436	-0.8953974895397488	0.5838779956427016
1862.335205078125	-2.577270707978051	-9.242222312956606	2.946459611615824	3.783647015192084	-3.244699544768118	-1.91923944827787	-0.2325102880658436	-0.8953974895397488	0.5838779956427016
1866.241455078125	-2.478297482693806	-9.445909885542218	2.977669005643426	4.445508434398381	-4.344246687266556	-3.062310391400968	-0.2325102880658436	-0.8953974895397488	0.5838779956427016
1870.147705078125	-2.48698898772571	-9.304959378631557	2.91392254523157	6.258635234890284	-2.797315569818963	-2.292124099094416	-0.2674897119341564	-0.9163179916317991	0.5882352941176471
1874.053955078125	-2.517475942076747	-9.323351783432269	3.033910176660145	7.65781636086744	-2.755340136039649	-3.046421325888699	-0.2674897119341564	-0.9163179916317991	0.5882352941176471
1877.960205078125	-2.221999124766858	-9.068599345372656	2.837481354615012	8.349865040041591	-3.107713004022633	-3.427303545134566	-0.2674897119341564	-0.9163179916317991	0.5882352941176471
1881.866455078125	-2.394493469807139	-9.146316677683622	2.801567514246031	7.251402707812049	-3.513801202347728	-4.940798389381968	-0.2674897119341564	-0.9163179916317991	0.5882352941176471
1885.772705078125	-2.315724305743301	-9.350208352107925	2.771958601963434	7.274028359255331	-2.393719447729803	-4.929597571835789	-0.2674897119341564	-0.9163179916317991	0.5882352941176471
1889.678955078125	-2.242266841511214	-9.075168999606257	3.150081507867202	8.018889949840618	-0.8788362865794083	-4.537090249658247	-0.2674897119341564	-0.9163179916317991	0.5882352941176471
1893.585205078125	-2.356074835091019	-9.344857246475636	3.226368106497026	7.981141081348193	-1.25310308099239	-6.050266879866528	-0.2674897119341564	-0.9163179916317991	0.5882352941176471
1897.491455078125	-2.355781817599825	-9.315555497356222	3.126826023117808	8.710909041949552	-0.1118070570997224	-6.038853919627601	-0.2407407407407408	-0.8849372384937237	0.5925925925925927
1901.397705078125	-2.135413466524131	-9.500942612009045	3.210669441805014	9.771602780976526	0.6662824117875047	-6.785790006070805	-0.2407407407407408	-0.8849372384937237	0.5925925925925927
1905.303955078125	-2.355500924970335	-9.287466234407267	2.906011072969328	10.4636415977956	0.6870435762920771	-7.540299375557835	-0.2407407407407408	-0.8849372384937237	0.5925925925925927
1909.210205078125	-1.812236392244975	-9.506467507325768	3.30453405869106	11.89300012138554	1.849327317074402	-7.906035028716049	-0.2407407407407408	-0.8849372384937237	0.5925925925925927
1913.116455078125	-2.318586783510725	-9.636456128850341	3.434385265116316	12.56994530822069	1.496501344321248	-9.041638760141694	-0.2407407407407408	-0.8849372384937237	0.5925925925925927
1917.022705078125	-2.002598741817247	-9.350783272633752	3.340717677232969	14.72910137947721	2.68067901153357	-8.275080002337495	-0.2407407407407408	-0.8849372384937237	0.5925925925925927
1920.928955078125	-2.144692016943565	-9.418696643851417	3.335901075920822	16.12828250545436	2.722654445312885	-9.029377229131777	-0.2407407407407408	-0.8849372384937237	0.5925925925925927
1924.835205078125	-2.174870797726278	-9.406271691819645	3.507937707431756	17.16634073068298	2.753796192069743	-10.16114128336232	-0.2469135802469136	-0.8933054393305438	0.6056644880174292
1928.741455078125	-2.143766485833448	-9.326143532839749	3.502154148398668	18.18931518828275	2.038216769081318	-11.30037254929032	-0.2469135802469136	-0.8933054393305438	0.6056644880174292
1932.647705078125	-1.921866360562408	-9.358353227957981	3.75528791742072	19.58094456809041	2.079965650475548	-12.43203053217449	-0.2469135802469136	-0.8933054393305438	0.6056644880174292
1936.553955078125	-2.273426725686856	-9.160854386867419	3.610132104308852	19.54321542430812	0.9594307910874527	-13.19795286190045	-0.2469135802469136	-0.8933054393305438	0.6056644880174292
1940.460205078125	-2.248297949804103	-9.678279828895167	3.432996968451141	20.94993843409971	1.374766809739409	-13.948516482846	-0.2469135802469136	-0.8933054393305438	0.6056644880174292
1944.366455078125	-2.091874098548108	-9.187409854810744	3.337892584455801	22.32647418392343	1.042928553875912	-15.46126882766879	-0.2469135802469136	-0.8933054393305438	0.6056644880174292
1948.272705078125	-1.956265603623458	-9.767974503759977	3.128402255139404	21.63440578003915	2.14156948683401	-15.82764090890525	-0.2469135802469136	-0.8933054393305438	0.6056644880174292
1952.178955078125	-1.882472684884211	-9.459389700542289	3.831438111356368	22.3490702483015	3.282412405956508	-16.5709494608461	-0.2530864197530864	-0.8933054393305438	0.6100217864923748
1956.085205078125	-1.954412520592941	-9.582666200708234	3.48112054455664	22.6875181858314	4.038834500798822	-18.07281920216182	-0.2530864197530864	-0.8933054393305438	0.6100217864923748
1959.991455078125	-1.681283844214887	-9.542525835630062	4.001010364725844	23.39463090792426	5.179450867536236	-19.19348851019256	-0.2530864197530864	-0.8933054393305438	0.6100217864923748
1963.897705078125	-1.811685721442559	-9.45140042708411	3.761838373956622	24.46287639312073	5.957766888808548	-19.56306384054588	-0.2530864197530864	-0.8933054393305438	0.6100217864923748
1967.803955078125	-2.043042228438033	-9.35472789430831	3.875469546636569	25.88469303289624	6.746690044718231	-19.93253309955282	-0.2530864197530864	-0.8933054393305438	0.6100217864923748
1971.710205078125	-2.023729344552913	-9.443641525998318	4.113641236315162	26.54653472739239	6.393410967194907	-21.82285834315824	-0.2530864197530864	-0.8933054393305438	0.6100217864923748
1975.616455078125	-1.895509942432066	-9.753014445226803	3.735818420738582	27.97589325098233	7.555694707977231	-22.18859399631646	-0.2530864197530864	-0.8933054393305438	0.6100217864923748
1979.522705078125	-2.164908203025677	-9.42011323186057	4.163910912942372	28.67548381397091	7.576682424866889	-22.5657426097136	-0.2304526748971193	-0.8682008368200836	0.6034858387799565
1983.428955078125	-1.884072156224074	-9.619336834528609	3.995141931660824	29.72109378536903	7.608050724008832	-23.32014590785425	-0.2304526748971193	-0.8682008368200836	0.6034858387799565
1987.335205078125	-1.781568575373511	-9.469988850482382	3.983432346469622	30.39803897220418	7.255224751255678	-24.4557496392799	-0.2304526748971193	-0.8682008368200836	0.6034858387799565
1991.241455078125	-2.056485668852992	-9.688970925703185	3.757612859652574	30.73649677208915	7.638512813610435	-25.58399223035446	-0.2304526748971193	-0.8682008368200836	0.6034858387799565
1995.147705078125	-2.004157796951428	-9.506688786051877	3.908664386768297	32.51191415350892	7.31864100669482	-24.83247396729154	-0.2304526748971193	-0.8682008368200836	0.6034858387799565
1999.053955078125	-1.935289592874526	-9.690575449068758	3.839552675052161	33.18131745652964	6.592454449069024	-25.97181130456591	-0.2304526748971193	-0.8682008368200836	0.6034858387799565
2002.960205078125	-1.89579790789755	-9.781810991775192	3.88589086527166	34.55786306870845	5.88748216071797	-27.11093649914754	-0.2304526748971193	-0.8682008368200836	0.6034858387799565
2006.866455078125	-2.199589349121359	-9.857924811125727	3.747734128578764	37.4166195653086	6.719513512332393	-26.34789920449932	-0.2139917695473251	-0.8598326359832635	0.6143790849673203
2010.772705078125	-2.058389272140611	-9.879331254465171	3.90969196879776	39.54558837659727	7.156516905029261	-26.34352917057235	-0.2139917695473251	-0.8598326359832635	0.6143790849673203
2014.678955078125	-1.993834487615116	-9.484458862521661	4.132101338260393	41.31344414949245	7.209552578216117	-26.34299881384048	-0.2139917695473251	-0.8598326359832635	0.6143790849673203
2018.585205078125	-2.036769633316194	-9.737569392225446	3.987703329005062	42.35906398324565	6.867786844870504	-26.72377496173998	-0.2139917695473251	-0.8598326359832635	0.6143790849673203
2022.491455078125	-2.289140546455999	-9.72213545368065	4.016254347103933	44.51818060508188	9.544500642033054	-27.45172480490043	-0.2181069958847737	-0.8661087866108785	0.627450980392157
2026.397705078125	-1.854910853419405	-9.733509584364693	3.747300664772824	47.36186319640826	9.256676791414636	-26.3225275717085	-0.2181069958847737	-0.8661087866108785	0.627450980392157
2030.303955078125	-2.045340900136194	-9.584595064124406	4.116478453954035	47.36186319640826	9.256676791414636	-26.3225275717085	-0.2181069958847737	-0.8661087866108785	0.627450980392157
2034.210205078125	-2.098066871663725	-9.806687166372434	4.024038508318277	50.22060983065335	10.46184217551662	-25.93311742730144	-0.2242798353909465	-0.8472803347280334	0.6535947712418301
2038.116455078125	-2.238450541289696	-9.703639987555448	3.946978949754786	50.90511662601308	9.736108722660989	-26.31773325239604	-0.2242798353909465	-0.8472803347280334	0.6535947712418301
2042.022705078125	-2.127055395189104	-9.675236488607315	3.979816106466229	53.43293748183255	11.30448066176841	-25.16997406130685	-0.2242798353909465	-0.8472803347280334	0.6535947712418301
2045.928955078125	-2.005962380535127	-9.687147144421788	4.041037564428105	54.86228614306742	12.83989843503829	-25.90933686470622	-0.2242798353909465	-0.8472803347280334	0.6535947712418301
2049.835205078125	-2.015028745874731	-9.583682668281135	4.268342346803965	56.64523554594654	13.26652124548287	-25.52771214603574	-0.2242798353909465	-0.8472803347280334	0.6492374727668846
2053.741455078125	-1.752366856363159	-9.58011997975027	4.139833968812492	58.78174624104963	14.07688522305239	-25.51960850626005	-0.2242798353909465	-0.8472803347280334	0.6492374727668846
2057.647705078125	-1.955266312937972	-9.668045435211354	4.032398600463589	60.93335056613664	15.26083633787962	-25.13041050454573	-0.2242798353909465	-0.8472803347280334	0.6492374727668846
2061.553955078125	-1.942725164314863	-9.424031583001435	4.216441876277488	62.73137387428955	16.80731435055705	-25.11494572441896	-0.2098765432098766	-0.8326359832635982	0.6601307189542485
2065.460205078125	-1.874358121188417	-9.658034341063933	4.185223388603607	64.46905224957196	15.74004171674089	-25.50297694132316	-0.2098765432098766	-0.8326359832635982	0.6601307189542485
2069.366455078125	-1.792958872539827	-9.598917557012946	4.199094230393652	66.26710514479008	16.16711763195564	-24.3666307104729	-0.2098765432098766	-0.8326359832635982	0.6601307189542485
2073.272705078125	-1.86485121920688	-9.71744515301126	4.323762058440197	67.28252785622036	15.45131165658213	-25.88322273249079	-0.2098765432098766	-0.8326359832635982	0.6601307189542485
2077.178955078125	-1.981158955108114	-9.227006621922493	4.650151210665927	70.55522016498018	18.16143272435239	-23.96932906898289	-0.2181069958847737	-0.8200836820083681	0.6906318082788672
2081.085205078125	-1.923509279323379	-9.52264510405511	4.494531641903001	72.33060795933473	18.96096301489945	-24.33869225664346	-0.2181069958847737	-0.8200836820083681	0.6906318082788672
2084.991455078125	-1.942484687891055	-9.399983940620674	4.601485046999147	74.48220242206666	20.51804816221424	-24.32312140517031	-0.2181069958847737	-0.8200836820083681	0.6906318082788672
2088.897705078125	-2.093471549077687	-9.347154907768655	4.531909559322812	77.7322493546731	22.85435554034169	-23.16768285969092	-0.2119341563786008	-0.809623430962343	0.69281045751634
2092.803955078125	-1.983465710047411	-9.457682115852228	4.810311540137218	80.22233120435521	23.67532665254857	-23.15947314856886	-0.2119341563786008	-0.809623430962343	0.69281045751634
2096.710205078125	-2.295023125193007	-9.300292317280432	4.774661415510312	83.07354581714095	24.13399741929035	-22.40016945976936	-0.2119341563786008	-0.809623430962343	0.69281045751634
2100.616455078125	-2.213824947167684	-9.261282595556215	4.797625903578796	84.45764317548925	23.42925168332438	-23.1619338982611	-0.2119341563786008	-0.809623430962343	0.69281045751634
2104.522705078125	-2.253110509495682	-9.149434787951984	4.792724428234718	87.33904504824285	24.63509672458162	-21.64044148558438	-0.2283950617283951	-0.8012552301255229	0.7167755991285404
2108.428955078125	-2.092443967048223	-9.244396704822293	4.708774917007596	89.12200431347703	24.68858550253864	-20.88518961667273	-0.2283950617283951	-0.8012552301255229	0.7167755991285404
2112.335205078125	-2.202500326335601	-9.138921522448967	4.935170334755611	90.14499849578695	23.2267380145751	-21.2771665821184	-0.2283950617283951	-0.8012552301255229	0.7167755991285404
2116.241455078125	-2.371877571512662	-8.904928868437887	4.763358013186212	91.93549964483557	23.65358737740477	-20.51818110735803	-0.1995884773662552	-0.7907949790794978	0.7189542483660132
2120.147705078125	-2.110775747540414	-9.057372733839351	5.192690272499296	93.74110428622319	24.08088984500461	-19.00447412041788	-0.1995884773662552	-0.7907949790794978	0.7189542483660132
2124.053955078125	-2.545980481539085	-9.143502699363017	4.800193343044742	95.51652166764296	23.76101803808899	-18.25295585735496	-0.1995884773662552	-0.7907949790794978	0.7189542483660132
2127.960205078125	-2.365268511478521	-9.254123875124799	5.210610818098673	96.54706759612236	22.29939710251054	-18.26757206671074	-0.1995884773662552	-0.7907949790794978	0.7189542483660132
2131.866455078125	-2.475850281439764	-9.201189760138005	5.232353726350421	98.32248497754212	21.97952529559492	-17.51605380364783	-0.2037037037037037	-0.7782426778242677	0.738562091503268
2135.772705078125	-2.20256398185955	-9.145287074843875	5.308588794318	100.4892026573232	22.79079548270477	-15.99850713951258	-0.2037037037037037	-0.7782426778242677	0.738562091503268
2139.678955078125	-2.312032285354255	-8.981006313203306	5.356112189769122	101.9035070003495	22.08695595627914	-15.25082855364476	-0.2037037037037037	-0.7782426778242677	0.738562091503268
2143.585205078125	-2.364470291416302	-9.174301868902946	5.113599799600286	102.9491366964578	21.37205619044597	-15.25797755130309	-0.2098765432098766	-0.7447698744769874	0.758169934640523
2147.491455078125	-2.111662883255133	-9.146086305311234	5.410467944790777	104.3785248071129	21.41493783376563	-14.50283175373782	-0.2098765432098766	-0.7447698744769874	0.758169934640523
2151.397705078125	-2.211858698761257	-9.064657754913524	5.272123272741459	106.5452523492491	21.85307398838792	-12.61165793936141	-0.2098765432098766	-0.7447698744769874	0.758169934640523
2155.303955078125	-2.249594299601352	-8.797813798519012	5.618421447886117	107.6210594429701	22.25848252955776	-12.23024536338367	-0.2098765432098766	-0.7447698744769874	0.758169934640523
2159.210205078125	-2.371889696374367	-8.906141354608346	5.652186156517962	109.7727032174774	21.94989751443477	-10.34653876070471	-0.1975308641975309	-0.7489539748953974	0.766884531590414
2163.116455078125	-2.187474591468194	-8.646449045809256	5.727620983613038	110.7806136321585	19.74132885672595	-10.74598293784784	-0.1975308641975309	-0.7489539748953974	0.766884531590414
2167.022705078125	-2.600628243646792	-8.547672849527709	5.688024216501289	112.9322968560861	17.94020771165273	-7.367767734204228	-0.1975308641975309	-0.7489539748953974	0.766884531590414
2170.928955078125	-2.771103799213261	-8.423511234457333	5.642022491194092	113.9402368578323	14.61223695648124	-6.646330460623868	-0.1893004115226338	-0.7238493723849372	0.7973856209150327
2174.835205078125	-2.750994716076206	-8.432804940953897	5.762971017912756	115.693058174874	12.05288129748503	-4.785131564383641	-0.1893004115226338	-0.7238493723849372	0.7973856209150327
2178.741455078125	-2.720058131436957	-8.369449507332011	6.099781488773576	116.3927079119931	9.835064819449345	-2.920517276333809	-0.1893004115226338	-0.7238493723849372	0.7973856209150327
2182.647705078125	-2.868311846714346	-8.043305883555801	6.094404112607593	116.7312347483635	7.606414654391204	-1.433369815720239	-0.1893004115226338	-0.7238493723849372	0.7973856209150327
2186.553955078125	-2.829216240553054	-8.174149307830548	6.219566028768599	117.0848552147179	5.751351626590791	0.4348720068319457	-0.2386831275720165	-0.6694560669456067	0.8191721132897605
2190.460205078125	-2.917883333388401	-7.949949500456204	6.239990358309973	116.7237914880998	3.501713744642995	2.299168080842656	-0.2386831275720165	-0.6694560669456067	0.8191721132897605
2194.366455078125	-2.995819923615191	-7.662800442327081	6.516194707940424	116.332560226224	-0.2413664767953689	4.148529731458462	-0.2386831275720165	-0.6694560669456067	0.8191721132897605
2198.272705078125	-3.228484905269617	-7.696975375446597	6.673775473084066	114.8579701244577	-4.390081791788658	5.239118050006642	-0.2098765432098766	-0.6506276150627615	0.8344226579520698
2202.178955078125	-3.128024363616277	-7.751931311122629	6.429608039292555	114.8655613200474	-5.882391369353802	7.110987407061179	-0.2098765432098766	-0.6506276150627615	0.8344226579520698
2206.085205078125	-3.025801675395204	-7.630672590025357	6.638713404249832	113.4211387535388	-8.537664344856523	8.216510149004266	-0.2098765432098766	-0.6506276150627615	0.8344226579520698
2209.991455078125	-3.026956568472565	-7.746161897761531	6.198583955588815	112.0295290984413	-9.325681291225866	10.09542243237076	-0.2098765432098766	-0.6506276150627615	0.8344226579520698
2213.897705078125	-3.155057753191792	-7.424967238371074	6.748716212064681	111.3374804192671	-8.973308423242884	10.47630465161663	-0.1934156378600823	-0.6213389121338911	0.8431372549019609
2217.803955078125	-2.796902473705192	-7.973075653347417	6.189538808757194	109.5998217686949	-8.652303854401842	11.61159016900315	-0.1934156378600823	-0.6213389121338911	0.8431372549019609
2221.710205078125	-2.72497678366845	-7.851213720380342	6.398371364326118	109.1934574274148	-11.2764350831477	11.58534885671569	-0.1934156378600823	-0.6213389121338911	0.8431372549019609
2225.616455078125	-2.999785763797731	-8.059384460581223	6.243800596100639	108.4335120692007	-13.53803941404338	11.1853743228407	-0.2037037037037037	-0.6004184100418409	0.8910675381263617
2229.522705078125	-2.697440212332195	-8.127859617057867	6.061582111973281	109.5017970038174	-14.2522595227213	12.31030759345203	-0.2037037037037037	-0.6004184100418409	0.8910675381263617
2233.428955078125	-2.845164475315151	-7.748770763838301	6.301281534226652	110.2089590376857	-14.97731331842167	13.05777403662711	-0.2037037037037037	-0.6004184100418409	0.8910675381263617
2237.335205078125	-2.737597754297781	-8.103209773212447	6.42604939238226	110.1712397562585	-16.47098221029732	12.66547885714231	-0.2037037037037037	-0.6004184100418409	0.8910675381263617
2241.241455078125	-2.859322272165538	-8.154449438776023	6.10913885079409	111.2772439723024	-15.69153342709958	14.18270730723844	-0.1810699588477366	-0.5836820083682008	0.8867102396514162
2245.147705078125	-2.604248525270753	-7.899600001822773	6.851704787383428	111.9843961438156	-16.0434531903124	14.55654660017235	-0.1810699588477366	-0.5836820083682008	0.8867102396514162
2249.053955078125	-2.72695919855715	-8.04945520925031	6.772277849572117	113.4062226459462	-15.62766406689027	14.56070449140657	-0.1810699588477366	-0.5836820083682008	0.8867102396514162
2252.960205078125	-2.58549641623947	-8.044591118896488	6.531511439488741	115.2118075626236	-14.45409353431532	15.32715717786439	-0.2078189300411523	-0.5397489539748953	0.9193899782135078
2256.866455078125	-2.504586203679631	-8.034377943720658	6.704548372090303	115.1891621864702	-14.82790722395813	14.56870205983589	-0.2078189300411523	-0.5397489539748953	0.9193899782135078
2260.772705078125	-2.422887875108994	-7.945353167465025	6.679513563885761	117.3634118877107	-13.27014241948809	15.71635517957871	-0.2078189300411523	-0.5397489539748953	0.9193899782135078
2264.678955078125	-2.338431140500564	-7.580487787430079	6.971328672960865	118.1007315944815	-12.12861984321033	16.10512889590752	-0.2078189300411523	-0.5397489539748953	0.9193899782135078
2268.585205078125	-2.248886005596776	-7.716883387960384	6.642172021051064	119.1538933120491	-12.0970249916833	15.72808635385675	-0.1893004115226338	-0.5146443514644351	0.925925925925926
2272.491455078125	-2.117394911625976	-7.699087122193479	6.664578765481139	120.9745521340004	-9.803599256875511	16.12837910177087	-0.1893004115226338	-0.5146443514644351	0.925925925925926
2276.397705078125	-2.258500010523369	-7.668182870518775	6.442490704853677	122.0578912491808	-8.651696098345473	16.13989813335617	-0.1893004115226338	-0.5146443514644351	0.925925925925926
2280.303955078125	-1.880584237673722	-7.250342959291354	6.558070949052635	123.5023335403996	-6.742691187817863	15.78162969189541	-0.1954732510288066	-0.4937238493723849	0.9477124183006537
2284.210205078125	-2.054292079289604	-7.449409949162376	6.505976480738886	124.6083081693783	-4.843840307157455	16.17797669126805	-0.1954732510288066	-0.4937238493723849	0.9477124183006537
2288.116455078125	-2.101055650073905	-7.075261977087428	6.453509172927719	125.3456180137941	-3.329183698392146	16.1931232573557	-0.1954732510288066	-0.4937238493723849	0.9477124183006537
2292.022705078125	-2.029930200909666	-7.033424131370615	6.739140602533485	125.3682338028823	-1.835967911286664	15.83069692466072	-0.1954732510288066	-0.4937238493723849	0.9477124183006537
2295.928955078125	-2.020225259520287	-7.073031002533785	6.838267409399321	125.7595143765335	0.04144214771391586	15.84947102525073	-0.2037037037037037	-0.4539748953974895	0.9368191721132898
2299.835205078125	-1.927509473280751	-6.892361469489186	6.908834104520007	125.7745882818073	1.161297349946756	15.48331108670702	-0.2037037037037037	-0.4539748953974895	0.9368191721132898
2303.741455078125	-2.178553724469046	-6.744261335793388	7.075344830309076	126.143223479305	2.664893719304524	14.74363006926852	-0.2037037037037037	-0.4539748953974895	0.9368191721132898
2307.647705078125	-1.779366902568987	-7.229619549827934	6.812644545402106	126.8956170913497	4.926271497815117	14.76624384705362	-0.2078189300411523	-0.4351464435146443	0.9411764705882354
2311.553955078125	-1.723295479616132	-6.672982305047558	7.032956313789846	128.0015917203284	6.825122378475525	15.16259084642627	-0.2078189300411523	-0.4351464435146443	0.9411764705882354
2315.460205078125	-1.652224592329564	-6.636600647097808	6.772859842933936	129.4837631553295	9.854662148391228	15.57024473469146	-0.2078189300411523	-0.4351464435146443	0.9411764705882354
2319.366455078125	-1.390111352810125	-6.687902957780191	7.217360304239456	130.552008640526	10.63297816966354	15.20066940433815	-0.2078189300411523	-0.4351464435146443	0.9411764705882354
2323.272705078125	-1.803276119445287	-6.590238207154901	7.066596742589217	132.3802192086467	12.92663045685642	15.97832290834215	-0.1995884773662552	-0.3933054393305439	0.9891067538126362
2327.178955078125	-2.168062687879153	-6.705258686905164	6.956187751907264	133.8246812245757	14.08936730240891	16.36730876736371	-0.1995884773662552	-0.3933054393305439	0.9891067538126362
2331.085205078125	-1.690383552924178	-6.412092666155141	6.925117793789265	134.5242619252091	14.48348905178613	15.61653300372541	-0.1995884773662552	-0.3933054393305439	0.9891067538126362
2334.991455078125	-1.962657426552059	-6.366752756215986	6.874157000044893	135.6453400465269	16.38279303721671	16.76760151527783	-0.2098765432098766	-0.3535564853556485	0.9891067538126362
2338.897705078125	-2.100561561959443	-6.015752155540233	7.354974453371072	137.4659988684782	18.67621877202449	17.16789426319194	-0.2098765432098766	-0.3535564853556485	0.9891067538126362
2342.803955078125	-2.130803998266105	-6.009692755903367	6.890328534343384	137.4961664037359	20.16966111151506	17.18282868658685	-0.2098765432098766	-0.3535564853556485	0.9891067538126362
2346.710205078125	-1.806122430730438	-5.864768325569028	6.880619551333437	138.5719537727468	21.32133771766001	16.81698696208226	-0.2098765432098766	-0.3535564853556485	0.9891067538126362
2350.616455078125	-2.209978334791904	-5.846318327675218	6.907806522490543	137.8949789988465	22.79356578787584	16.83170924278442	-0.2037037037037037	-0.3263598326359832	0.9956427015250545
2354.522705078125	-2.139588460571076	-5.878037976299554	6.906924438801535	138.6624859655851	24.68226263866904	17.98267168299046	-0.2037037037037037	-0.3263598326359832	0.9956427015250545
2358.428955078125	-2.520314170120762	-5.566770547429727	6.96918560365458	137.9402500264432	24.28746123213658	17.6013651783591	-0.2037037037037037	-0.3263598326359832	0.9956427015250545
2362.335205078125	-2.34195543363603	-4.902614070673658	7.074884085564301	137.9628855402415	25.03440895426694	17.98619314614644	-0.2037037037037037	-0.3263598326359832	0.9956427015250545
2366.241455078125	-2.587163584723851	-5.181004937031503	7.028209430432501	137.6244178780015	25.02425492439975	18.74080858697985	-0.2037037037037037	-0.3263598326359832	0.9956427015250545
2370.147705078125	-2.274189581569103	-5.19673593468806	7.091158681187281	137.278408331947	24.6407403096599	19.49169042196452	-0.2037037037037037	-0.3263598326359832	0.9956427015250545
2374.053955078125	-2.596328969767375	-5.087442431282929	7.275220144293737	136.556172392805	24.24593890312743	19.11038391733316	-0.2037037037037037	-0.3263598326359832	0.9956427015250545
2377.960205078125	-1.877247879894677	-4.896505161184831	7.605089131828682	136.9701082049646	26.12402861928327	20.26124028619283	-0.2345679012345679	-0.2468619246861924	1.004357298474946
2381.866455078125	-2.733432864302256	-4.656417743356912	7.679238723583072	136.2629560334515	26.47594838249609	19.88740099325893	-0.2345679012345679	-0.2468619246861924	1.004357298474946
2385.772705078125	-2.441172166559508	-4.723277262011422	7.638414314223734	135.179607055916	25.69717925645361	19.50225481143246	-0.2345679012345679	-0.2468619246861924	1.004357298474946
2389.678955078125	-2.953228315662409	-4.413740657149924	7.264932199137396	135.2324396920373	26.81816722061187	21.0228986533382	-0.2345679012345679	-0.2468619246861924	1.004357298474946
2393.585205078125	-2.790017573067272	-4.254282559252355	7.375547312468327	134.1566424606713	26.03962464695447	21.01511322760162	-0.2345679012345679	-0.2468619246861924	1.004357298474946
2397.491455078125	-2.839885108447946	-4.190531046814789	7.59035742485761	133.1110423516283	25.63512231532497	22.14314367598344	-0.2345679012345679	-0.2468619246861924	1.004357298474946
2401.397705078125	-2.789102146008575	-4.162739853382738	7.440739662638455	132.0427870040768	25.22994032654021	22.13909185609559	-0.2345679012345679	-0.2468619246861924	1.004357298474946
2405.303955078125	-2.898753332833991	-4.016747424813254	7.679266004521907	131.3281126734593	24.46223143990527	22.50877325779528	-0.2242798353909465	-0.1652719665271966	1.03921568627451
2409.210205078125	-2.727283538607748	-4.041485173906033	7.56863270389842	130.2825027020612	24.43086314076333	23.26317655593594	-0.2242798353909465	-0.1652719665271966	1.03921568627451
2413.116455078125	-2.705562859269125	-3.88961926024582	7.647150277081888	129.2142670792198	23.27941308700346	24.00637903653042	-0.2242798353909465	-0.1652719665271966	1.03921568627451
2417.022705078125	-3.028741954358566	-3.884296445957507	7.533073515734298	126.6713723181265	20.5911859456632	23.22477978398494	-0.2242798353909465	-0.1652719665271966	1.03921568627451
2420.928955078125	-2.582427815823068	-3.697327036852235	7.930723511413301	127.0551504573836	20.60269928984091	24.73432887969086	-0.2242798353909465	-0.1652719665271966	1.03921568627451
2424.835205078125	-2.90600703134876	-3.732016266189053	7.855046187084132	125.5956046738258	18.69324127454313	24.33787580897185	-0.2242798353909465	-0.1652719665271966	1.03921568627451
2428.741455078125	-2.766529695135206	-3.925696786247813	7.957868045554441	124.8960239731923	18.29911952516592	25.08865157261015	-0.2242798353909465	-0.1652719665271966	1.03921568627451
2432.647705078125	-2.561029455724759	-3.577693047223377	7.815707073283605	124.2039752940181	18.6514923931489	25.46953379185602	-0.2510288065843622	-0.09414225941422594	1.03921568627451
2436.553955078125	-2.660397749419545	-3.413512315691873	7.873427477428283	123.4666555872473	17.50996981687115	25.08076007552721	-0.2510288065843622	-0.09414225941422594	1.03921568627451
2440.460205078125	-2.873566963858142	-3.518312547430313	8.078176985818187	122.7670650242587	17.48898209998149	25.45790868892434	-0.2510288065843622	-0.09414225941422594	1.03921568627451
2444.366455078125	-2.883560881118146	-3.507603263329738	8.119016551254656	120.6003670691877	15.93144384789653	24.68761632527142	-0.2510288065843622	-0.09414225941422594	1.03921568627451
2448.272705078125	-2.882165511616976	-3.368066313212803	7.934088160536323	120.6456578214946	16.67907122718215	26.20452656132843	-0.2510288065843622	-0.09414225941422594	1.03921568627451
2452.178955078125	-2.500276825748793	-3.563036110232817	8.392805022190469	119.5698605901286	15.90052865352476	26.19674113559185	-0.2510288065843622	-0.09414225941422594	1.03921568627451
2456.085205078125	-3.022729033358234	-3.283004345924286	8.078349765097478	118.1404922041836	15.11137894522999	26.18884963850891	-0.2510288065843622	-0.09414225941422594	1.03921568627451
2459.991455078125	-2.910838788738037	-3.205090995015763	8.012657264382035	117.4484533873645	15.09061778072541	26.94335900799594	-0.2448559670781893	-0.04811715481171547	1.043572984749455
2463.897705078125	-3.100098786300333	-2.939171559326227	7.963454575584828	117.0949019574957	14.33374258111293	27.69050723713189	-0.2448559670781893	-0.04811715481171547	1.043572984749455
2467.803955078125	-3.041330592023351	-3.122958192234045	7.884145855175136	116.0191047261297	13.55520000745553	27.68272181139531	-0.2448559670781893	-0.04811715481171547	1.043572984749455
2471.710205078125	-3.080590894222798	-3.008584371774693	8.131896185600352	115.3044402578673	12.41435708833304	28.42603036333616	-0.2448559670781893	-0.04811715481171547	1.043572984749455
2475.616455078125	-3.139894603225066	-2.878349211395459	7.905491674206059	114.1909138827191	10.51527965528754	27.65232260787363	-0.2448559670781893	-0.04811715481171547	1.043572984749455
2479.522705078125	-3.055947112808228	-2.564408250519771	8.154351429477243	113.8599979666485	10.50535217780543	28.78429880479693	-0.2448559670781893	-0.04811715481171547	1.043572984749455
2483.428955078125	-3.037179847699814	-2.707883759880411	7.985749165044134	112.0544229123261	8.958647612742919	28.39147326858026	-0.2448559670781893	-0.04811715481171547	1.043572984749455
2487.335205078125	-3.024840780105115	-2.484078010511467	8.1687800149057	110.2639414879876	7.785530184938137	28.37974209430221	-0.2263374485596708	0.03347280334728033	1.043572984749455
2491.241455078125	-3.066856457126929	-2.645241672288814	8.129998644743583	108.4734502012941	6.985546789620913	27.994383769783	-0.2263374485596708	0.03347280334728033	1.043572984749455
2495.147705078125	-2.522736111246253	-2.778661629675786	7.997455719019911	107.427840229896	6.954178490478969	28.74878706792366	-0.2263374485596708	0.03347280334728033	1.043572984749455
2499.053955078125	-2.903540632397019	-2.475275360913939	8.281544259973769	105.26113241247	5.769774270881562	27.60486755402957	-0.2263374485596708	0.03347280334728033	1.043572984749455
2502.960205078125	-3.073613036311809	-2.310798580675814	8.227461314340466	103.8619414241377	6.100932869589804	27.98553763058269	-0.2613168724279836	0.06694560669456066	1.03921568627451
2506.866455078125	-2.792185902502108	-2.450913482534001	7.910138527454341	103.1623508611492	6.079945152700146	28.36268624397983	-0.2613168724279836	0.06694560669456066	1.03921568627451
2510.772705078125	-3.114232333427311	-2.332324251822021	8.01385762569079	101.3869433420845	6.026682927128206	27.98479513115808	-0.2613168724279836	0.06694560669456066	1.03921568627451
2514.678955078125	-2.810235779959668	-2.235699208087898	8.183345005028333	100.3262298783473	5.994861523216093	27.98447691711895	-0.257201646090535	0.100418410041841	1.054466230936819
2518.585205078125	-2.790150946546022	-2.247417886925379	8.061747798208474	98.87420625389385	5.205032157766069	26.84450315176634	-0.257201646090535	0.100418410041841	1.054466230936819
2522.491455078125	-2.769547775294505	-2.207302781975759	8.074060595269481	98.16706394473577	5.183817888491327	26.84429100907359	-0.257201646090535	0.100418410041841	1.054466230936819
2526.397705078125	-3.011228602031434	-2.132961213244379	7.954148744226559	97.44482800559375	4.789016481958858	26.46298450444223	-0.257201646090535	0.100418410041841	1.054466230936819
2530.303955078125	-2.929815207710855	-2.072429861994521	8.109504597247408	96.3690209118727	4.383607940789017	26.08157192846449	-0.2695473251028807	0.1359832635983264	1.047930283224401
2534.210205078125	-2.727644253243459	-2.057354617275154	8.00116895791694	95.30829758578052	4.724920569364461	25.70762656418421	-0.2695473251028807	0.1359832635983264	1.047930283224401
2538.116455078125	-2.845806082580352	-1.752325429752335	7.964733748494662	94.58606164663851	4.330119162831992	25.32632005955285	-0.2695473251028807	0.1359832635983264	1.047930283224401
2542.022705078125	-2.604124245438281	-1.826565957969511	8.094751671768355	93.88647108364992	4.309131445942334	25.70346867294999	-0.2510288065843622	0.1548117154811715	1.058823529411765
2545.928955078125	-2.403634605127254	-1.979622128887058	8.341629012150841	92.10354140548095	3.136240570522638	26.06909825476183	-0.2510288065843622	0.1548117154811715	1.058823529411765
2549.835205078125	-2.775905244448277	-1.832948687251833	8.12301775561717	92.06578267463345	3.135107808597213	24.18229447431239	-0.2510288065843622	0.1548117154811715	1.058823529411765
2553.741455078125	-2.11088689210604	-1.997780119694817	8.121426367518442	91.33599498932196	2.740079849679659	23.42362721359114	-0.2510288065843622	0.1548117154811715	1.058823529411765
2557.647705078125	-2.7000763593478	-1.320767247911319	7.977667944718028	91.35863050312031	3.487027571810028	23.80845518137848	-0.2654320987654321	0.1799163179916318	1.03921568627451
2561.553955078125	-2.660574570319404	-1.410992385475705	8.125066857245244	90.28280368468913	3.827887095615301	22.67978830491842	-0.2654320987654321	0.1799163179916318	1.03921568627451
2565.460205078125	-2.409113021807443	-1.517362786804889	8.091959922360875	89.58320325934547	4.180033411213199	22.6833097680744	-0.2654320987654321	0.1799163179916318	1.03921568627451
2569.366455078125	-2.509395732155784	-1.444623720628799	8.094594048566195	88.52247993325329	4.521346039788644	22.30936440379411	-0.2510288065843622	0.205020920502092	1.041394335511983
2573.272705078125	-2.626828048980117	-1.06664328185006	8.284035919054061	87.46929849097552	5.236019253236729	21.93915264536256	-0.2510288065843622	0.205020920502092	1.041394335511983
2577.178955078125	-2.840566121513687	-1.228329323085845	7.849571812024512	87.12326922021091	5.598772703471999	21.94278017986491	-0.2510288065843622	0.205020920502092	1.041394335511983
2581.085205078125	-2.576268386077139	-1.061182042057286	7.921178214036366	84.96409342424425	5.160863101234791	20.42896712157839	-0.2510288065843622	0.205020920502092	1.041394335511983
2584.991455078125	-2.635859050139749	-0.9596423877122369	7.854952219405921	84.62561589964915	5.523843103855147	20.80995541217063	-0.2489711934156379	0.2154811715481171	1.021786492374728
2588.897705078125	-2.4937506189363	-0.890213408781498	8.011359904179644	83.91847359049106	5.502628834580404	20.80974326947788	-0.2489711934156379	0.2154811715481171	1.021786492374728
2592.803955078125	-2.836424470836429	-0.8141642553600554	7.860220471816564	82.8652921482133	6.217302048028489	20.43953151104633	-0.2489711934156379	0.2154811715481171	1.021786492374728
2596.710205078125	-2.442658472523462	-0.8315038180027544	7.923897214273619	82.16569172286965	6.569448363626389	20.4430529742023	-0.2674897119341564	0.2405857740585774	1.0239651416122
2600.616455078125	-2.79490894435993	-0.703015648114123	7.947001138251706	81.12007188911646	6.911214096972002	20.8238291221018	-0.2674897119341564	0.2405857740585774	1.0239651416122
2604.522705078125	-2.63273790865596	-0.6475282393333728	7.759478027128591	80.04425493304035	6.878939588289718	20.0687893958829	-0.2674897119341564	0.2405857740585774	1.0239651416122
2608.428955078125	-2.790237841388238	-0.2359053509449779	8.202726596463112	77.87754711561433	5.694535368692311	18.92486988198881	-0.2674897119341564	0.2405857740585774	1.0239651416122
2612.335205078125	-2.649494467531697	-0.3029821067050273	7.837143828777312	76.83946916567557	6.409661686910566	19.30937963573703	-0.2469135802469136	0.2635983263598326	1.0239651416122
2616.241455078125	-2.928925040780709	0.0367888512219956	7.922045141648243	75.8013912157368	7.124788005128821	19.69388938948525	-0.2469135802469136	0.2635983263598326	1.0239651416122
2620.147705078125	-2.468110578051671	-0.3464113405205674	7.897392266587396	73.6422351444803	5.940610337916499	18.92733063168105	-0.2469135802469136	0.2635983263598326	1.0239651416122
2624.053955078125	-2.708562752135868	-0.1492045065160573	7.94525212695082	72.24302443143792	7.018037001599854	18.56074640775185	-0.2469135802469136	0.2907949790794979	1.006535947712418
2627.960205078125	-2.618290125529805	-0.2128509368188512	7.821760410489619	71.20493661914409	8.106297352305667	18.57162901125891	-0.2469135802469136	0.2907949790794979	1.006535947712418
2631.866455078125	-2.659003390323518	-0.2437733757861117	7.678393014479178	69.79064213847286	8.43700284624374	18.19757757563225	-0.2469135802469136	0.2907949790794979	1.006535947712418
2635.772705078125	-2.818257386382392	-0.007556820057382719	7.749217362911086	67.66920534864356	8.746494070907069	17.82331399731284	-0.2469135802469136	0.2907949790794979	1.006535947712418
2639.678955078125	-2.587170657559845	-0.1312071701258847	7.967567934918109	66.27000449795625	9.450786702102867	17.83035692362481	-0.2613168724279836	0.301255230125523	1.015250544662309
2643.585205078125	-2.777159157229559	0.06186205482193576	7.70259423844153	64.13347407814302	9.386690789508471	17.07499898336678	-0.2613168724279836	0.301255230125523	1.015250544662309
2647.491455078125	-2.505704722171879	-0.06542171213737356	7.63833853383808	62.69655394602851	8.597314528828615	16.68974673019395	-0.2613168724279836	0.301255230125523	1.015250544662309
2651.397705078125	-2.703638037473522	0.3432669597185117	7.707298684782908	61.32754035530907	10.04878143453987	17.45897838038314	-0.2448559670781893	0.3200836820083682	1.006535947712418
2655.303955078125	-2.714847472119411	0.2324245052306199	7.711745477813065	59.90571385317848	9.632992311117743	17.45482048914891	-0.2448559670781893	0.3200836820083682	1.006535947712418
2659.210205078125	-2.521544843583778	0.3707681668747951	7.791302757887701	58.49897111867676	9.9639243574409	17.45812980961215	-0.2448559670781893	0.3200836820083682	1.006535947712418
2663.116455078125	-2.787856316468429	0.002247141035916448	7.780314601967921	57.03938588569867	9.547002472093348	15.56716813792848	-0.2448559670781893	0.3200836820083682	1.006535947712418
2667.022705078125	-2.816542728856335	0.163908932548293	7.7275047668136	56.73863750488584	11.0305173341018	16.71407875824668	-0.2674897119341564	0.3493723849372385	1.006535947712418
2670.928955078125	-2.847876402716409	0.06084457684389265	7.459411949663517	54.58701345508868	10.59283428424968	15.57762645605004	-0.2674897119341564	0.3493723849372385	1.006535947712418
2674.835205078125	-2.522267283260343	0.2985241992183083	7.63616818359296	53.54137389662535	11.6808680825704	15.21114830346722	-0.2674897119341564	0.3493723849372385	1.006535947712418
2678.741455078125	-2.730895736990572	0.6478000383165839	7.803060842525722	53.18025099587682	11.67003439554795	14.83368147603095	-0.2489711934156379	0.3744769874476987	1.006535947712418
2682.647705078125	-2.622246872066068	0.401575419655862	7.64032094872678	52.51837971431544	13.14271557053394	15.60312526891289	-0.2489711934156379	0.3744769874476987	1.006535947712418
2686.553955078125	-2.69957317758706	0.7497529483647306	7.959986865137317	51.10407537128914	13.84655509695957	14.85544668304507	-0.2489711934156379	0.3744769874476987	1.006535947712418
2690.460205078125	-2.58164980386369	0.4208781994895616	7.631591048299478	49.70486465824676	14.92398176064293	14.48886245911586	-0.2489711934156379	0.3744769874476987	1.006535947712418
2694.366455078125	-2.803585293314702	0.4495514766106216	8.034845761301426	48.66677684595293	16.01224211134874	14.49974506262292	-0.2489711934156379	0.3598326359832636	1.004357298474946
2698.272705078125	-2.812385922101947	0.5795896079871558	7.889744510067229	46.5226946799702	15.94791964636926	13.36702636627501	-0.2489711934156379	0.3598326359832636	1.004357298474946
2702.178955078125	-2.804798789890302	0.3282018190505646	8.018665133356658	46.91398511597645	17.45219567288228	13.75942761710618	-0.2489711934156379	0.3598326359832636	1.004357298474946
2706.085205078125	-2.601512348146085	0.4548257914521161	7.956322125687106	45.84571004371476	17.79328174907264	13.00812149673601	-0.2736625514403292	0.3807531380753138	1.002178649237473
2709.991455078125	-2.683913918695588	0.2954768173098891	8.01823773198157	45.14608989366096	18.89169612964565	12.26438865940966	-0.2736625514403292	0.3807531380753138	1.002178649237473
2713.897705078125	-2.719973257405024	0.7299469867702907	7.958792566259415	44.83777990432357	20.74811847175657	12.66031137339681	-0.2736625514403292	0.3807531380753138	1.002178649237473
2717.803955078125	-2.791839333538385	0.6140464441413028	8.346218272306025	43.40084004749891	20.70501027605183	11.52780481974165	-0.2736625514403292	0.3807531380753138	1.002178649237473
2721.710205078125	-2.88131374008223	0.7575148806659492	8.372698970268841	43.42346569894219	21.82509203066976	11.53900563728783	-0.2530864197530864	0.4100418410041841	0.9847494553376908
2725.616455078125	-2.588975241143544	0.6984354816052158	8.099941112577918	42.72385541124347	22.55037237875522	11.16889995020265	-0.2530864197530864	0.4100418410041841	0.9847494553376908
2729.522705078125	-2.901839110137808	0.7251798953101047	8.128452724876249	41.62541280372407	21.39801611545501	10.40265940643757	-0.2530864197530864	0.4100418410041841	0.9847494553376908
2733.428955078125	-2.860706527210145	0.798034147672389	8.425436056252934	41.32464469820109	23.62779904243857	10.80231572627344	-0.2757201646090535	0.4100418410041841	0.9869281045751634
2737.335205078125	-2.902213970445509	0.6876938645400955	8.419503967663966	39.52659180298298	23.20072312722382	9.665969495423182	-0.2757201646090535	0.4100418410041841	0.9869281045751634
2741.241455078125	-2.758822324711657	0.8854442965110277	8.279310254204699	39.17302064840393	23.19011599258645	9.665863424076809	-0.2757201646090535	0.4100418410041841	0.9869281045751634
2745.147705078125	-3.042087385474745	0.8417665030305437	8.395505835135165	38.82699137763932	23.55286944282172	9.669490958579161	-0.2757201646090535	0.4100418410041841	0.9869281045751634
2749.053955078125	-3.065331755767577	0.5375314939493758	8.228546489463026	38.46587833924585	23.1689017233117	9.665651281384061	-0.2654320987654321	0.4184100418410042	0.9847494553376908
2752.960205078125	-3.062880512892967	0.7826557814104067	8.503453478891087	37.06667748855856	23.8731943545075	9.672694207696019	-0.2654320987654321	0.4184100418410042	0.9847494553376908
2756.866455078125	-3.406651664777361	0.7489749364053531	8.488230715020981	34.51621125658565	21.93100872575727	7.766479898578328	-0.2654320987654321	0.4184100418410042	0.9847494553376908
2760.772705078125	-3.385241179817348	0.8698214122046697	8.494487143660546	34.90752141730204	22.68901668729518	8.906135449891821	-0.2674897119341564	0.4330543933054393	0.9673202614379086
2764.678955078125	-3.507364807716214	0.7786707435301664	8.226082111321571	33.82417243976658	21.9102475612527	8.520989268065359	-0.2674897119341564	0.4330543933054393	0.9673202614379086
2768.585205078125	-3.24426743358842	0.8257818936833323	8.412886824388687	32.0185875230891	20.73667702867775	7.754536581607533	-0.2674897119341564	0.4330543933054393	0.9673202614379086
2772.491455078125	-3.556324999279329	0.9331566377237127	8.425235996034807	30.58921913714409	19.94752732038298	7.746645084524586	-0.2674897119341564	0.4330543933054393	0.9673202614379086
2776.397705078125	-3.57691099364343	0.8947592215155754	8.584726426896921	27.38445309448946	18.73198135402872	7.734489624861043	-0.2757201646090535	0.4393305439330544	0.9891067538126362
2780.303955078125	-3.54540656131435	1.0148994241206	8.540543430845412	28.79119582899119	18.40104930770556	7.731180304397811	-0.2757201646090535	0.4393305439330544	0.9891067538126362
2784.210205078125	-3.456966809635964	0.7679655010501596	8.266454869582413	27.71539859762521	17.62250673404816	7.723394878661237	-0.2757201646090535	0.4393305439330544	0.9891067538126362
2788.116455078125	-3.858553343748388	1.013352493848123	8.769657848830681	26.27850805257592	15.71372837590564	8.459024076211888	-0.2880658436213992	0.4393305439330544	0.9760348583877997
2792.022705078125	-3.095777283507791	1.533382760332072	8.762883082353245	25.92493689799688	15.70312124126827	8.458918004865513	-0.2880658436213992	0.4393305439330544	0.9760348583877997
2795.928955078125	-3.664161498469626	1.260617829805156	8.632449882566169	25.20272068356502	14.56205176976068	8.824865800716475	-0.2880658436213992	0.4393305439330544	0.9760348583877997
2799.835205078125	-3.504590235196148	1.056127995536758	8.704629184293564	23.38204213690362	13.01489409992801	7.677318752320035	-0.2880658436213992	0.4393305439330544	0.9760348583877997
2803.741455078125	-3.563163421280715	1.259415447686117	8.714207825040187	22.66737766864125	11.87405118080551	8.420627304260886	-0.2983539094650206	0.4372384937238493	0.9694989106753814
2807.647705078125	-3.525504611231415	0.9848924122120356	8.609949170457885	21.59913218344479	11.0957351595332	8.7902026346142	-0.2983539094650206	0.4372384937238493	0.9694989106753814
2811.553955078125	-3.644755657311437	1.180999925421997	8.790279207374754	20.86180261431886	10.327346615743	8.027801768044224	-0.2983539094650206	0.4372384937238493	0.9694989106753814
2815.460205078125	-3.544183971092471	1.137158446308501	8.647678708867128	20.1320346537175	9.18605059185033	8.016388807805296	-0.2962962962962963	0.4560669456066945	0.9694989106753814
2819.366455078125	-2.949311985331827	1.028397426413229	9.062330791871386	19.79355712912238	9.549030594470688	8.397377098397538	-0.2962962962962963	0.4560669456066945	0.9694989106753814
2823.272705078125	-3.634853686919359	1.161095954528778	8.839888079039065	18.34155322937902	8.012933164045551	8.004657633527248	-0.2962962962962963	0.4560669456066945	0.9694989106753814
2827.178955078125	-3.486210965662281	0.8738529287214443	8.695699223648138	17.98798207479998	8.002326029408179	8.004551562180875	-0.2962962962962963	0.4560669456066945	0.9694989106753814
2831.085205078125	-3.400461922877171	1.367949126424428	8.781867584567198	16.5661555726694	7.586536905986052	8.000393670946654	-0.2962962962962963	0.4623430962343096	0.9542483660130719
2834.991455078125	-3.22201528114508	1.030795117815311	8.756693340453053	16.205052396631	6.829435153988482	8.370181143992715	-0.2962962962962963	0.4623430962343096	0.9542483660130719
2838.897705078125	-3.465020749023235	0.9726725724240978	8.519033926181478	15.15189067906338	6.797840302461454	8.747223686043483	-0.2962962962962963	0.4623430962343096	0.9542483660130719
2842.803955078125	-3.616417834697538	0.9844791565089377	8.386797153215847	14.42212271846203	5.656544278568787	8.735810725804557	-0.2962962962962963	0.4623430962343096	0.9542483660130719
2846.710205078125	-3.506839397042349	0.8312118109167023	8.430734620817837	13.71498040930395	5.635330009294044	8.735598583111809	-0.2962962962962963	0.4623430962343096	0.9542483660130719
2850.616455078125	-3.495244998037339	0.9805507013166521	8.236297307307682	14.09119694003641	6.019750833574227	9.494159772486686	-0.2962962962962963	0.4623430962343096	0.9542483660130719
2854.522705078125	-3.456863748311474	0.7782716334990571	8.287173227020123	12.27806027718944	4.84595374861419	8.350346329938972	-0.2962962962962963	0.4623430962343096	0.9542483660130719
2858.428955078125	-3.466467649186648	0.8279825560827144	8.188552633130453	13.39159651469276	6.371897149172127	9.497681235642666	-0.2921810699588477	0.4728033472803347	0.9564270152505447
2862.335205078125	-3.596533061502018	0.9527544558588905	8.284399664905198	11.95466652022318	5.95565492097983	8.738801832228667	-0.2921810699588477	0.4728033472803347	0.9564270152505447
2866.241455078125	-3.603894873366984	1.226674279463169	8.388931128875853	10.90150480265556	5.924060069452802	9.115844374279435	-0.2921810699588477	0.4728033472803347	0.9564270152505447
2870.147705078125	-3.284188540750766	0.874075217852695	8.111871976495229	10.92414031645392	6.67100779158317	9.500672342066776	-0.2921810699588477	0.4728033472803347	0.9564270152505447
2874.053955078125	-3.525727910767808	0.9625624585727579	8.396709227659345	11.97729217166646	7.075736675597756	8.750002649774846	-0.2921810699588477	0.4728033472803347	0.9564270152505447
2877.960205078125	-3.486154382974326	0.8795111975169175	8.251538258470346	10.59319481331816	7.780482411563725	9.511767088266581	-0.2921810699588477	0.4728033472803347	0.9564270152505447
2881.866455078125	-3.73761290027086	0.9861847203887161	8.314963410047032	10.57808145862409	8.153163339281111	8.383418425845642	-0.2921810699588477	0.4728033472803347	0.9564270152505447
2885.772705078125	-3.38574537198323	0.8194021956164362	8.502062151010486	10.93918463466248	8.91026509127868	8.013630952799581	-0.2962962962962963	0.4832635983263598	0.9455337690631809
2889.678955078125	-3.605709561002104	1.045205515951211	8.420243584227945	11.28519418071695	9.293779706018524	7.262749117814903	-0.2962962962962963	0.4832635983263598	0.9455337690631809
2893.585205078125	-3.526831273182925	0.8522262170610325	8.471989462767688	10.5553867706953	9.645019812076084	5.756827556611327	-0.2962962962962963	0.4832635983263598	0.9455337690631809
2897.491455078125	-3.583981808827488	1.197778713210859	8.569503663026815	9.810505455399873	8.876404715900801	4.617065933951461	-0.2962962962962963	0.4832635983263598	0.9455337690631809
2901.397705078125	-3.736370101946141	1.110464552860714	8.624220132684181	10.17162835614841	8.887238402923257	4.994532761387724	-0.2962962962962963	0.4832635983263598	0.9455337690631809
2905.303955078125	-3.745839618937422	1.17361386383362	8.859606135386146	10.12634746619663	7.766476991150078	3.851249675571879	-0.2962962962962963	0.4832635983263598	0.9455337690631809
2909.210205078125	-3.753743007958527	1.393375971824085	8.597787934168187	8.320762549519154	6.592906458575126	3.084796989114053	-0.2962962962962963	0.4832635983263598	0.9455337690631809
2913.116455078125	-3.583071433794502	1.288816216509452	8.584165652043085	8.313220665704726	6.219545873702485	3.081063383265327	-0.3045267489711934	0.4790794979079497	0.9520697167755993
2917.022705078125	-3.746264999502225	1.131075807353367	8.645353766635274	8.290595014261445	5.099464119084559	3.069862565719148	-0.3045267489711934	0.4790794979079497	0.9520697167755993
2920.928955078125	-3.42096304320934	1.3380391134095	8.78016707271313	6.815945738364655	3.189552999016612	1.918687982820355	-0.3045267489711934	0.4790794979079497	0.9520697167755993
2924.835205078125	-3.743927932408666	1.364782516709247	8.788375604087134	6.101271407747222	2.42184411238167	2.288369384520043	-0.3045267489711934	0.4790794979079497	0.9520697167755993
2928.741455078125	-3.795548520710795	1.253228737001353	8.640867567804577	6.432216910882979	1.312369492401116	2.277274638320238	-0.3045267489711934	0.4790794979079497	0.9520697167755993
2932.647705078125	-3.58195594651768	1.400364944191636	8.630158283704002	7.139369082396128	0.9604497291883018	2.651113931254147	-0.3045267489711934	0.4790794979079497	0.9520697167755993
2936.553955078125	-3.540861758985415	1.469379657014135	8.543110870311359	6.379403999471843	-0.5548865367322626	1.503885096896828	-0.3045267489711934	0.4790794979079497	0.9520697167755993
2940.460205078125	-3.763126640512734	1.465113726504406	8.682089066384741	6.717891386422027	-1.291000571840175	1.496523956545749	-0.2839506172839507	0.4874476987447698	0.9389978213507626
2944.366455078125	-3.700297627969858	1.687408920185986	8.81504423740637	5.988113563465595	-2.059162563245286	1.11148384606566	-0.2839506172839507	0.4874476987447698	0.9389978213507626
2948.272705078125	-3.483785993321364	1.116350162813148	8.707848335076132	4.867045304502915	-4.33160058116342	0.3340424847544036	-0.2839506172839507	0.4874476987447698	0.9389978213507626
2952.178955078125	-3.59185387528919	1.420673077141674	8.620973700962779	4.859503420688488	-4.704961166036062	0.3303088789056772	-0.2839506172839507	0.4874476987447698	0.9389978213507626
2956.085205078125	-3.512372375600207	1.288014965231808	8.645438640667205	4.498390382295022	-5.088928885546075	0.326469201710577	-0.2839506172839507	0.4874476987447698	0.9389978213507626
2959.991455078125	-3.633653325610605	1.281132085404172	8.724689767983801	4.129725597732055	-5.473123157441173	-0.05473123157441173	-0.2839506172839507	0.4874476987447698	0.9389978213507626
2963.897705078125	-3.440674026720427	1.387142782502786	8.600606964514503	3.76861255933859	-5.857090876951186	-0.05857090876951185	-0.2839506172839507	0.4874476987447698	0.9389978213507626
2967.803955078125	-3.592069091584446	1.399151447616036	8.488582336010413	3.069021996350012	-5.878078593840844	0.3185777046276294	-0.2901234567901235	0.4790794979079497	0.9302832244008715
2971.710205078125	-3.300802632501474	1.232868062983928	8.604392952581758	3.069021996350012	-5.878078593840844	0.3185777046276294	-0.2901234567901235	0.4790794979079497	0.9302832244008715
2975.616455078125	-3.56297851713972	1.27790586178561	8.5434170230694	2.361889549547005	-6.272426895603142	0.6919927121760441	-0.2901234567901235	0.4790794979079497	0.9302832244008715
2979.522705078125	-3.840108397880288	0.8376450604561269	8.407521573084409	0.8872304112951428	-7.809203983183534	-0.8328090209639109	-0.2901234567901235	0.4790794979079497	0.9302832244008715
2983.428955078125	-3.606183441013725	0.9978175147891235	8.731000758501038	2.008318394967967	-6.283034030240514	0.6918866408296704	-0.308641975308642	0.4769874476987447	0.9411764705882354
2987.335205078125	-3.687926227410613	0.9043469559084761	8.311368388551623	1.624559980421075	-7.040815439393338	-0.07040815439393337	-0.308641975308642	0.4769874476987447	0.9411764705882354
2991.241455078125	-3.565008421070096	1.074915468748012	8.442338113469125	1.263437079672536	-7.051649126415795	-0.4478749818301957	-0.308641975308642	0.4769874476987447	0.9411764705882354
2995.147705078125	-3.47432961159693	1.051887325155579	8.341083393374134	1.99322476498404	-6.656621167498241	0.3107922788910554	-0.3045267489711934	0.4937238493723849	0.9389978213507626
2999.053955078125	-3.474751960946306	1.009652390217941	8.157149241315576	0.5562947705144583	-7.072863395690536	-0.4480871245229431	-0.3045267489711934	0.4937238493723849	0.9389978213507626
3002.960205078125	-3.575531790624534	1.032679523405232	8.23810088048624	0.5789302843128126	-6.325915673560168	-0.06325915673560167	-0.3045267489711934	0.4937238493723849	0.9389978213507626
3006.866455078125	-3.748797074788199	0.8778682787559461	8.572062008846482	-1.241758124703662	-7.499939310905289	-1.584433355373204	-0.3045267489711934	0.4937238493723849	0.9389978213507626
3010.772705078125	-3.382314036120833	1.162535781856198	8.478849103277058	-0.4742412956098767	-5.984376492599639	-0.0598437649259964	-0.2942386831275721	0.506276150627615	0.9455337690631809
3014.678955078125	-3.353615498871221	1.002086476514279	8.652931805200639	-1.173841720953527	-5.63223017700174	-0.0563223017700174	-0.2942386831275721	0.506276150627615	0.9455337690631809
3018.585205078125	-3.512673476332538	1.257904891998755	8.664132146200251	-1.896077660095532	-6.027031583534209	-0.4376288064013799	-0.2942386831275721	0.506276150627615	0.9455337690631809
3022.491455078125	-3.365542321167965	0.8195052569409252	8.552774385089913	-1.888535776281104	-5.653670998661568	-0.4338952005526535	-0.308641975308642	0.502092050209205	0.9324618736383443
3026.397705078125	-3.291725152705308	1.13051503249953	8.488254964744389	-1.850806632498823	-4.533136139273473	0.332027129173303	-0.308641975308642	0.502092050209205	0.9324618736383443
3030.303955078125	-3.241859638134918	1.066561439033553	8.253232707893563	-1.858358378668323	-4.533362691658557	-0.04533362691658557	-0.308641975308642	0.502092050209205	0.9324618736383443
3034.210205078125	-3.314872524104503	0.8359799127820304	8.28137754312533	-1.489703456460429	-3.776034387275903	-0.03776034387275903	-0.308641975308642	0.502092050209205	0.9324618736383443
3038.116455078125	-3.323410447554815	0.9922885778518327	8.743653051689773	-1.858378103378467	-3.787094626683444	-0.7925879273989099	-0.2860082304526749	0.4874476987447698	0.9520697167755993
3042.022705078125	-2.898162245825893	1.092866326501651	8.54081320901834	-1.45953592120272	-2.282592047785335	-0.02282592047785335	-0.2860082304526749	0.4874476987447698	0.9520697167755993
3045.928955078125	-3.232448724641875	0.9975517782367646	8.441795525907844	-1.090880998994826	-1.525263743402681	-0.01525263743402681	-0.2860082304526749	0.4874476987447698	0.9520697167755993
3049.835205078125	-3.022184424986669	0.8118605316361843	8.475017646978408	-1.060693739026972	-0.7780894688872271	0.7469360864432033	-0.2942386831275721	0.4874476987447698	0.9346405228758171
3053.741455078125	-3.341217827778283	1.231752575707106	8.412013834345958	-1.075816956076115	-0.03227450868228347	-0.7550397262188984	-0.2942386831275721	0.4874476987447698	0.9346405228758171
3057.647705078125	-3.263040761127686	0.9686511599587437	8.520852655437167	-0.3234134816764015	1.855969237340753	-0.3587987981926302	-0.2942386831275721	0.4874476987447698	0.9346405228758171
3061.553955078125	-3.291527113297467	1.150318973283686	8.448843101773635	-1.053201166987905	1.460941278423199	-1.117466058913881	-0.2942386831275721	0.4874476987447698	0.9346405228758171
3065.460205078125	-3.505511724685697	0.9639790465819102	8.578800400738805	-0.3158913225721184	2.975597887188508	-1.102319492826228	-0.2880658436213992	0.4999999999999999	0.9411764705882354
3069.366455078125	-3.324142991282801	0.9190342050532969	8.487457755087313	-1.414343792446588	2.196375656375856	-2.242187186832468	-0.2880658436213992	0.4999999999999999	0.9411764705882354
3073.272705078125	-3.413210204554399	1.103221968802509	8.546281521647108	-0.6694723395062293	3.338124785038694	-1.476052714413764	-0.2880658436213992	0.4999999999999999	0.9411764705882354
3077.178955078125	-3.545681391512987	0.9874164042568735	8.821994814378524	-0.3309948149111173	2.975144782418338	-1.857041005006006	-0.2798353909465021	0.4874476987447698	0.9520697167755993
3081.085205078125	-3.66641268112611	1.03549956415669	8.338343174628898	-1.414343792446588	2.196375656375856	-2.242187186832468	-0.2798353909465021	0.4874476987447698	0.9520697167755993
3084.991455078125	-3.544483051014518	1.107250454103857	8.686584358861715	-1.421885676261015	1.823015071503214	-2.245920792681194	-0.2798353909465021	0.4874476987447698	0.9520697167755993
3088.897705078125	-3.543987952494914	1.156760306064247	8.58805470143483	-1.068314521681976	1.833622206140586	-2.245814721334821	-0.2798353909465021	0.4874476987447698	0.9520697167755993
3092.803955078125	-3.605973276744179	1.018833941743738	8.812861762299544	-1.421875813905943	1.449881039015658	-1.872293642440032	-0.2901234567901235	0.4958158995815899	0.9368191721132898
3096.710205078125	-3.705550724303369	1.162099286834833	8.798827234876487	-2.13656986923352	1.42844021735583	-2.249866541222668	-0.2901234567901235	0.4958158995815899	0.9368191721132898
3100.616455078125	-3.524565944854452	1.078759049908366	8.907581181935765	-2.151663499217447	1.054853080098104	-2.630960903161284	-0.2901234567901235	0.4958158995815899	0.9368191721132898
3104.522705078125	-3.383279983436631	1.065941050276335	8.918454151669351	-2.159205383031874	0.6814924952254616	-2.63469450901001	-0.2942386831275721	0.502092050209205	0.9520697167755993
3108.428955078125	-3.524759942641726	1.05935927118103	8.987417333829605	-2.87388957600438	0.2869176410780775	-2.638640257551484	-0.2942386831275721	0.502092050209205	0.9520697167755993
3112.335205078125	-3.402870728735815	1.127068540560002	8.931415628831552	-3.257647990551273	-0.4708637680747472	-3.400935052775087	-0.2942386831275721	0.502092050209205	0.9520697167755993
3116.241455078125	-3.475195528803665	0.9652956044819998	8.771088582511823	-3.618761028944739	-0.85483148758476	-3.404774729970188	-0.2942386831275721	0.502092050209205	0.9520697167755993
3120.147705078125	-3.3236984130203	0.9634920313034427	8.893725496222849	-4.303267824304462	-0.1290980347291339	-3.020158904875593	-0.2839506172839507	0.4895397489539748	0.9542483660130719
3124.053955078125	-3.594869934638206	1.119067142240117	8.757378395139362	-3.596125515146385	-0.1078837654543915	-3.019946762182846	-0.2839506172839507	0.4895397489539748	0.9542483660130719
3127.960205078125	-3.29247083170014	1.055947133016331	9.110781739242908	-3.596135377501457	0.2652502670331652	-3.393573912424008	-0.2839506172839507	0.4895397489539748	0.9542483660130719
3131.866455078125	-3.423481983228467	1.086145111496743	8.838254253924372	-3.573499863703103	1.012197989163534	-3.008745944636667	-0.2839506172839507	0.50418410041841	0.9389978213507626
3135.772705078125	-3.425293639648161	0.9049794695273987	8.899884925968779	-4.265558405232325	1.737704889634075	-3.001490875631962	-0.2839506172839507	0.50418410041841	0.9389978213507626
3139.678955078125	-3.383791248438508	1.014814550088668	8.855286653403889	-4.25047463760347	2.484426059379358	-2.994023663934509	-0.2839506172839507	0.50418410041841	0.9389978213507626
3143.585205078125	-3.477903414584356	0.6945070264129303	8.959542276770764	-4.980272185270047	2.462532132949362	-4.126318074896922	-0.2839506172839507	0.50418410041841	0.9389978213507626
3147.491455078125	-3.264510900609367	0.8216372117906481	8.968032711179399	-4.588971886908726	3.593674126974828	-3.360289673824592	-0.2757201646090535	0.4832635983263598	0.9368191721132898
3151.397705078125	-3.505087354526036	1.006416062547958	8.782946697258907	-4.227868710870332	4.350775878972398	-3.730077146870654	-0.2757201646090535	0.4832635983263598	0.9368191721132898
3155.303955078125	-3.342871860995817	1.066349253953723	9.040090764289749	-4.950114512367409	4.329108504927485	-4.485010801743178	-0.2757201646090535	0.4832635983263598	0.9368191721132898
3159.210205078125	-3.568383174244539	0.7374401513037244	9.031491206125773	-4.205262784137195	6.217125698565437	-4.466130629806798	-0.2901234567901235	0.506276150627615	0.9433551198257082
3163.116455078125	-3.413159684297297	1.108273994512753	9.051585133185696	-4.889789304207063	7.689127216396177	-4.828769105194529	-0.2901234567901235	0.506276150627615	0.9433551198257082
3167.022705078125	-3.543916213729828	1.163934182572793	9.305585829819625	-4.874725261288352	9.182116451116574	-5.568556193979401	-0.2901234567901235	0.506276150627615	0.9433551198257082
3170.928955078125	-3.442654420798843	1.189103374661228	8.994725594222045	-5.566803527527719	10.65389141656223	-6.30855542545702	-0.2901234567901235	0.506276150627615	0.9433551198257082
3174.835205078125	-3.605829799214008	1.03318169476083	9.237823008968125	-5.566833114592936	11.7732935140249	-7.429436876180507	-0.2839506172839507	0.4937238493723849	0.9477124183006537
3178.741455078125	-3.806924672205122	1.125714597669656	8.998014462959413	-6.281537032275585	12.12498672485263	-8.180636925204304	-0.2839506172839507	0.4937238493723849	0.9477124183006537
3182.647705078125	-3.522299606120836	1.305392923269905	9.353278973334612	-5.574394723117507	12.14620099412737	-8.180424782511556	-0.2839506172839507	0.4937238493723849	0.9477124183006537
3186.553955078125	-3.441824878177221	1.272057636823432	9.211002814877583	-6.274014873171302	13.24461537470038	-8.924157619837903	-0.2921810699588477	0.4769874476987447	0.9542483660130719
3190.460205078125	-3.714471591302518	1.280113597020986	9.47130540838247	-6.311744016953583	12.12408051531229	-9.690079949563859	-0.2921810699588477	0.4769874476987447	0.9542483660130719
3194.366455078125	-3.420504319274849	1.383911506858514	9.327919825079471	-5.581976056352223	13.26537653920496	-9.678666989324933	-0.2921810699588477	0.4769874476987447	0.9542483660130719
3198.272705078125	-3.943001995115682	1.659396448027826	9.568792327702761	-7.003812420837878	13.22272144827039	-10.05645203080032	-0.2921810699588477	0.4769874476987447	0.9542483660130719
3202.178955078125	-3.844965415398116	1.362044318774295	9.322581854714027	-5.589527802521722	13.26514998681987	-10.05602774541482	-0.308641975308642	0.4895397489539748	0.9694989106753814
3206.085205078125	-4.148736648519083	1.287951309707859	9.386546562636568	-5.619715062489576	12.51797571230442	-10.81821646929205	-0.308641975308642	0.4895397489539748	0.9694989106753814
3209.991455078125	-3.934754057941138	1.474089155381225	9.236377119209854	-5.664976227731213	10.65094623555613	-11.21424525462557	-0.308641975308642	0.4895397489539748	0.9694989106753814
3213.897705078125	-4.041737775191545	1.886828541451584	9.892307887704504	-4.942730426234136	10.67261360960104	-10.45931159975305	-0.3045267489711934	0.4769874476987447	0.9586056644880175
3217.803955078125	-3.983320191498854	1.667980850114673	9.336495133520039	-5.687601879174495	9.530864480938199	-11.22544607217175	-0.3045267489711934	0.4769874476987447	0.9586056644880175
3221.710205078125	-4.033491858827285	1.701319167776572	9.539680534750053	-5.740395065875486	6.917340386829705	-11.25158131311284	-0.3045267489711934	0.4769874476987447	0.9586056644880175
3225.616455078125	-4.004419471675115	1.578254852690458	9.412605921655146	-5.725301435891559	7.290927524087432	-10.87048695117422	-0.3045267489711934	0.4769874476987447	0.9586056644880175
3229.522705078125	-3.91404176293428	1.525116635864972	9.330044707093201	-7.154659959481498	6.128643783305108	-10.50475129801601	-0.2942386831275721	0.4895397489539748	0.9477124183006537
3233.428955078125	-4.124702141405169	1.67120000089724	9.375646311964145	-6.11656228483259	4.667249400111739	-10.1420067512819	-0.2942386831275721	0.4895397489539748	0.9477124183006537
3237.335205078125	-4.247307732556792	1.531853006947011	9.337149876052088	-7.222536913811345	2.768398519451331	-10.53835375065454	-0.2942386831275721	0.4895397489539748	0.9477124183006537
3241.241455078125	-4.135095168696282	1.641998281886889	9.464991386649807	-7.583630227494666	1.638162734966205	-9.79493912736732	-0.3065843621399177	0.4832635983263598	0.9389978213507626
3245.147705078125	-4.106017729518404	1.519439169371799	9.388447134708761	-7.922088027379633	1.254874672611447	-8.666696536292754	-0.3065843621399177	0.4832635983263598	0.9389978213507626
3249.053955078125	-4.134797099179378	1.671805233577327	9.415979664424448	-7.583580915719305	-0.2275074274715792	-7.926803376161509	-0.3065843621399177	0.4832635983263598	0.9389978213507626
3252.960205078125	-4.166636986015619	1.518119580256284	9.135249710162761	-7.643915986234724	-3.214392106452713	-7.95667222295132	-0.3065843621399177	0.4832635983263598	0.9389978213507626
3256.866455078125	-4.287411723049852	1.561857998045291	9.22713797459096	-6.899024808584222	-2.818911042764989	-6.443283450050292	-0.3148148148148148	0.4686192468619246	0.9716775599128541
3260.772705078125	-4.184744456566276	1.727574545392709	8.832410070582762	-8.020093067546901	-5.091349060683124	-7.220724811361549	-0.3148148148148148	0.4686192468619246	0.9716775599128541
3264.678955078125	-4.306422495797498	1.680982743482556	8.980378851610094	-6.944256386760641	-5.805342616975953	-5.718430784660326	-0.3148148148148148	0.4686192468619246	0.9716775599128541
3268.585205078125	-4.183515803913544	1.850439810665839	9.000181781989108	-7.681556368821355	-7.69313325822882	-5.359950200506817	-0.3209876543209877	0.4602510460251046	0.9389978213507626
3272.491455078125	-3.952622062473128	1.707490722384206	9.308474578120743	-7.343039394805957	-9.548649390799405	-4.24642989013441	-0.3209876543209877	0.4602510460251046	0.9389978213507626
3276.397705078125	-3.842150426672368	1.643543191349081	9.195270806815884	-6.620773868598735	-10.2732500817296	-2.744241934779561	-0.3209876543209877	0.4602510460251046	0.9389978213507626
