Time Stamp	Accelerometer X	Accelerometer Y	Accelerometer Z	Gyroscope X	Gyroscope Y	Gyroscope Z	Magnetometer X	Magnetometer Y	Magnetometer Z
915.069580078125	-3.045387368668677	-8.579140907271677	2.661801202161851	54.72160369546238	9.850603334744468	5.381524901271973	-0.3127572016460906	-0.8640167364016735	0.5729847494553377
918.975830078125	-3.180836219580882	-8.992712867179085	2.447848923738167	31.45531302299933	6.167539987704905	29.495637664028	-0.3189300411522634	-0.8891213389121339	0.5773420479302833
922.882080078125	-3.068929808478413	-8.913182868043283	2.543853578715073	43.79144020826263	-3.163868734050629	19.59100282209346	-0.3189300411522634	-0.8891213389121339	0.5773420479302833
926.788330078125	-3.037249565654616	-8.775461615966609	2.237925130615831	57.28629575978538	-6.490366351087035	8.614341619507998	-0.3189300411522634	-0.8891213389121339	0.5773420479302833
930.694580078125	-3.190551265021681	-8.954116401157963	2.247661394564613	62.10039994226123	-7.838480539045597	3.317841609703884	-0.3189300411522634	-0.8891213389121339	0.5773420479302833
934.600830078125	-3.16082716655289	-9.012009584581932	2.578397309711436	64.50743230878899	-7.766269568049763	-0.07766269568049762	-0.3106995884773663	-0.8619246861924685	0.5468409586056645
938.507080078125	-2.674647493137859	-8.87889072792729	2.721228180591449	-3.287785938743766	-3.083708205027985	-2.294988025446506	-0.3106995884773663	-0.8619246861924685	0.5468409586056645
942.413330078125	-2.714223041741625	-8.796041547899858	2.846187005318904	-2.565599311377122	-0.8232366360577316	-3.781817272020955	-0.3106995884773663	-0.8619246861924685	0.5468409586056645
946.319580078125	-3.007724516998809	-8.853259780688941	2.597966836502636	-0.4140048486451789	0.7338485112570625	-3.766246420547807	-0.3024691358024691	-0.8870292887029287	0.5577342047930284
950.225830078125	-3.169116530338258	-8.83084495301773	2.496463556742701	0.3535021180935341	2.622545362050269	-2.615283980341762	-0.3024691358024691	-0.8870292887029287	0.5577342047930284
954.132080078125	-3.149500524910523	-8.889446430446274	2.736153885349794	0.3761573566020325	2.623225019205524	-1.483201712072096	-0.3024691358024691	-0.8870292887029287	0.5577342047930284
958.038330078125	-2.905209821691683	-8.702800350986456	2.697424045849922	0.04524144053149207	2.613297541723408	-0.3512255151488037	-0.3024691358024691	-0.8870292887029287	0.5577342047930284
961.944580078125	-3.030065585094649	-9.067164570070947	2.374926974231365	-1.038097674648906	1.461394383193369	-0.3627445467341041	-0.323045267489712	-0.8702928870292886	0.5686274509803922
965.850830078125	-3.049841234534828	-9.024527493886772	2.558679253364354	-0.6392357677630152	2.219628897116364	1.154271760669277	-0.323045267489712	-0.8702928870292886	0.5686274509803922
969.757080078125	-3.116397631646722	-8.609460134369133	2.518160996763056	-1.007890689970909	1.462300592733709	1.14669847762545	-0.323045267489712	-0.8702928870292886	0.5686274509803922
973.663330078125	-3.270216658446516	-8.839847662833382	2.404093329061745	-1.752762142911268	0.320551464070871	0.3805640052067465	-0.323045267489712	-0.8702928870292886	0.5686274509803922
977.569580078125	-3.045478305131461	-8.588234553550116	2.762355711493402	-1.376545612178802	0.7049722883510539	1.139125194581624	-0.323045267489712	-0.8702928870292886	0.5686274509803922
981.475830078125	-2.906531431617482	-8.834961343566434	2.609994699313585	-1.384097358348302	0.7047457359659689	0.7617644384917353	-0.323045267489712	-0.8702928870292886	0.5686274509803922
985.382080078125	-3.025465210482901	-8.607127108896144	2.933328386389758	-1.421826502130583	-0.4157891234221265	-0.004157891234221264	-0.323045267489712	-0.8702928870292886	0.5686274509803922
989.288330078125	-2.94621105195088	-8.762519336502109	2.704129094372558	-1.391649104517801	0.7045191835808838	0.3844036824018466	-0.3251028806584362	-0.8828451882845187	0.5555555555555556
993.194580078125	-3.055298432707033	-8.5601463010063	2.521237680420595	-2.13652055745816	-0.4372299450819538	-0.3817307900168573	-0.3251028806584362	-0.8828451882845187	0.5555555555555556
997.100830078125	-3.157892950020381	-8.718587931330971	2.633501774943349	-1.391649104517801	0.7045191835808838	0.3844036824018466	-0.3251028806584362	-0.8828451882845187	0.5555555555555556
1001.007080078125	-3.054985207112998	-8.528823741602789	2.623817041656812	-1.04561983375319	0.3417657333456133	0.3807761478994939	-0.3251028806584362	-0.8828451882845187	0.5555555555555556
1004.913330078125	-3.005717852386701	-8.652593319478054	2.46660608479516	-1.775407519064694	-0.05326222557194082	-0.3778911128217572	-0.3251028806584362	-0.8828451882845187	0.5555555555555556
1008.819580078125	-2.874916865127919	-8.703807724913078	2.657272566315188	-1.414284618316155	-0.04242853854948467	-0.0004242853854948467	-0.3251028806584362	-0.8828451882845187	0.5555555555555556
1012.725830078125	-3.119960320177586	-8.965728987455527	2.237685664597165	-1.406742734501728	0.3309320463231571	0.003309320463231571	-0.3251028806584362	-0.8828451882845187	0.5555555555555556
1016.632080078125	-2.945917024054543	-8.733116546868489	2.614693083224112	-1.038077949938762	0.715126318218255	0.3845097537482203	-0.3292181069958848	-0.8933054393305438	0.5686274509803922
1020.538330078125	-3.058122515079059	-8.842554538208931	2.557594078241794	-1.399190988332229	0.3311585987082421	0.3806700765531202	-0.3292181069958848	-0.8933054393305438	0.5686274509803922
1024.444580078125	-2.985703747332998	-8.671384834309876	2.647684831922288	-1.805594779032548	-0.8004365000873944	-1.140079836698987	-0.3292181069958848	-0.8933054393305438	0.5686274509803922
1028.350830078125	-2.875016895236982	-8.713810735819361	2.666872425569794	-1.391649104517801	0.7045191835808838	0.3844036824018466	-0.3292181069958848	-0.8933054393305438	0.5686274509803922
1032.257080078125	-2.936819336155537	-8.83344876706879	2.700676540002177	-1.030526203769263	0.7153528706033401	0.7618705098381089	-0.3292181069958848	-0.8933054393305438	0.5686274509803922
1036.163330078125	-3.097168611388392	-8.706760128738145	2.927629701388603	-2.128978673643732	-0.06386936020931198	-0.3779971841681309	-0.3292181069958848	-0.8933054393305438	0.5686274509803922
1040.069580078125	-3.055807676898626	-8.611070720165559	2.478282326616676	-1.760313889080767	0.320324911685786	0.003203249116857859	-0.3292181069958848	-0.8933054393305438	0.5686274509803922
1043.975830078125	-2.99663329975454	-8.754239066363018	2.421210602573193	-1.376565336888947	1.451240353326168	0.3918708940992994	-0.3065843621399177	-0.8661087866108785	0.5642701525054467
1047.882080078125	-2.926852699834368	-8.846886145052894	2.386973024334871	-1.376565336888947	1.451240353326168	0.3918708940992994	-0.3065843621399177	-0.8661087866108785	0.5642701525054467
1051.788330078125	-3.138410318071396	-8.790526756634558	2.549291579189579	-1.01545229849548	1.835208072836181	0.3957105712943996	-0.3065843621399177	-0.8661087866108785	0.5642701525054467
1055.694580078125	-3.027115202079867	-8.772126268592707	2.591728595155627	-2.459924176779489	1.045605259771242	-0.3669024379683253	-0.3065843621399177	-0.8661087866108785	0.5642701525054467
1059.600830078125	-3.00886425399904	-8.967233480712039	2.309428471303196	-0.654339260102014	2.219175792346193	0.3995502484894997	-0.3065843621399177	-0.8661087866108785	0.5642701525054467
1063.507080078125	-3.088307358292624	-8.830735829262386	2.668994276368096	-0.6467875139325145	2.219402344731279	0.7769110045793883	-0.3065843621399177	-0.8661087866108785	0.5642701525054467
1067.413330078125	-2.666467253107832	-9.070967735025619	2.721807142737843	-1.376575199244019	1.824374385813724	0.01824374385813724	-0.3065843621399177	-0.8661087866108785	0.5642701525054467
1071.319580078125	-3.06763648989659	-8.78385100986104	2.348312902789801	-0.3234036193213294	1.482835204853196	0.01482835204853196	-0.323045267489712	-0.8744769874476986	0.5555555555555556
1075.225830078125	-2.876235443838293	-8.835665595950443	2.600161436471166	-1.02300404466498	1.834981520451096	0.01834981520451096	-0.323045267489712	-0.8744769874476986	0.5555555555555556
1079.132080078125	-2.997534581141247	-8.844367205033768	2.497503263633869	-1.02300404466498	1.834981520451096	0.01834981520451096	-0.323045267489712	-0.8744769874476986	0.5555555555555556
1083.038330078125	-2.725460767731492	-8.909713136785486	2.567663775887452	-1.01545229849548	1.835208072836181	0.3957105712943996	-0.323045267489712	-0.8744769874476986	0.5555555555555556
1086.944580078125	-3.086297662465089	-8.629766246508888	2.567951741352936	-1.01545229849548	1.835208072836181	0.3957105712943996	-0.323045267489712	-0.8744769874476986	0.5555555555555556
1090.850830078125	-3.190568441909096	-8.955834089899446	2.075858166641493	-1.01545229849548	1.835208072836181	0.3957105712943996	-0.323045267489712	-0.8744769874476986	0.5555555555555556
1094.757080078125	-3.028340823517172	-8.894688412323223	2.454275100441597	-1.384117083058446	1.451013800941082	0.01451013800941083	-0.323045267489712	-0.8744769874476986	0.5555555555555556
1098.663330078125	-3.048328658037181	-8.873269844122072	2.535954231314535	-1.760323751435839	0.6934589441733428	-0.3704239011243043	-0.3127572016460906	-0.8598326359832635	0.5664488017429194
1102.569580078125	-2.996822245516103	-8.77313364251933	2.551577115620893	-1.75277200526634	0.6936854965584277	0.006936854965584278	-0.3127572016460906	-0.8598326359832635	0.5664488017429194
1106.475830078125	-2.918976591752098	-9.069376346926891	2.375927275321994	-1.391658966872873	1.077653216068441	0.01077653216068441	-0.3127572016460906	-0.8598326359832635	0.5664488017429194
1110.382080078125	-3.218595059739244	-8.728192842611286	2.561707437575074	-1.767865635250266	0.320098359300701	-0.3741575069730307	-0.3127572016460906	-0.8598326359832635	0.5664488017429194
1114.288330078125	-3.273050844869963	-9.123266305178063	2.339389004575226	-1.391649104517801	0.7045191835808838	0.3844036824018466	-0.3127572016460906	-0.8598326359832635	0.5664488017429194
1118.194580078125	-3.271717110082458	-8.989892826427626	2.548091217880825	-1.391649104517801	0.7045191835808838	0.3844036824018466	-0.3127572016460906	-0.8598326359832635	0.5664488017429194
1122.100830078125	-3.317774407672467	-8.545117534923467	2.489061328672052	-2.851214612785737	-0.4586707667417811	-0.7593036887994934	-0.3127572016460906	-0.8598326359832635	0.5664488017429194
1126.007080078125	-3.077318191967702	-8.741920206871159	2.481625757231715	-1.760313889080767	0.320324911685786	0.003203249116857859	-0.3106995884773663	-0.8765690376569036	0.5599128540305012
1129.913330078125	-2.996720194596756	-8.762928550584638	2.562189400827831	-2.490091712037199	-0.447837079719325	-0.381836861363231	-0.3106995884773663	-0.8765690376569036	0.5599128540305012
1133.819580078125	-3.276584231651707	-8.466503973251505	2.351989767101716	-2.490091712037199	-0.447837079719325	-0.381836861363231	-0.3106995884773663	-0.8765690376569036	0.5599128540305012
1137.725830078125	-2.855224068909389	-8.754730123262053	2.654923374359925	-2.482549828222771	-0.07447649484668314	-0.3781032555145046	-0.3106995884773663	-0.8765690376569036	0.5599128540305012
1141.632080078125	-3.378775597313378	-8.584630438408428	2.456172641298365	-2.490091712037199	-0.447837079719325	-0.381836861363231	-0.3292181069958848	-0.8828451882845187	0.5511982570806101
1145.538330078125	-2.977130459702714	-8.824157081382507	2.539121851434858	-2.843662866616238	-0.4584442143566961	-0.3819429327096047	-0.3292181069958848	-0.8828451882845187	0.5511982570806101
1149.444580078125	-3.138819532153926	-8.831448164887533	2.496736366131054	-2.828559374277239	-0.4579911095865261	0.3727785794701725	-0.3292181069958848	-0.8828451882845187	0.5511982570806101
1153.350830078125	-3.077710229162817	-8.781123926382651	2.60087377209631	-1.760313889080767	0.320324911685786	0.003203249116857859	-0.323045267489712	-0.8577405857740585	0.5555555555555556
1157.257080078125	-3.036105787033817	-8.66108375388669	2.566887784738358	-1.760313889080767	0.320324911685786	0.003203249116857859	-0.323045267489712	-0.8577405857740585	0.5555555555555556
1161.163330078125	-2.967526558827541	-8.873868003966166	2.637742445324528	-2.83612098280181	-0.08508362948405432	-0.3782093268608783	-0.323045267489712	-0.8577405857740585	0.5555555555555556
1165.069580078125	-3.269297189767252	-8.747900794906945	2.509709968154961	-2.128978673643732	-0.06386936020931198	-0.3779971841681309	-0.323045267489712	-0.8577405857740585	0.5555555555555556
1168.975830078125	-2.917469067280161	-8.918623899733214	2.302671892118316	-2.091249529861452	1.056665499178783	0.3879251455578256	-0.3065843621399177	-0.8765690376569036	0.5468409586056645
1172.882080078125	-3.056003695496183	-8.630672579921306	2.537906334048973	-1.730136491467986	1.440633218688796	0.3917648227529257	-0.3065843621399177	-0.8765690376569036	0.5468409586056645
1176.788330078125	-2.997132439894712	-8.804153080380226	2.479315971076991	-2.098811138386023	1.429572979281255	-0.3630627607732252	-0.3065843621399177	-0.8765690376569036	0.5468409586056645
1180.694580078125	-3.209811607839415	-8.859948662729302	2.535005460886151	-1.722594607653558	1.813993803561438	0.3954984286016521	-0.3168724279835391	-0.8535564853556484	0.5577342047930284
1184.600830078125	-3.248384834542268	-8.676867292610632	2.584177837529097	-2.076165762232597	1.803386668924067	0.3953923572552784	-0.3168724279835391	-0.8535564853556484	0.5577342047930284
1188.507080078125	-2.756655005681963	-8.998833901529617	2.684107916482862	-1.007920277036125	2.581702690196379	0.02581702690196379	-0.3168724279835391	-0.8535564853556484	0.5577342047930284
1192.413330078125	-2.886326359991934	-8.834656201213535	2.680919077854556	-2.467475922948989	1.045378707386157	-0.744263194058214	-0.3168724279835391	-0.8535564853556484	0.5577342047930284
1196.319580078125	-3.058230628429259	-8.853365873228855	2.486345359650225	-1.391668829227945	1.450787248555997	-0.3628506180804778	-0.3127572016460906	-0.8702928870292886	0.5751633986928105
1200.225830078125	-3.208178793129864	-8.696667191774221	2.704802024197162	-1.722594607653558	1.813993803561438	0.3954984286016521	-0.3127572016460906	-0.8702928870292886	0.5751633986928105
1204.132080078125	-3.038317563889762	-8.882261439481164	2.666917893801186	-2.106362884555522	1.42934642689617	-0.7404235168631138	-0.3127572016460906	-0.8702928870292886	0.5751633986928105
1208.038330078125	-3.025218671628241	-8.582473223430155	2.368906980395039	-1.730146353823058	1.813767251176353	0.01813767251176353	-0.308641975308642	-0.8535564853556484	0.5642701525054467
1211.944580078125	-3.145476081229743	-8.48700206236825	2.584599176473331	-1.376575199244019	1.824374385813724	0.01824374385813724	-0.308641975308642	-0.8535564853556484	0.5642701525054467
1215.850830078125	-2.99420226498277	-8.511135589186084	2.493996147385818	-1.737688237637485	1.440406666303711	0.01440406666303711	-0.308641975308642	-0.8535564853556484	0.5642701525054467
1219.757080078125	-3.098719583281437	-8.861857318042631	2.566323978669095	-1.745239983806984	1.440180113918626	-0.3629566894268515	-0.308641975308642	-0.8535564853556484	0.5642701525054467
1223.663330078125	-3.086695762091057	-8.669576209105609	2.6265633228329	-2.475017806763416	0.6720181225135154	-0.7479967999069403	-0.3209876543209877	-0.901673640167364	0.5555555555555556
1227.569580078125	-3.096998863324528	-8.689785322351726	2.60524781595624	-2.475007944408344	0.2988840900259586	-0.3743696496657782	-0.3209876543209877	-0.901673640167364	0.5555555555555556
1231.475830078125	-2.956310051345658	-8.762318265878841	2.704038157909774	-2.113894906014878	0.6828518095359716	-0.370529972470678	-0.3209876543209877	-0.901673640167364	0.5555555555555556
1235.382080078125	-3.160000655146694	-8.929358443962341	2.764356313674659	-2.467466060593916	0.6722446748986005	-0.3706360438170518	-0.3333333333333334	-0.8702928870292886	0.5577342047930284
1239.288330078125	-3.027239481912339	-8.784554251839907	2.35878272087171	-2.828579098987383	0.2882769553885874	-0.3744757210121519	-0.3333333333333334	-0.8702928870292886	0.5577342047930284
1243.194580078125	-3.189509537320229	-8.849943631012735	2.566011763480202	-2.467456198238845	0.2991106424110436	0.002991106424110436	-0.3333333333333334	-0.8702928870292886	0.5577342047930284
1247.100830078125	-3.059420885686592	-8.972391598962197	2.702604393013206	-2.459904452069345	0.2993371947961286	0.3803518625139991	-0.3333333333333334	-0.8702928870292886	0.5577342047930284
1251.007080078125	-3.099306628668967	-8.920561856795665	2.75530207319676	-2.474998082053272	-0.07424994246159816	-0.0007424994246159817	-0.2962962962962963	-0.8933054393305438	0.5620915032679739
1254.913330078125	-3.131026277293304	-9.062223688926329	2.667093704295902	-2.851204750430665	-0.8318047992293379	-0.3856765385583312	-0.2962962962962963	-0.8933054393305438	0.5620915032679739
1258.819580078125	-3.166490487374074	-8.568240656599254	2.499519021892257	-2.843653004261166	-0.831578246844253	-0.008315782468442529	-0.2962962962962963	-0.8933054393305438	0.5620915032679739
1262.725830078125	-2.995318762664734	-8.622785357382474	2.437897443494129	-2.4749882196982	-0.4473839749491549	0.3728846508165462	-0.3374485596707819	-0.8765690376569036	0.5446623093681918
1266.632080078125	-2.915112802488903	-8.682997420607443	2.63770910195484	-2.113875181304734	-0.06341625543914202	0.3767243280116463	-0.3374485596707819	-0.8765690376569036	0.5446623093681918
1270.538330078125	-2.986215012334875	-8.722511334497545	2.584517333656825	-2.843653004261166	-0.831578246844253	-0.008315782468442529	-0.3374485596707819	-0.8765690376569036	0.5446623093681918
1274.444580078125	-3.005719873196985	-8.652795400506463	2.446393940333617	-2.482539965867699	-0.4476105273342399	-0.004476105273342399	-0.3374485596707819	-0.8765690376569036	0.5446623093681918
1278.350830078125	-3.007112211482727	-8.792029229080784	2.661640547744265	-2.467446335883773	-0.07402339007651318	0.3766182566652727	-0.3127572016460906	-0.8786610878661087	0.5664488017429194
1282.257080078125	-2.815648520305622	-8.837579303289484	2.52996454963247	-2.106333297490306	0.3099443294334998	0.3804579338603727	-0.3127572016460906	-0.8786610878661087	0.5664488017429194
1286.163330078125	-2.915806950821491	-8.752412253866193	2.765544550121708	-3.197234021195277	-0.4690513489940673	-0.3820490040559784	-0.3127572016460906	-0.8786610878661087	0.5664488017429194
1290.069580078125	-2.612232746703222	-8.698022145069707	2.751097777400695	-2.475007944408344	0.2988840900259586	-0.3743696496657782	-0.3209876543209877	-0.8640167364016735	0.5860566448801744
1293.975830078125	-2.814028840862918	-8.675611359019067	2.568382173943448	-2.44482068444049	1.046058364541412	0.3878190742114519	-0.3209876543209877	-0.8640167364016735	0.5860566448801744
1297.882080078125	-3.019252229264443	-8.995929997151368	2.449303907142717	-2.44482068444049	1.046058364541412	0.3878190742114519	-0.3209876543209877	-0.8640167364016735	0.5860566448801744
1301.788330078125	-2.977136522133566	-8.824763324467737	2.478485418050227	-2.45237243060999	1.045831812156327	0.01045831812156327	-0.3209876543209877	-0.8640167364016735	0.5860566448801744
1305.694580078125	-3.058644894537498	-8.894792484052854	2.383259785437842	-2.467466060593916	0.6722446748986005	-0.3706360438170518	-0.3333333333333334	-0.8744769874476986	0.5599128540305012
1309.600830078125	-2.959269528006719	-9.058265931984923	2.396281886908566	-2.091259392216524	1.42979953166634	0.0142979953166634	-0.3333333333333334	-0.8744769874476986	0.5599128540305012
1313.507080078125	-3.028144804919614	-8.875086552567478	2.394651093009299	-2.083707646047024	1.430026084051425	0.391658751406552	-0.3333333333333334	-0.8744769874476986	0.5599128540305012
1317.413330078125	-3.077513200160118	-8.7614210261127	2.551355836894785	-2.098811138386023	1.429572979281255	-0.3630627607732252	-0.308641975308642	-0.8661087866108785	0.5664488017429194
1321.319580078125	-3.097016040211942	-8.691503011093209	2.43344458803312	-2.098801276030951	1.056438946793698	0.01056438946793698	-0.308641975308642	-0.8661087866108785	0.5664488017429194
1325.225830078125	-3.006520114069487	-8.732819487756727	2.523192814370459	-1.369023453074519	1.824600938198809	0.3956044999480259	-0.308641975308642	-0.8661087866108785	0.5664488017429194
1329.132080078125	-3.088299275051488	-8.829927505148747	2.749842854214271	-2.098811138386023	1.429572979281255	-0.3630627607732252	-0.308641975308642	-0.8661087866108785	0.5664488017429194
1333.038330078125	-3.148210237544127	-8.760417693806646	2.510294992732207	-2.091259392216524	1.42979953166634	0.0142979953166634	-0.3024691358024691	-0.8765690376569036	0.5490196078431373
1336.944580078125	-3.018040753499127	-8.87478242061972	2.445272390625942	-2.467475922948989	1.045378707386157	-0.744263194058214	-0.3024691358024691	-0.8765690376569036	0.5490196078431373
1340.850830078125	-3.067731467979943	-8.793348818196298	2.408443123198265	-2.836140707511955	0.6611844354910592	-1.125463627343203	-0.3024691358024691	-0.8765690376569036	0.5490196078431373
1344.757080078125	-3.14689469004918	-8.628862944311898	2.537087905883914	-1.715052723839131	2.18735438843408	0.3992320344503786	-0.3168724279835391	-0.8807531380753137	0.5555555555555556
1348.663330078125	-3.088114370910493	-8.811437091049255	2.579052052243483	-2.444830546795563	1.419192397028969	0.01419192397028969	-0.3168724279835391	-0.8807531380753137	0.5555555555555556
1352.569580078125	-3.177867649273543	-8.695855836445155	2.846559844816321	-2.452382292965062	1.418965844643884	-0.3631688321195989	-0.3168724279835391	-0.8807531380753137	0.5555555555555556
1356.475830078125	-3.382445388789299	-8.95160958600054	2.114554662771676	-2.091259392216524	1.42979953166634	0.0142979953166634	-0.3168724279835391	-0.8807531380753137	0.5555555555555556
1360.382080078125	-3.099008559152062	-8.890754905105226	2.7062903509714	-2.091259392216524	1.42979953166634	0.0142979953166634	-0.3148148148148148	-0.8702928870292886	0.5708061002178649
1364.288330078125	-3.148599243523816	-8.799318291775524	2.659861224289118	-2.45237243060999	1.045831812156327	0.01045831812156327	-0.3148148148148148	-0.8702928870292886	0.5708061002178649
1368.194580078125	-3.089526917299077	-8.952691729907674	2.592177215038697	-2.821037215172955	0.6616375402612292	-0.3707421151634255	-0.3148148148148148	-0.8702928870292886	0.5708061002178649
1372.100830078125	-3.139303516216967	-8.879846571191669	2.706432818096429	-1.730136491467986	1.440633218688796	0.3917648227529257	-0.3168724279835391	-0.8723849372384936	0.5599128540305012
1376.007080078125	-2.664948614179333	-8.919103842175689	2.759718554072655	-1.399190988332229	0.3311585987082421	0.3806700765531202	-0.3168724279835391	-0.8723849372384936	0.5599128540305012
1379.913330078125	-2.756670161759094	-9.000349509242689	2.532516833021285	-2.459914314424417	0.6724712272836855	0.006724712272836854	-0.3168724279835391	-0.8723849372384936	0.5599128540305012
1383.819580078125	-2.867365097096247	-8.95873193184684	2.432480661527605	-2.475007944408344	0.2988840900259586	-0.3743696496657782	-0.3168724279835391	-0.8723849372384936	0.5599128540305012
1387.725830078125	-3.105489297733163	-8.528727753114294	2.532407709265944	-2.151584600376871	-1.930219179802351	0.3580562987680143	-0.3189300411522634	-0.8807531380753137	0.5729847494553377
1391.632080078125	-3.099324815961524	-8.922380586051352	2.573392773042868	-2.098801276030951	1.056438946793698	0.01056438946793698	-0.3189300411522634	-0.8807531380753137	0.5729847494553377
1395.538330078125	-3.128830666919632	-8.842662651559131	2.405366439540726	-2.83612098280181	-0.08508362948405432	-0.3782093268608783	-0.3189300411522634	-0.8807531380753137	0.5729847494553377
1399.444580078125	-3.099734030044054	-8.963301994304327	2.520837559984344	-2.422165445931992	1.046738021696667	1.519901342481118	-0.3106995884773663	-0.8912133891213389	0.5686274509803922
1403.350830078125	-3.025703666096424	-8.630972670248495	2.568497360129642	-2.459924176779489	1.045605259771242	-0.3669024379683253	-0.3106995884773663	-0.8912133891213389	0.5686274509803922
1407.257080078125	-3.090564603379961	-9.056460337996082	2.314251135046195	-2.098791413675879	0.6833049143061415	0.3841915397090992	-0.3106995884773663	-0.8912133891213389	0.5686274509803922
1411.163330078125	-2.955206688930541	-8.651982024367115	2.62875792280143	-2.851214612785737	-0.4586707667417811	-0.7593036887994934	-0.3106995884773663	-0.8912133891213389	0.5686274509803922
1415.069580078125	-3.059065223076591	-8.936825337962082	2.219537777840828	-2.459914314424417	0.6724712272836855	0.006724712272836854	-0.3148148148148148	-0.8619246861924685	0.5620915032679739
1418.975830078125	-2.855847488882032	-8.817072120526461	2.480082868579807	-2.106343159845378	0.6830783619210565	0.006830783619210566	-0.3148148148148148	-0.8619246861924685	0.5620915032679739
1422.882080078125	-3.278573719376401	-8.665452745720907	2.655153746732312	-2.113894906014878	0.6828518095359716	-0.370529972470678	-0.3148148148148148	-0.8619246861924685	0.5620915032679739
1426.788330078125	-3.059031879706903	-8.933491000993321	2.553038161456296	-2.828579098987383	0.2882769553885874	-0.3744757210121519	-0.3209876543209877	-0.8849372384937237	0.5729847494553377
1430.694580078125	-2.794644218212713	-8.757351114200528	2.513983981905827	-2.836130845156883	0.2880504030035025	-0.7518364771020405	-0.3209876543209877	-0.8849372384937237	0.5729847494553377
1434.600830078125	-2.797435967620193	-9.036526054948602	2.873734691111722	-2.836130845156883	0.2880504030035025	-0.7518364771020405	-0.3209876543209877	-0.8849372384937237	0.5729847494553377
1438.507080078125	-2.999691796119521	-9.060088702861179	2.133160263057362	-2.459914314424417	0.6724712272836855	0.006724712272836854	-0.3209876543209877	-0.8849372384937237	0.5729847494553377
1442.413330078125	-2.999857502562817	-9.076659347190779	2.495966437412813	-2.467456198238845	0.2991106424110436	0.002991106424110436	-0.3271604938271605	-0.8849372384937237	0.5468409586056645
1446.319580078125	-3.077335368855117	-8.743637895612641	2.309822529308595	-2.113894906014878	0.6828518095359716	-0.370529972470678	-0.3271604938271605	-0.8849372384937237	0.5468409586056645
1450.225830078125	-2.474268997392457	-9.043061355407373	2.866538585690051	-2.098801276030951	1.056438946793698	0.01056438946793698	-0.3271604938271605	-0.8849372384937237	0.5468409586056645
1454.132080078125	-2.993980986256662	-8.489007716575216	2.687023945722815	-2.098811138386023	1.429572979281255	-0.3630627607732252	-0.3271604938271605	-0.8849372384937237	0.5468409586056645
1458.038330078125	-3.118627595795223	-8.832456549219295	2.436281805671992	-1.722584745298486	1.440859771073881	0.7691255788428143	-0.3271604938271605	-0.8849372384937237	0.5468409586056645
1461.944580078125	-2.916941635796011	-8.86588075131827	2.527536546076127	-1.722594607653558	1.813993803561438	0.3954984286016521	-0.3271604938271605	-0.8849372384937237	0.5468409586056645
1465.850830078125	-2.865328120329877	-8.755034255209811	2.604302076743282	-1.730136491467986	1.440633218688796	0.3917648227529257	-0.3271604938271605	-0.8849372384937237	0.5468409586056645
1469.757080078125	-2.975314761662452	-8.642587277356345	2.517915468313539	-1.730136491467986	1.440633218688796	0.3917648227529257	-0.308641975308642	-0.8744769874476986	0.5642701525054467
1473.663330078125	-3.155496269023441	-8.478919831637002	2.362680863909734	-2.459914314424417	0.6724712272836855	0.006724712272836854	-0.308641975308642	-0.8744769874476986	0.5642701525054467
1477.569580078125	-2.998445966579375	-8.935505748846566	2.472735202386828	-2.459924176779489	1.045605259771242	-0.3669024379683253	-0.308641975308642	-0.8744769874476986	0.5642701525054467
1481.475830078125	-2.897225600259214	-8.914479217840531	2.757627015428614	-2.083707646047024	1.430026084051425	0.391658751406552	-0.308641975308642	-0.8744769874476986	0.5642701525054467
1485.382080078125	-2.917036613879364	-8.875378559653528	2.587666766484591	-2.053540110789315	2.923468423541992	0.4065931748014577	-0.308641975308642	-0.8744769874476986	0.5642701525054467
1489.288330078125	-2.945112741561473	-8.652688297561406	2.578318498110356	-2.444830546795563	1.419192397028969	0.01419192397028969	-0.308641975308642	-0.8744769874476986	0.5642701525054467
1493.194580078125	-3.118726615499144	-8.842358519611373	2.45598773715737	-2.083717508402096	1.803160116538982	0.01803160116538982	-0.308641975308642	-0.8744769874476986	0.5642701525054467
1497.100830078125	-3.20040978799265	-8.929867688153934	2.632613628823488	-1.361481569260092	2.197961523071451	0.3993381057967523	-0.3209876543209877	-0.8828451882845187	0.5403050108932462
1501.007080078125	-3.170412880135507	-8.960479932742585	2.661686015975658	-1.361481569260092	2.197961523071451	0.3993381057967523	-0.3209876543209877	-0.8828451882845187	0.5403050108932462
1504.913330078125	-3.018029639042564	-8.873670974963467	2.556439185164432	-4.265479506391748	-1.247367370266379	-0.01247367370266379	-0.3209876543209877	-0.8828451882845187	0.5403050108932462
1508.819580078125	-2.596392625291324	-9.134212024081878	2.598133553351074	-2.467475922948989	1.045378707386157	-0.744263194058214	-0.3209876543209877	-0.8828451882845187	0.5403050108932462
1512.725830078125	-3.126174311801186	-8.577027139714513	2.711604071613435	-1.730136491467986	1.440633218688796	0.3917648227529257	-0.3209876543209877	-0.8828451882845187	0.5403050108932462
1516.632080078125	-3.098433638626237	-8.833262852522651	2.396039389674474	-2.45237243060999	1.045831812156327	0.01045831812156327	-0.3209876543209877	-0.8828451882845187	0.5403050108932462
1520.538330078125	-3.077120152559861	-8.722116266087003	2.442213894260961	-2.475007944408344	0.2988840900259586	-0.3743696496657782	-0.3209876543209877	-0.8828451882845187	0.5403050108932462
1524.444580078125	-3.248521239236445	-8.690507762028291	2.229959096475918	-2.84367272897131	-0.0853101818691393	-0.7555700829507669	-0.3065843621399177	-0.8807531380753137	0.5599128540305012
1528.350830078125	-3.0665169609992	-8.671898120122037	2.434729823373806	-2.467456198238845	0.2991106424110436	0.002991106424110436	-0.3065843621399177	-0.8807531380753137	0.5599128540305012
1532.257080078125	-3.118813510341361	-8.851048003832995	2.596966535412008	-2.113885043659806	0.3097177770484148	0.003097177770484148	-0.3065843621399177	-0.8807531380753137	0.5599128540305012
1536.163330078125	-3.087915321097509	-8.791532109750895	2.549746261503501	-3.204775905009704	-0.842411933866709	-0.3857826099047049	-0.3065843621399177	-0.8807531380753137	0.5599128540305012
1540.069580078125	-3.137714148928525	-8.720909842347398	2.441668275484254	-2.83612098280181	-0.08508362948405432	-0.3782093268608783	-0.3065843621399177	-0.8807531380753137	0.5599128540305012
1543.975830078125	-3.00840553006455	-8.921361087263026	2.857181223669537	-2.482539965867699	-0.4476105273342399	-0.004476105273342399	-0.3065843621399177	-0.8807531380753137	0.5599128540305012
1547.882080078125	-2.978871387762464	-8.998249887357511	2.298076569532278	-2.843662866616238	-0.4584442143566961	-0.3819429327096047	-0.3065843621399177	-0.8807531380753137	0.5599128540305012
1551.788330078125	-2.867377221957951	-8.959944418017299	2.311207794758344	-3.197234021195277	-0.4690513489940673	-0.3820490040559784	-0.3127572016460906	-0.8723849372384936	0.5686274509803922
1555.694580078125	-2.905304799775036	-8.712298159321714	2.757554266258387	-2.459904452069345	0.2993371947961286	0.3803518625139991	-0.3127572016460906	-0.8723849372384936	0.5686274509803922
1559.600830078125	-2.957842835946145	-8.915596725927639	2.524641735344157	-3.219879397348703	-0.842865038636879	-1.140504122084482	-0.3127572016460906	-0.8723849372384936	0.5686274509803922
1563.507080078125	-3.106989749369106	-8.678772916708535	2.676405598085024	-2.121426927474233	-0.063642807824227	-0.0006364280782422699	-0.3127572016460906	-0.8723849372384936	0.5686274509803922
1567.413330078125	-3.100236201399652	-9.013519129864152	2.548624711795827	-2.851204750430665	-0.8318047992293379	-0.3856765385583312	-0.3127572016460906	-0.8723849372384936	0.5686274509803922
1571.319580078125	-3.018323666938901	-8.903073764597085	2.645875196312879	-2.459894589714273	-0.0737968376914282	0.7539790127551612	-0.3127572016460906	-0.8723849372384936	0.5686274509803922
1575.225830078125	-2.958157071945323	-8.947020325845354	2.411956301877169	-2.467456198238845	0.2991106424110436	0.002991106424110436	-0.3127572016460906	-0.8723849372384936	0.5686274509803922
1579.132080078125	-3.413101080799058	-8.986875756673468	2.567030251863387	-2.459914314424417	0.6724712272836855	0.006724712272836854	-0.3292181069958848	-0.8849372384937237	0.5490196078431373
1583.038330078125	-3.087517221471543	-8.751722147154174	2.491134680023536	-2.459914314424417	0.6724712272836855	0.006724712272836854	-0.3292181069958848	-0.8849372384937237	0.5490196078431373
1586.944580078125	-3.04943808288315	-8.984212328719028	2.550598033038248	-3.558366784298888	-0.1067510035289666	-1.133142981733403	-0.3292181069958848	-0.8849372384937237	0.5490196078431373
1590.850830078125	-3.220951324530502	-8.963819321737056	2.22667022773855	-2.459914314424417	0.6724712272836855	0.006724712272836854	-0.3292181069958848	-0.8849372384937237	0.5490196078431373
1594.757080078125	-3.089029797969189	-8.902979796918874	2.513859702073355	-2.459904452069345	0.2993371947961286	0.3803518625139991	-0.3292181069958848	-0.8849372384937237	0.5490196078431373
1598.663330078125	-2.917852010828998	-8.956918254616863	2.512874557059857	-2.83612098280181	-0.08508362948405432	-0.3782093268608783	-0.3292181069958848	-0.8849372384937237	0.5490196078431373
1602.569580078125	-2.927355881595108	-8.897204321126923	2.404654103915582	-2.84367272897131	-0.0853101818691393	-0.7555700829507669	-0.3292181069958848	-0.8849372384937237	0.5490196078431373
1606.475830078125	-2.838779725222545	-9.130497774779707	2.48478428370576	-2.098791413675879	0.6833049143061415	0.3841915397090992	-0.3024691358024691	-0.8933054393305438	0.5620915032679739
1610.382080078125	-3.160028946490672	-8.932187578360079	2.481386291213049	-2.459914314424417	0.6724712272836855	0.006724712272836854	-0.3024691358024691	-0.8933054393305438	0.5620915032679739
1614.288330078125	-3.003778884919109	-8.458696572718896	2.668239503726986	-2.091249529861452	1.056665499178783	0.3879251455578256	-0.3024691358024691	-0.8933054393305438	0.5620915032679739
1618.194580078125	-3.168605265336382	-8.779718452830062	2.559631055008164	-3.212337513534276	-0.4695044537642373	-1.136770516235756	-0.3024691358024691	-0.8933054393305438	0.5620915032679739
1622.100830078125	-3.15577210962722	-8.506503892014933	2.634026175212073	-3.189701999735922	0.2774432683661313	-0.7519425484484142	-0.3189300411522634	-0.8849372384937237	0.5577342047930284
1626.007080078125	-3.054687137596094	-8.499016789912352	2.574805319431452	-2.083707646047024	1.430026084051425	0.391658751406552	-0.3189300411522634	-0.8849372384937237	0.5577342047930284
1629.913330078125	-2.998028669255709	-8.893776016479952	2.606138993291526	-2.828579098987383	0.2882769553885874	-0.3744757210121519	-0.3189300411522634	-0.8849372384937237	0.5577342047930284
1633.819580078125	-3.118526555281019	-8.822352497798807	2.436788018648159	-2.467466060593916	0.6722446748986005	-0.3706360438170518	-0.3292181069958848	-0.8661087866108785	0.5533769063180829
1637.725830078125	-3.319922529004463	-8.759929668123036	2.215672978172491	-2.098791413675879	0.6833049143061415	0.3841915397090992	-0.3292181069958848	-0.8661087866108785	0.5533769063180829
1641.632080078125	-2.915716014358706	-8.743318607587755	2.664990040790157	-2.098801276030951	1.056438946793698	0.01056438946793698	-0.3292181069958848	-0.8661087866108785	0.5533769063180829
1645.538330078125	-2.877335775037984	-8.945698715919553	2.705759888271825	-1.737688237637485	1.440406666303711	0.01440406666303711	-0.3292181069958848	-0.8661087866108785	0.5533769063180829
1649.444580078125	-2.95520163690483	-8.65147682179609	2.679288283955289	-2.467466060593916	0.6722446748986005	-0.3706360438170518	-0.2942386831275721	-0.8702928870292886	0.5664488017429194
1653.350830078125	-2.826550791788329	-8.917705441459093	2.576354270514213	-1.745230121451912	1.06704608143107	0.01067046081431069	-0.2942386831275721	-0.8702928870292886	0.5664488017429194
1657.257080078125	-2.998437883338239	-8.934697424732928	2.553583780233002	-1.730136491467986	1.440633218688796	0.3917648227529257	-0.2942386831275721	-0.8702928870292886	0.5664488017429194
1661.163330078125	-3.159828886272546	-8.912181556547512	2.462186572703839	-2.113894906014878	0.6828518095359716	-0.370529972470678	-0.3127572016460906	-0.8786610878661087	0.5642701525054467
1665.069580078125	-3.056403815932434	-8.670684623546435	2.576305771067395	-2.098801276030951	1.056438946793698	0.01056438946793698	-0.3127572016460906	-0.8786610878661087	0.5642701525054467
1668.975830078125	-2.936952709634287	-8.846786114943832	2.376776015641314	-1.384107220703374	1.077879768453526	0.388137288250573	-0.3127572016460906	-0.8786610878661087	0.5642701525054467
1672.882080078125	-2.895121936753468	-8.704112867265977	2.586348187774218	-1.745239983806984	1.440180113918626	-0.3629566894268515	-0.3127572016460906	-0.8786610878661087	0.5642701525054467
1676.788330078125	-2.93726997684889	-8.878512836404164	2.233772365482011	-1.007900552325981	1.835434625221265	0.7730713273842882	-0.3271604938271605	-0.8723849372384936	0.5511982570806101
1680.694580078125	-3.159824844651978	-8.911777394490693	2.502610861626926	-2.482559690577844	0.2986575376408737	-0.7517304057556667	-0.3271604938271605	-0.8723849372384936	0.5511982570806101
1684.600830078125	-3.33907576887714	-8.655051635188659	2.564159690854826	-2.091249529861452	1.056665499178783	0.3879251455578256	-0.3271604938271605	-0.8723849372384936	0.5511982570806101
1688.507080078125	-3.198844670427617	-8.773355931650581	2.125303352672791	-1.737678375282413	1.067272633816155	0.3880312169041993	-0.3251028806584362	-0.8786610878661087	0.5446623093681918
1692.413330078125	-3.047725446167378	-8.81294865714176	2.508673292479219	-2.113885043659806	0.3097177770484148	0.003097177770484148	-0.3251028806584362	-0.8786610878661087	0.5446623093681918
1696.319580078125	-2.706771303819016	-9.060968765739903	2.630994959785926	-1.376555474533874	1.078106320838611	0.7654980443404616	-0.3251028806584362	-0.8786610878661087	0.5446623093681918
1700.225830078125	-3.035502575164014	-8.600762566906379	2.539606845903041	-2.113875181304734	-0.06341625543914202	0.3767243280116463	-0.3251028806584362	-0.8786610878661087	0.5446623093681918
1704.132080078125	-3.22554664711654	-8.413250570239825	2.728900186835026	-2.467456198238845	0.2991106424110436	0.002991106424110436	-0.3189300411522634	-0.8953974895397488	0.5533769063180829
1708.038330078125	-3.299410294215731	-8.728908209451856	2.328540284565048	-2.467456198238845	0.2991106424110436	0.002991106424110436	-0.3189300411522634	-0.8953974895397488	0.5533769063180829
1711.944580078125	-2.997241563650053	-8.815065455914354	2.397961180254651	-2.474998082053272	-0.07424994246159816	-0.0007424994246159817	-0.3189300411522634	-0.8953974895397488	0.5533769063180829
1715.850830078125	-3.347457079530434	-8.483081690417102	2.572674374986871	-2.121417065119161	-0.4367768403117838	0.37299072216292	-0.3148148148148148	-0.8807531380753137	0.5490196078431373
1719.757080078125	-3.237907943624364	-8.639279210921277	2.323535747896481	-2.106323435135234	-0.06318970305405704	0.754085084101535	-0.3148148148148148	-0.8807531380753137	0.5490196078431373
1723.663330078125	-3.159003385271492	-8.829631456442128	2.63803950443629	-2.482530103512627	-0.8207445598217967	0.3691510449678198	-0.3148148148148148	-0.8807531380753137	0.5490196078431373
1727.569580078125	-3.007645705397729	-8.845378620580957	2.376139460401824	-2.843653004261166	-0.831578246844253	-0.008315782468442529	-0.3148148148148148	-0.8807531380753137	0.5490196078431373
1731.475830078125	-2.996621174892836	-8.753026580192559	2.542483469342454	-1.760294164370623	-0.4259431532893276	0.7504575495991822	-0.2962962962962963	-0.8765690376569036	0.5577342047930284
1735.382080078125	-3.057858799336985	-8.81618296400146	2.164975900170194	-2.4674364735287	-0.44715742256407	0.7502454069064348	-0.2962962962962963	-0.8765690376569036	0.5577342047930284
1739.288330078125	-3.078232608621256	-8.833361872226572	2.426539479292358	-1.745210396741768	0.3207780164559559	0.7579247612966351	-0.2962962962962963	-0.8765690376569036	0.5577342047930284
1743.194580078125	-3.087828426255293	-8.782842625529275	2.408767463248862	-1.752752280556195	-0.05258256841668587	0.7541911554479087	-0.3065843621399177	-0.8807531380753137	0.5664488017429194
1747.100830078125	-2.504365935358665	-9.022452121725005	2.847066057792487	-1.391629379807657	-0.04174888139422971	1.131657982884171	-0.3065843621399177	-0.8807531380753137	0.5664488017429194
1751.007080078125	-3.058145754397326	-8.844878470035644	2.325154416934043	-2.851185025720521	-1.578072864204451	0.3615777619239933	-0.3065843621399177	-0.8807531380753137	0.5664488017429194
1754.913330078125	-2.553367553532603	-8.872108888613861	2.631870981044083	-2.128958948933589	-0.8101374251844257	0.3692571163141935	-0.3065843621399177	-0.8807531380753137	0.5664488017429194
1758.819580078125	-3.017236471006056	-8.794354171312637	2.408897805512187	-2.128958948933589	-0.8101374251844257	0.3692571163141935	-0.3127572016460906	-0.8744769874476986	0.5555555555555556
1762.725830078125	-2.857066037483343	-8.938926980657543	2.413371879481179	-4.641656587703925	-3.12432432449679	0.7234737378871077	-0.3127572016460906	-0.8744769874476986	0.5555555555555556
1766.632080078125	-3.007047545553636	-8.785562636171672	2.298328160412648	-1.752752280556195	-0.05258256841668587	0.7541911554479087	-0.3127572016460906	-0.8744769874476986	0.5555555555555556
1770.538330078125	-2.885826209446619	-8.784641146682123	2.632919781581529	-1.376545612178802	0.7049722883510539	1.139125194581624	-0.3148148148148148	-0.8807531380753137	0.5577342047930284
1774.444580078125	-2.87596768647565	-8.80888985968615	2.247967547322653	-2.113875181304734	-0.06341625543914202	0.3767243280116463	-0.3148148148148148	-0.8807531380753137	0.5577342047930284
1778.350830078125	-2.975621924825635	-8.673303593674627	2.475972540461952	-1.015432573785336	1.088940007861067	1.142964871776724	-0.3148148148148148	-0.8807531380753137	0.5577342047930284
1782.257080078125	-3.108718552567151	-8.851653236513082	2.556633182951705	-1.000338943801409	1.462527145118794	1.524059233715339	-0.3148148148148148	-0.8807531380753137	0.5577342047930284
1786.163330078125	-2.946133250754942	-8.754739216908332	2.472195646040974	-1.384097358348302	0.7047457359659689	0.7617644384917353	-0.3189300411522634	-0.8912133891213389	0.533769063180828
1790.069580078125	-3.048208419825277	-8.861246022931693	2.728475816675365	-1.384097358348302	0.7047457359659689	0.7617644384917353	-0.3189300411522634	-0.8912133891213389	0.533769063180828
1793.975830078125	-2.936033240955023	-8.754839247017395	2.48239265473453	-1.030516341414191	0.3422188381157832	1.135497660079271	-0.3189300411522634	-0.8912133891213389	0.533769063180828
1797.882080078125	-2.835347378955005	-8.787263148025739	2.471677308203103	-0.6618614192062973	1.099547142498438	1.143070943123098	-0.2962962962962963	-0.8765690376569036	0.5642701525054467
1801.788330078125	-2.8365679483666	-8.909320089185231	2.384754174642932	-0.2932064969984036	1.856875446881093	1.150644226166924	-0.2962962962962963	-0.8765690376569036	0.5642701525054467
1805.694580078125	-3.220598693135927	-8.928556182279555	2.723386405974865	-1.391649104517801	0.7045191835808838	0.3844036824018466	-0.2962962962962963	-0.8765690376569036	0.5642701525054467
1809.600830078125	-2.775437426867508	-8.856873999882049	2.701119097454395	-1.007890689970909	1.462300592733709	1.14669847762545	-0.2962962962962963	-0.8765690376569036	0.5642701525054467
1813.507080078125	-3.109523845465364	-8.932182526334367	2.582901695834689	-0.6392259054079431	1.846494864628807	1.527898910910439	-0.2983539094650206	-0.8744769874476986	0.5446623093681918
1817.413330078125	-3.044603294278447	-8.500733468248692	2.42330517243266	-1.007890689970909	1.462300592733709	1.14669847762545	-0.2983539094650206	-0.8744769874476986	0.5446623093681918
1821.319580078125	-2.76770075469484	-9.093307792716317	2.305536390696024	-1.384107220703374	1.077879768453526	0.388137288250573	-0.2983539094650206	-0.8744769874476986	0.5446623093681918
1825.225830078125	-2.916941635796011	-8.86588075131827	2.527536546076127	-0.6316741592384436	1.846721417013891	1.905259667000328	-0.308641975308642	-0.8744769874476986	0.5533769063180829
1829.132080078125	-3.027609290194329	-8.821535080038892	2.700364324813284	-1.007890689970909	1.462300592733709	1.14669847762545	-0.308641975308642	-0.8744769874476986	0.5533769063180829
1833.038330078125	-2.955203657715114	-8.6516789028245	2.659076139493746	-1.007890689970909	1.462300592733709	1.14669847762545	-0.308641975308642	-0.8744769874476986	0.5533769063180829
1836.944580078125	-3.059226887899319	-8.952991820234862	2.622768241119365	-0.6467776515774426	1.846268312243722	1.15053815482055	-0.308641975308642	-0.8744769874476986	0.5533769063180829
1840.850830078125	-2.927066905724482	-8.868306734064328	2.264687731613277	-0.6467677892223704	1.473134279756165	1.524165305061713	-0.3127572016460906	-0.8744769874476986	0.5577342047930284
1844.757080078125	-2.898744239187713	-9.066343110690461	2.719715604093802	-0.6543195353918699	1.47290772737108	1.146804548971824	-0.3127572016460906	-0.8744769874476986	0.5577342047930284
1848.663330078125	-3.010654691910751	-9.146277271883083	2.58328666019381	-1.391649104517801	0.7045191835808838	0.3844036824018466	-0.3127572016460906	-0.8744769874476986	0.5577342047930284
1852.569580078125	-2.897651991229159	-8.957118314834988	2.53326857444697	-1.376555474533874	1.078106320838611	0.7654980443404616	-0.3168724279835391	-0.8702928870292886	0.5555555555555556
1856.475830078125	-3.03945629048485	-8.996134098990062	2.388485600832518	-0.6467677892223704	1.473134279756165	1.524165305061713	-0.3168724279835391	-0.8702928870292886	0.5555555555555556
1860.382080078125	-3.149221653091318	-8.86155924852573	2.495126790739771	-1.022984319954835	1.088713455475982	0.7656041156868354	-0.3168724279835391	-0.8702928870292886	0.5555555555555556
1864.288330078125	-3.229095189975415	-8.768104856127353	2.589909865899939	-1.015432573785336	1.088940007861067	1.142964871776724	-0.3168724279835391	-0.8702928870292886	0.5555555555555556
1868.194580078125	-3.056403815932434	-8.670684623546435	2.576305771067395	-1.015432573785336	1.088940007861067	1.142964871776724	-0.3189300411522634	-0.8849372384937237	0.5468409586056645
1872.100830078125	-3.1594216930003	-8.871462229322949	2.49452964130082	-1.007880827615836	1.089166560246152	1.520325627866613	-0.3189300411522634	-0.8849372384937237	0.5468409586056645
1876.007080078125	-2.790977457952218	-8.390675088151031	2.825283743740199	-2.474998082053272	-0.07424994246159816	-0.0007424994246159817	-0.3189300411522634	-0.8849372384937237	0.5468409586056645
1879.913330078125	-3.037730518502231	-8.82355690072813	2.477939799273521	-1.399190988332229	0.3311585987082421	0.3806700765531202	-0.3292181069958848	-0.8702928870292886	0.5403050108932462
1883.819580078125	-3.14892156276413	-8.831550215806878	2.466327212975955	-1.752762142911268	0.320551464070871	0.3805640052067465	-0.3292181069958848	-0.8702928870292886	0.5403050108932462
1887.725830078125	-3.002447170941888	-8.325525174996869	2.856729572571041	-1.022974457599763	0.715579422988425	1.139231265927998	-0.3292181069958848	-0.8702928870292886	0.5403050108932462
1891.632080078125	-3.028645965870071	-8.925202647613094	2.432544317051554	-1.745210396741768	0.3207780164559559	0.7579247612966351	-0.3292181069958848	-0.8702928870292886	0.5403050108932462
1895.538330078125	-2.863827668693934	-8.604989091615568	2.460304187924202	-1.015432573785336	1.088940007861067	1.142964871776724	-0.3209876543209877	-0.8807531380753137	0.5533769063180829
1899.444580078125	-3.260528893944552	-8.881172222738035	2.331416908004461	-2.12896881128866	-0.4370033926968688	-0.004370033926968688	-0.3209876543209877	-0.8807531380753137	0.5533769063180829
1903.350830078125	-3.159616701192716	-8.890963048564489	2.564259720963889	-1.376545612178802	0.7049722883510539	1.139125194581624	-0.3209876543209877	-0.8807531380753137	0.5533769063180829
1907.257080078125	-3.077006987183951	-8.710799728496056	2.563992974006388	-1.376545612178802	0.7049722883510539	1.139125194581624	-0.323045267489712	-0.8682008368200836	0.5555555555555556
1911.163330078125	-3.17859109935525	-8.768200844615848	2.681319198290807	-2.113875181304734	-0.06341625543914202	0.3767243280116463	-0.323045267489712	-0.8682008368200836	0.5555555555555556
1915.069580078125	-3.078829758060207	-8.893076816121654	2.514456851512306	-2.113875181304734	-0.06341625543914202	0.3767243280116463	-0.323045267489712	-0.8682008368200836	0.5555555555555556
1918.975830078125	-2.867389346819656	-8.961156904187758	2.189934927989083	-1.752752280556195	-0.05258256841668587	0.7541911554479087	-0.323045267489712	-0.8682008368200836	0.5555555555555556
1922.882080078125	-3.038433760481097	-8.893881098614726	2.514820597363443	-1.745200534386696	-0.05235601603160088	1.131551911537797	-0.3024691358024691	-0.901673640167364	0.5620915032679739
1926.788330078125	-3.007950847750628	-8.875892855870832	2.354408677011781	-2.106333297490306	0.3099443294334998	0.3804579338603727	-0.3024691358024691	-0.901673640167364	0.5620915032679739
1930.694580078125	-2.947543776333242	-8.89579177473834	2.505532953297731	-1.745210396741768	0.3207780164559559	0.7579247612966351	-0.3024691358024691	-0.901673640167364	0.5620915032679739
1934.600830078125	-2.877455002844746	-8.957621496595729	2.523344375141766	-2.490081849682127	-0.8209711122068817	-0.008209711122068817	-0.3024691358024691	-0.901673640167364	0.5620915032679739
1938.507080078125	-2.998851139041337	-8.976022995042721	2.46060427825139	-1.022974457599763	0.715579422988425	1.139231265927998	-0.3024691358024691	-0.901673640167364	0.5620915032679739
1942.413330078125	-2.965532019077136	-8.674414028925739	2.38510882684779	-2.113875181304734	-0.06341625543914202	0.3767243280116463	-0.3024691358024691	-0.901673640167364	0.5620915032679739
1946.319580078125	-3.027312231082566	-8.791829168862657	2.641246530357153	-2.12896881128866	-0.4370033926968688	-0.004370033926968688	-0.3024691358024691	-0.901673640167364	0.5620915032679739
1950.225830078125	-2.936852679525224	-8.836783104037549	2.367176156386709	-1.391639242162729	0.3313851510933271	0.7580308326430089	-0.308641975308642	-0.8828451882845187	0.5511982570806101
1954.132080078125	-2.73565878683019	-8.919414036554297	2.587278770910044	-1.74522025909684	0.6939120489435127	0.3842976110554729	-0.308641975308642	-0.8828451882845187	0.5511982570806101
1958.038330078125	-3.215965985559634	-8.465285424650196	2.595081119416945	-1.384097358348302	0.7047457359659689	0.7617644384917353	-0.308641975308642	-0.8828451882845187	0.5511982570806101
1961.944580078125	-3.058312471245765	-8.861550154879449	2.677854519058722	-2.490091712037199	-0.447837079719325	-0.381836861363231	-0.308641975308642	-0.8828451882845187	0.5511982570806101
1965.850830078125	-3.129027695922332	-8.862365551829084	2.454884374742252	-1.376555474533874	1.078106320838611	0.7654980443404616	-0.308641975308642	-0.8828451882845187	0.5511982570806101
1969.757080078125	-2.887149840182703	-8.917004220290512	2.525278290583648	-1.384097358348302	0.7047457359659689	0.7617644384917353	-0.308641975308642	-0.8828451882845187	0.5511982570806101
1973.663330078125	-2.793840946124784	-8.677023905407651	2.467503324561299	-2.813485469003456	0.6618640926463142	0.006618640926463143	-0.308641975308642	-0.8828451882845187	0.5511982570806101
1977.569580078125	-2.978350018709167	-8.946112982027794	2.462304790105458	-2.113885043659806	0.3097177770484148	0.003097177770484148	-0.3024691358024691	-0.8912133891213389	0.5686274509803922
1981.475830078125	-3.198091918596791	-8.698080748567946	2.583620093890686	-1.752762142911268	0.320551464070871	0.3805640052067465	-0.3024691358024691	-0.8912133891213389	0.5686274509803922
1985.382080078125	-2.77819078087959	-9.132209401090337	2.434799541328607	-2.121426927474233	-0.063642807824227	-0.0006364280782422699	-0.3024691358024691	-0.8912133891213389	0.5686274509803922
1989.288330078125	-2.927348808759113	-8.896497037527489	2.475396609530984	-1.384107220703374	1.077879768453526	0.388137288250573	-0.3024691358024691	-0.8912133891213389	0.5686274509803922
1993.194580078125	-3.01690808933489	-8.761516004196054	2.66306825020998	-1.369013590719447	1.451466905711252	0.769231650189188	-0.3024691358024691	-0.8912133891213389	0.5686274509803922
1997.100830078125	-2.957453829966457	-8.876696127958761	2.375075503787246	-1.376555474533874	1.078106320838611	0.7654980443404616	-0.3024691358024691	-0.8912133891213389	0.5686274509803922
2001.007080078125	-3.078134599322477	-8.823560942348699	2.396727475576209	-1.74522025909684	0.6939120489435127	0.3842976110554729	-0.3024691358024691	-0.8912133891213389	0.5686274509803922
2004.913330078125	-2.897844978611289	-8.97641705304812	2.623210798571582	-2.113894906014878	0.6828518095359716	-0.370529972470678	-0.3024691358024691	-0.8786610878661087	0.5599128540305012
2008.819580078125	-3.047646634566298	-8.805067497033781	2.286845916378406	-1.767855772895194	-0.05303567318685583	-0.0005303567318685583	-0.3024691358024691	-0.8786610878661087	0.5599128540305012
2012.725830078125	-2.967156750545551	-8.836887175767181	2.296160841382954	-1.391649104517801	0.7045191835808838	0.3844036824018466	-0.3024691358024691	-0.8786610878661087	0.5599128540305012
2016.632080078125	-3.137498932633269	-8.699388212821757	2.57405964043662	-1.760313889080767	0.320324911685786	0.003203249116857859	-0.3024691358024691	-0.8786610878661087	0.5599128540305012
2020.538330078125	-2.960781094099223	-8.199321531134411	2.429112981189157	-1.737678375282413	1.067272633816155	0.3880312169041993	-0.3024691358024691	-0.8786610878661087	0.5599128540305012
2024.444580078125	-3.395523062542836	-9.249275951253249	2.624793093024031	-1.730106904402769	0.3212311212261259	1.512646273476412	-0.3024691358024691	-0.8786610878661087	0.5599128540305012
2028.350830078125	-3.18930341467125	-8.829331366114939	2.607448478355622	-2.121426927474233	-0.063642807824227	-0.0006364280782422699	-0.3024691358024691	-0.8786610878661087	0.5599128540305012
2032.257080078125	-3.007046535148494	-8.785461595657466	2.30843423264342	-2.098791413675879	0.6833049143061415	0.3841915397090992	-0.3209876543209877	-0.8849372384937237	0.5555555555555556
2036.163330078125	-2.998140824226477	-8.904991513556695	2.494465985776871	-2.475007944408344	0.2988840900259586	-0.3743696496657782	-0.3209876543209877	-0.8849372384937237	0.5555555555555556
2040.069580078125	-3.187997971227724	-8.698787021762239	2.533180669199611	-2.121426927474233	-0.063642807824227	-0.0006364280782422699	-0.3209876543209877	-0.8849372384937237	0.5555555555555556
2043.975830078125	-2.989756482357755	-9.076658336785638	2.516269518337141	-2.821047077528028	1.034771572748786	-0.7443692654045877	-0.3209876543209877	-0.8849372384937237	0.5555555555555556
2047.882080078125	-2.73533343637445	-8.886878990980327	2.811130998915523	-2.113885043659806	0.3097177770484148	0.003097177770484148	-0.3209876543209877	-0.8849372384937237	0.5555555555555556
2051.788330078125	-3.138840750661909	-8.833570015685835	2.284508849284847	-1.730136491467986	1.440633218688796	0.3917648227529257	-0.3209876543209877	-0.8849372384937237	0.5555555555555556
2055.694580078125	-2.916128259656662	-8.784543137383343	2.582116611039317	-2.866308242769664	-0.8322579039995079	-1.140398050738108	-0.3209876543209877	-0.8849372384937237	0.5555555555555556
2059.600830078125	-2.894785471841166	-8.670466376035753	2.921367210318185	-1.775397656709622	-0.4263962580594976	-0.004263962580594976	-0.3004115226337449	-0.8953974895397488	0.533769063180828
2063.507080078125	-3.139041821285177	-8.853677078012607	2.293602495563286	-1.760313889080767	0.320324911685786	0.003203249116857859	-0.3004115226337449	-0.8953974895397488	0.533769063180828
2067.413330078125	-2.816251732175425	-8.897900490269796	2.557245488467787	-2.482549828222771	-0.07447649484668314	-0.3781032555145046	-0.3004115226337449	-0.8953974895397488	0.533769063180828
2071.319580078125	-2.856962976158854	-8.928620848208645	2.434090236918889	-2.490091712037199	-0.447837079719325	-0.381836861363231	-0.3004115226337449	-0.8953974895397488	0.533769063180828
2075.225830078125	-2.924600506772741	-8.621666838890224	2.691185804502914	-2.098771688965734	-0.06296315066897205	1.131445840191424	-0.3004115226337449	-0.8953974895397488	0.533769063180828
2079.132080078125	-3.117924353816357	-8.762132351332703	2.399401007582071	-2.128978673643732	-0.06386936020931198	-0.3779971841681309	-0.3004115226337449	-0.8953974895397488	0.533769063180828
2083.038330078125	-3.070766725026657	-9.096874522867747	2.352832444990185	-2.497643458206698	-0.4480636321044099	-0.7591976174531196	-0.3004115226337449	-0.8953974895397488	0.533769063180828
2086.944580078125	-2.997044534647353	-8.795362555644402	2.348443245053125	-1.391649104517801	0.7045191835808838	0.3844036824018466	-0.2962962962962963	-0.8786610878661087	0.5533769063180829
2090.850830078125	-3.160344192894991	-8.963712218791999	2.358594785515289	-1.391649104517801	0.7045191835808838	0.3844036824018466	-0.2962962962962963	-0.8786610878661087	0.5533769063180829
2094.757080078125	-3.159834948703399	-8.912787799632742	2.401550139319208	-1.399190988332229	0.3311585987082421	0.3806700765531202	-0.2962962962962963	-0.8786610878661087	0.5533769063180829
2098.663330078125	-3.019055200261744	-8.976227096881415	2.399785971941191	-2.83612098280181	-0.08508362948405432	-0.3782093268608783	-0.2962962962962963	-0.8786610878661087	0.5533769063180829
2102.569580078125	-3.118017311089426	-8.77142807863955	2.479743372452078	-2.128978673643732	-0.06386936020931198	-0.3779971841681309	-0.3045267489711934	-0.8765690376569036	0.5642701525054467
2106.475830078125	-2.814548189105931	-8.727546183320374	2.424366097831812	-1.04561983375319	0.3417657333456133	0.3807761478994939	-0.3045267489711934	-0.8765690376569036	0.5642701525054467
2110.382080078125	-2.696516702032362	-9.04560959717562	2.167218999585542	-1.399190988332229	0.3311585987082421	0.3806700765531202	-0.3045267489711934	-0.8765690376569036	0.5642701525054467
2114.288330078125	-3.009965595603873	-9.077367641195355	2.404920850873083	-1.760313889080767	0.320324911685786	0.003203249116857859	-0.3395061728395062	-0.8702928870292886	0.5577342047930284
2118.194580078125	-3.100539322942266	-9.043831284125615	2.547106072867328	-2.144072303627659	-0.4374564974670387	-0.7590915461067459	-0.3395061728395062	-0.8702928870292886	0.5577342047930284
2122.100830078125	-2.918968508510961	-9.068568022813251	2.456775853168168	-1.384107220703374	1.077879768453526	0.388137288250573	-0.3395061728395062	-0.8702928870292886	0.5577342047930284
2126.007080078125	-3.209197281513049	-8.798516030092737	2.618891316589324	-1.022994182309908	1.461847487963539	0.3919769654456732	-0.3395061728395062	-0.8702928870292886	0.5577342047930284
2129.913330078125	-3.037443563441889	-8.794861394693946	2.317761282509672	-2.444830546795563	1.419192397028969	0.01419192397028969	-0.3024691358024691	-0.8723849372384936	0.5511982570806101
2133.819580078125	-2.878959496101256	-9.108070822246789	2.62691797503776	-1.391668829227945	1.450787248555997	-0.3628506180804778	-0.3024691358024691	-0.8723849372384936	0.5511982570806101
2137.725830078125	-2.957042595073643	-8.835572638677375	2.447842861307314	-2.091259392216524	1.42979953166634	0.0142979953166634	-0.3024691358024691	-0.8723849372384936	0.5511982570806101
2141.632080078125	-2.968848168753341	-9.006028996546146	2.55031309878819	-1.007910414681053	2.208568657708822	0.399444177143126	-0.3271604938271605	-0.8891213389121339	0.542483660130719
2145.538330078125	-3.181724365700743	-9.081527479165169	2.655520523798876	-0.2856744755390484	2.603370064241291	0.7807506817744885	-0.3271604938271605	-0.8891213389121339	0.542483660130719
2149.444580078125	-2.937747898481079	-8.926304999623071	2.504105250832016	-0.6392554924731594	2.965896962091477	0.4070174601869525	-0.3271604938271605	-0.8891213389121339	0.542483660130719
2153.350830078125	-3.220415809805217	-8.910267849208472	2.532383459542535	-0.6467973762875867	2.592536377218835	0.4032838543382261	-0.3271604938271605	-0.8891213389121339	0.542483660130719
2157.257080078125	-3.02871467341973	-8.932073402579027	2.755432415460084	-0.2856843378941205	2.976504096728848	0.4071235315333263	-0.3045267489711934	-0.8786610878661087	0.5468409586056645
2161.163330078125	-2.928049019522553	-8.966518113871468	2.542595624313222	-1.361491431615164	2.571095555559008	0.02571095555559008	-0.3045267489711934	-0.8786610878661087	0.5468409586056645
2165.069580078125	-3.000367757159552	-9.127684806864243	2.442905011378122	-1.384126945413518	1.824147833428639	-0.3591170122317514	-0.3045267489711934	-0.8786610878661087	0.5468409586056645
2168.975830078125	-3.038653018396922	-8.915806890197183	2.34200494348799	-0.2781424540796931	3.34986468160149	0.4108571373820527	-0.3374485596707819	-0.8912133891213389	0.5511982570806101
2172.882080078125	-3.252325414596259	-9.070925298009652	2.564435531458606	-0.6618910062715135	2.218949239961109	0.02218949239961108	-0.3374485596707819	-0.8912133891213389	0.5511982570806101
2176.788330078125	-3.151426357111268	-9.082029650520768	2.665899405418001	-0.2856843378941205	2.976504096728848	0.4071235315333263	-0.3374485596707819	-0.8912133891213389	0.5511982570806101
2180.694580078125	-3.177285655911723	-8.637656500263148	2.607051389134797	-0.6467973762875867	2.592536377218835	0.4032838543382261	-0.3374485596707819	-0.8912133891213389	0.5511982570806101
2184.600830078125	-3.138613409504948	-8.810835899989737	2.538173081006474	-0.3007681055229752	2.229782926983564	0.3996563198358734	-0.3065843621399177	-0.8765690376569036	0.5446623093681918
2188.507080078125	-3.168536557786723	-8.77284769786413	2.236742956599634	-0.6694230277308688	1.47245462260091	0.3920830367920469	-0.3065843621399177	-0.8765690376569036	0.5446623093681918
2192.413330078125	-3.161067642976698	-9.036057226962692	2.193354138989775	-1.760313889080767	0.320324911685786	0.003203249116857859	-0.3065843621399177	-0.8765690376569036	0.5446623093681918
2196.319580078125	-3.227382553259643	-8.596841184550087	2.54798512534091	-1.399190988332229	0.3311585987082421	0.3806700765531202	-0.3292181069958848	-0.8786610878661087	0.5533769063180829
2200.225830078125	-2.947539734712674	-8.895387612681521	2.545957242220818	-0.676945186835152	0.3528259727531544	1.135603731425645	-0.3292181069958848	-0.8786610878661087	0.5533769063180829
2204.132080078125	-3.249191137845624	-8.757497622946126	2.600340278181309	-1.045609971398118	-0.03136829914194354	0.7544032981406561	-0.3292181069958848	-0.8786610878661087	0.5533769063180829
2208.038330078125	-3.18930341467125	-8.829331366114939	2.607448478355622	-1.406723009791584	-0.4153360186519565	0.750563620945556	-0.3292181069958848	-0.8786610878661087	0.5533769063180829
2211.944580078125	-3.249503353034516	-8.788719141835431	2.507866989175863	-2.151604325087014	-1.183951114827237	-0.3891980017143101	-0.2880658436213992	-0.8640167364016735	0.5511982570806101
2215.850830078125	-3.268480782412476	-8.666260059429405	2.594608249810466	-1.391629379807657	-0.04174888139422971	1.131657982884171	-0.2880658436213992	-0.8640167364016735	0.5511982570806101
2219.757080078125	-3.158911438403566	-8.820436769649485	2.547591067335511	-1.752752280556195	-0.05258256841668587	0.7541911554479087	-0.2880658436213992	-0.8640167364016735	0.5511982570806101
2223.663330078125	-3.137105885033012	-8.660083452796062	2.464917697802797	-2.121417065119161	-0.4367768403117838	0.37299072216292	-0.308641975308642	-0.8765690376569036	0.5446623093681918
2227.569580078125	-2.996422125079851	-8.733121598894199	2.513177678602472	-1.391629379807657	-0.04174888139422971	1.131657982884171	-0.308641975308642	-0.8765690376569036	0.5446623093681918
2231.475830078125	-2.796548831905474	-8.947812483476721	2.655957018820241	-1.030526203769263	0.7153528706033401	0.7618705098381089	-0.308641975308642	-0.8765690376569036	0.5446623093681918
2235.382080078125	-2.846852862307514	-8.92771047317566	2.545347967920163	-1.406732872146656	-0.04220198616439969	0.3769364707043938	-0.308641975308642	-0.8765690376569036	0.5446623093681918
2239.288330078125	-3.11992798721304	-8.962495691000971	2.561079975981862	-0.6694230277308688	1.47245462260091	0.3920830367920469	-0.3004115226337449	-0.8702928870292886	0.5620915032679739
2243.194580078125	-3.120322045218439	-9.001901491540874	2.660115846384914	-1.045639558463334	1.088033798320727	-0.3664781525828305	-0.3004115226337449	-0.8702928870292886	0.5620915032679739
2247.100830078125	-3.001051801440719	-9.196089234980944	2.671801181852708	0.06788681668491839	2.987111231366219	0.4072296028796999	-0.3004115226337449	-0.8702928870292886	0.5620915032679739
2251.007080078125	-2.707748365591377	-9.158674942976019	2.95943321363973	-0.654339260102014	2.219175792346193	0.3995502484894997	-0.3168724279835391	-0.8765690376569036	0.5272331154684097
2254.913330078125	-2.978733972663146	-8.984508377425648	2.662401382816228	-0.2857040626042647	3.722772161703962	-0.3401307689489981	-0.3168724279835391	-0.8765690376569036	0.5272331154684097
2258.819580078125	-3.141542574011748	-9.103752350669675	2.53359897692842	0.421438246553813	3.743986430978704	-0.3399186262562507	-0.3168724279835391	-0.8765690376569036	0.5272331154684097
2262.725830078125	-3.41671226877674	-9.347994554441696	2.811564462721461	0.759905908793853	3.754140460845905	-1.094534067089654	-0.3168724279835391	-0.8765690376569036	0.5272331154684097
2266.632080078125	-3.170697814385565	-8.988973357748362	2.84207667720105	1.105925317203392	3.764521043098191	-1.471788751833169	-0.3127572016460906	-0.8891213389121339	0.5664488017429194
2270.538330078125	-3.609967408270698	-9.481589311918242	2.196891567392088	1.828171118700469	3.786188417143104	-0.7168550969606445	-0.3127572016460906	-0.8891213389121339	0.5664488017429194
2274.444580078125	-3.658996307383473	-9.333974172690628	2.718933550513857	1.429309211814578	3.027953903220109	-2.233871404364026	-0.3127572016460906	-0.8891213389121339	0.5664488017429194
2278.350830078125	-3.447023412633062	-9.348805909770762	2.669806642102304	2.106274123359874	1.928859865491841	-2.622220835307346	-0.3168724279835391	-0.8912133891213389	0.5555555555555556
2282.257080078125	-3.521157848310322	-9.691542406789697	2.591322412288524	4.227710913189179	1.619368640828511	-2.247957256987942	-0.3168724279835391	-0.8912133891213389	0.5555555555555556
2286.163330078125	-3.498517700292435	-9.447729625203046	2.775456624565207	4.889582194750548	0.1466874658425165	-3.017401049869877	-0.3168724279835391	-0.8912133891213389	0.5555555555555556
2290.069580078125	-3.065451993979481	-9.575502428251108	2.985519853597145	6.604625056234608	-1.667532890104007	-3.790260234561418	-0.3168724279835391	-0.8912133891213389	0.5555555555555556
2293.975830078125	-3.052526891402394	-9.293093180643336	2.969466536700275	7.657796636157296	-2.009072071064535	-3.793675626371023	-0.3189300411522634	-0.8723849372384936	0.5555555555555556
2297.882080078125	-2.862083709418757	-9.440694174198962	2.731667686519097	9.041893994505596	-2.713817807030504	-4.555440064862759	-0.3189300411522634	-0.8723849372384936	0.5555555555555556
2301.788330078125	-3.494836794359951	-9.079639031954679	3.228241397630384	10.42600121520897	-3.791697575484029	-4.943577353113331	-0.3189300411522634	-0.8723849372384936	0.5555555555555556
2305.694580078125	-3.003427263929675	-9.433635483876609	3.15484960973253	10.77956250743294	-3.407956408359101	-5.31709843200812	-0.3148148148148148	-0.8870292887029287	0.5490196078431373
2309.600830078125	-2.982629084485743	-9.374019559685447	3.097432327130467	10.33542957295034	-5.660086366542833	-7.603770674986183	-0.3148148148148148	-0.8870292887029287	0.5490196078431373
2313.507080078125	-3.034132465791395	-9.473852639745575	3.112127659516424	11.42634015901038	-5.254224720602823	-6.46763658682867	-0.3148148148148148	-0.8870292887029287	0.5490196078431373
2317.413330078125	-3.164811194027989	-9.410412332091761	3.134194907818769	10.65883319227167	-7.142921571396029	-7.618599027034715	-0.3148148148148148	-0.8870292887029287	0.5490196078431373
2321.319580078125	-3.396780006539545	-9.374970350924116	3.184152369257086	11.32824635764746	-8.242242161509381	-8.384309214067924	-0.3045267489711934	-0.8702928870292886	0.5686274509803922
2325.225830078125	-2.934455998528285	-9.607216014444591	3.106456255454104	12.73498909214919	-8.57317420783254	-8.387618534531157	-0.3045267489711934	-0.8702928870292886	0.5686274509803922
2329.132080078125	-2.962590729708633	-9.390386102176354	3.521056807796117	14.45002209127818	-10.01426053129151	-9.534104869463858	-0.3045267489711934	-0.8702928870292886	0.5686274509803922
2333.038330078125	-2.820908689475128	-9.363596220240071	3.453106051588195	14.80359324585722	-10.00365339665414	-9.533998798117485	-0.2983539094650206	-0.8891213389121339	0.5577342047930284
2336.944580078125	-2.792213183440944	-9.524348647124606	3.596870536819462	15.47300641123302	-11.10297398676749	-10.29970898515069	-0.2983539094650206	-0.8891213389121339	0.5577342047930284
2340.850830078125	-2.50945332524888	-9.53119111074656	3.478143891008163	15.44282901362024	-12.2232822937705	-10.68827055878676	-0.2983539094650206	-0.8891213389121339	0.5577342047930284
2344.757080078125	-2.073443298351996	-9.364531855401609	3.844372307579734	15.08924799668612	-11.86075539592031	-11.0620037803743	-0.2983539094650206	-0.8891213389121339	0.5577342047930284
2348.663330078125	-2.399461631890593	-9.643132886028999	3.615060860591766	14.72810537122744	-11.12532101796766	-12.18672490829288	-0.3127572016460906	-0.8682008368200836	0.5773420479302833
2352.569580078125	-2.157649452485199	-9.704339187913748	4.038661091534007	15.4427698394898	-9.984478098845157	-12.93003346023374	-0.3127572016460906	-0.8682008368200836	0.5773420479302833
2356.475830078125	-2.290406584098986	-9.848739217979361	3.474557963159033	16.51854734614563	-8.459667460212646	-13.66950233497949	-0.3127572016460906	-0.8682008368200836	0.5773420479302833
2360.382080078125	-1.920461897414961	-10.22800792331421	3.661314176779332	19.36219048805172	-7.254955180880836	-14.03481370275221	-0.3106995884773663	-0.8535564853556484	0.5686274509803922
2364.288330078125	-2.391867426842955	-9.893813391366157	3.814723989496597	21.13755855769613	-5.709156825358669	-15.1514311908951	-0.3106995884773663	-0.8535564853556484	0.5686274509803922
2368.194580078125	-2.309562855187088	-9.744164306587598	3.792726459149053	21.09226780538927	-6.456784204644292	-16.6683414269521	-0.3106995884773663	-0.8535564853556484	0.5686274509803922
2372.100830078125	-2.378319914698365	-9.549163187008181	3.963405106149073	23.61253691503926	-4.888638817921957	-15.89794299195281	-0.3106995884773663	-0.8535564853556484	0.5686274509803922
2376.007080078125	-2.281270500804581	-9.945231898639877	3.944572164706426	24.33474326711604	-3.374435313926817	-16.63751793804493	-0.2839506172839507	-0.8682008368200836	0.5729847494553377
2379.913330078125	-2.32157253070548	-9.935030848325752	3.873972126216052	25.38034337615909	-2.969932982297317	-17.76554838642675	-0.2839506172839507	-0.8682008368200836	0.5729847494553377
2383.819580078125	-2.302910347731839	-10.0890145711637	3.664439359883689	27.14817942434414	-2.170629244135347	-18.5122723301772	-0.2839506172839507	-0.8682008368200836	0.5729847494553377
2387.725830078125	-2.492059200728511	-9.811980678911628	3.716803606370366	29.30731577089051	-0.2401835119479115	-18.49296787285533	-0.2839506172839507	-0.8598326359832635	0.5904139433551199
2391.632080078125	-2.483701129393483	-9.986274555509898	3.475849260930571	32.13587514516775	0.2178075976386145	-18.8657464523255	-0.2839506172839507	-0.8598326359832635	0.5904139433551199
2395.538330078125	-2.398252176935561	-9.522187390525763	3.590817199613448	33.93390831567572	1.391151577828481	-18.47665452195757	-0.2839506172839507	-0.8598326359832635	0.5904139433551199
2399.444580078125	-2.512774526950794	-9.863311280937989	3.592817801794705	34.58817853929223	1.783914012895185	-21.4915948221352	-0.2839506172839507	-0.8598326359832635	0.5904139433551199
2403.350830078125	-2.631114187592688	-9.576065223915229	3.797915899958615	37.45449664441697	2.243037884407136	-19.97756962115593	-0.2942386831275721	-0.8514644351464434	0.5838779956427016
2407.257080078125	-2.56224800432607	-9.76015396796052	3.708592043780936	38.86877140037805	2.658600455444178	-20.3507724860116	-0.2942386831275721	-0.8514644351464434	0.5838779956427016
2411.163330078125	-2.35966076294015	-9.703450031388744	3.723554123124394	39.54571658721321	2.305774482691023	-21.48637621743724	-0.2942386831275721	-0.8514644351464434	0.5838779956427016
2415.069580078125	-2.700784653352376	-9.472404729177018	3.92361434125005	41.29847873012447	1.985223018620152	-21.86694022264399	-0.2942386831275721	-0.8514644351464434	0.5838779956427016
2418.975830078125	-2.610015917821567	-9.48644026700522	3.711699039592736	43.8036640721456	2.806647235597204	-21.10400899934214	-0.2942386831275721	-0.8514644351464434	0.5838779956427016
2422.882080078125	-2.278263535101843	-9.644535328366162	3.717212820452896	45.57150998268572	3.232816941271617	-21.47710579285144	-0.2942386831275721	-0.8514644351464434	0.5838779956427016
2426.788330078125	-2.730903820231708	-9.454018386807157	3.681808224275508	46.57940067265663	1.770516348537908	-22.62380427047689	-0.2942386831275721	-0.8514644351464434	0.5838779956427016
2430.694580078125	-2.66031590660304	-9.46593409464734	3.641514277615745	48.40008908167311	2.944539985883029	-21.10263007183929	-0.2736625514403292	-0.8451882845188283	0.5969498910675382
2434.600830078125	-2.580141268986612	-9.529278413812662	3.528037696922532	50.1679448545683	2.997575659069885	-21.10209971510742	-0.2736625514403292	-0.8451882845188283	0.5969498910675382
2438.507080078125	-2.528092268904254	-9.374883456081898	3.920116318648277	51.5897614943438	3.786498814979568	-21.47156897411436	-0.2736625514403292	-0.8451882845188283	0.5969498910675382
2442.413330078125	-2.365709048120455	-9.298177539318125	3.834666355785213	52.28180031116289	3.807259979484141	-22.22607834360139	-0.2736625514403292	-0.8451882845188283	0.5969498910675382
2446.319580078125	-2.458794642641981	-9.515827900561709	4.105681264606102	54.07229159785643	4.607243374801365	-21.84072001908218	-0.2736625514403292	-0.8451882845188283	0.5969498910675382
2450.225830078125	-2.457707446709137	-9.407108307277261	3.86870387380541	55.52430535995487	5.770206772738945	-21.07437340397072	-0.2736625514403292	-0.8451882845188283	0.5969498910675382
2454.132080078125	-2.145354842716749	-9.484979221169816	3.777024763241615	57.29216113285007	5.823242445925801	-21.07384304723886	-0.2736625514403292	-0.8451882845188283	0.5969498910675382
2458.038330078125	-2.45333946528006	-8.970310164369577	4.122910693088317	59.4135880603243	5.886885253750028	-21.07320661916062	-0.2592592592592593	-0.8305439330543932	0.6252723311546842
2461.944580078125	-2.61867711069921	-9.342458544668412	3.951134746104032	60.82786281628537	6.302447824787069	-21.44640948401628	-0.2592592592592593	-0.8305439330543932	0.6252723311546842
2465.850830078125	-2.958097458041942	-8.941058935507266	4.018315573593713	61.55766036395195	6.324341751217066	-20.31411507305387	-0.2592592592592593	-0.8305439330543932	0.6252723311546842
2469.757080078125	-2.970628502613631	-9.184062382575137	3.935333020087532	65.10092365591184	6.430639649975864	-19.93569360350024	-0.2592592592592593	-0.8305439330543932	0.6252723311546842
2473.663330078125	-2.956688953273926	-8.800208458705669	3.964766121875412	65.78544031362664	5.331772164632681	-19.94668227835367	-0.2592592592592593	-0.8305439330543932	0.6252723311546842
2477.569580078125	-3.04052125750457	-9.102630800962002	3.857897590811199	66.82353798827556	3.870377781439312	-19.58393773161957	-0.2592592592592593	-0.8305439330543932	0.6252723311546842
2481.475830078125	-2.979198759028488	-9.030987013959891	4.074214217267277	67.89935494435167	3.902652290121595	-18.82889800540067	-0.2592592592592593	-0.8305439330543932	0.6252723311546842
2485.382080078125	-2.713727943222021	-8.746531695939469	3.757758357993029	68.23785219365692	2.793404222526126	-18.46263199551059	-0.2777777777777778	-0.809623430962343	0.6666666666666667
2489.288330078125	-2.433052550838005	-8.961820740366084	4.002325912220791	69.31366914973303	2.825678731208409	-17.70759226929169	-0.2777777777777778	-0.809623430962343	0.6666666666666667
2493.194580078125	-2.53456088262365	-9.011643817920509	3.867506543712082	69.6597181452078	1.716657215998025	-16.96396550331172	-0.2777777777777778	-0.809623430962343	0.6666666666666667
2497.100830078125	-2.230762368563847	-8.934822714970542	4.076405786020381	69.64462451522388	1.343070078740298	-17.34505986525033	-0.2777777777777778	-0.809623430962343	0.6666666666666667
2501.007080078125	-2.424047820212066	-9.071448687873234	4.168651733868865	71.42758378045806	1.396558856697324	-16.58980799633869	-0.2777777777777778	-0.809623430962343	0.6666666666666667
2504.913330078125	-2.189368090704393	-8.835798969429193	3.960558794863921	71.75096767506926	0.6599917168192417	-17.35189064886955	-0.2777777777777778	-0.809623430962343	0.6666666666666667
2508.819580078125	-2.380621617611952	-8.76923246826588	4.174095796774224	72.10454869200335	0.2974648189690562	-16.97815742728201	-0.2777777777777778	-0.809623430962343	0.6666666666666667
2512.725830078125	-2.260570330659427	-8.885315894225577	3.916966885820512	73.57165608408572	1.834015354164362	-15.83071645023194	-0.257201646090535	-0.7887029288702928	0.6906318082788672
2516.632080078125	-2.026138150411557	-8.674421101761734	4.263189280579516	74.2939018855828	1.855682728209275	-15.07578279535942	-0.257201646090535	-0.7887029288702928	0.6906318082788672
2520.538330078125	-1.858018859636346	-9.034209195957885	3.974153796050187	75.74591564768123	3.018646126146855	-14.30943618024797	-0.257201646090535	-0.7887029288702928	0.6906318082788672
2524.444580078125	-2.189775283976639	-8.87651829665376	3.92821572626694	76.8217128790472	3.797188699804252	-14.30165075451139	-0.257201646090535	-0.7887029288702928	0.6906318082788672
2528.350830078125	-2.309242556757059	-8.70203345348364	3.966048326000672	78.28126852496007	5.333512682614474	-13.53157053355121	-0.257201646090535	-0.7887029288702928	0.6906318082788672
2532.257080078125	-2.130482689430933	-9.007864902689247	4.043453443122744	79.725730540889	6.496249528166969	-13.14258467452965	-0.257201646090535	-0.7887029288702928	0.6906318082788672
2536.163330078125	-2.028875337941367	-8.948139854742744	4.158566880146076	80.07929183311296	6.879990695291896	-13.51610575342444	-0.257201646090535	-0.7887029288702928	0.6906318082788672
2540.069580078125	-1.847429813747676	-8.985405617191786	3.825184713932228	81.1928280706163	8.405934095849831	-12.36877084772075	-0.2469135802469136	-0.7698744769874476	0.7233115468409587
2543.975830078125	-2.159157987362277	-8.845091665520616	4.101810402506913	83.02103863873705	10.69958638304271	-11.59111734371674	-0.2469135802469136	-0.7698744769874476	0.7233115468409587
2547.882080078125	-2.065131705653503	-8.533372585552293	4.148639649625447	84.11193936244202	11.47858206147028	-10.82861040580039	-0.2469135802469136	-0.7698744769874476	0.7233115468409587
2551.788330078125	-2.197231063519817	-8.611995240870534	4.102983482876832	85.54884963220145	12.64109235463769	-10.81698530286872	-0.2469135802469136	-0.7698744769874476	0.7233115468409587
2555.694580078125	-2.221050354338474	-8.973722302534277	4.246275098501619	87.36197643269337	14.18802347208528	-10.04679901056217	-0.2469135802469136	-0.7698744769874476	0.7233115468409587
2559.600830078125	-2.385895932453446	-8.286562942314324	3.945651277398134	87.74573484724026	14.94580488123811	-9.284504215338563	-0.2469135802469136	-0.7698744769874476	0.7233115468409587
2563.507080078125	-2.208735536467184	-8.752341525506251	4.186760214824663	88.43024164259998	14.22007142838248	-9.669120040433157	-0.2469135802469136	-0.7698744769874476	0.7233115468409587
2567.413330078125	-2.115317518653923	-8.501448835089262	4.210340039624655	89.90489091849678	16.12998254845043	-8.517945457534365	-0.257201646090535	-0.7196652719665272	0.7254901960784315
2571.319580078125	-2.16642886276446	-8.562078195637898	4.105787357146017	90.64222048762271	16.89837109224062	-7.755544590964387	-0.257201646090535	-0.7196652719665272	0.7254901960784315
2575.225830078125	-2.144184793562257	-8.35787329561956	4.368745295364208	90.34146224445479	18.75501998673663	-6.982261120887351	-0.257201646090535	-0.7196652719665272	0.7254901960784315
2579.132080078125	-2.037757809545118	-8.826286005016804	4.204974788320376	91.41726933817584	19.16042852790647	-6.600848544909615	-0.257201646090535	-0.7196652719665272	0.7254901960784315
2583.038330078125	-2.267263254320359	-8.54450725021767	4.651112105956015	92.54588934330802	21.43309309820969	-5.446046427508469	-0.2427983539094651	-0.707112970711297	0.7516339869281047
2586.944580078125	-2.379711242578966	-8.678194964967286	4.188757785790493	92.55342136476736	22.17958771556989	-5.815939971900906	-0.2427983539094651	-0.707112970711297	0.7516339869281047
2590.850830078125	-1.962283576649501	-8.349569786162203	4.552797664824386	93.34356384530444	24.81523228849346	-4.280149563907519	-0.2427983539094651	-0.707112970711297	0.7516339869281047
2594.757080078125	-2.257593677110952	-8.587650539378012	4.396526384744839	95.14914876198191	25.98880282106841	-3.513696877449694	-0.2489711934156379	-0.6903765690376569	0.758169934640523
2598.663330078125	-2.385654445624497	-8.26241425941936	4.340800520350566	95.51026180037539	26.37277054057843	-3.509857200254594	-0.2489711934156379	-0.6903765690376569	0.758169934640523
2602.569580078125	-2.386852786122966	-8.382248309266345	4.476210975867374	95.89403007727736	26.75741791724369	-2.373935254789827	-0.2489711934156379	-0.6903765690376569	0.758169934640523
2606.475830078125	-2.30627398644972	-8.405176422749713	4.364759247078826	97.70716674012432	27.93121500220373	-1.230121812242114	-0.2489711934156379	-0.6903765690376569	0.758169934640523
2610.382080078125	-2.534493185479133	-7.994773093367773	4.54461338317379	98.4369642877909	27.95310892863372	-0.09782740127970047	-0.2654320987654321	-0.6548117154811715	0.7843137254901962
2614.288330078125	-2.514585172965345	-8.024173862191105	4.674655556170893	99.52034285239158	27.61247595721354	1.408200231270249	-0.2654320987654321	-0.6548117154811715	0.7843137254901962
2618.194580078125	-2.836220368997735	-7.864461142197743	4.851142011927409	100.212421118631	26.14070099176788	2.148199462747868	-0.2654320987654321	-0.6548117154811715	0.7843137254901962
2622.100830078125	-2.987288062595731	-7.819715350482113	4.983181755890342	100.9120609933949	24.29601854621976	3.639186600556537	-0.2427983539094651	-0.6589958158995816	0.7908496732026145
2626.007080078125	-2.583693853466055	-7.864334841554987	5.368825107266379	99.79102232149744	20.90417843083895	3.982626689968767	-0.2427983539094651	-0.6589958158995816	0.7908496732026145
2629.913330078125	-3.034936748284466	-7.534078868850637	5.168704264832201	100.1521748093112	19.79561002039874	5.480974968128516	-0.2427983539094651	-0.6589958158995816	0.7908496732026145
2633.819580078125	-2.791753449101311	-7.458173192959366	5.164830371517585	98.72283601043139	17.8870582146413	6.593964921769055	-0.2427983539094651	-0.6589958158995816	0.7908496732026145
2637.725830078125	-3.063012875966575	-7.311388606758515	5.159355996457965	98.76060460363396	17.51505694407917	8.85439585245966	-0.2530864197530864	-0.6317991631799162	0.8213507625272332
2641.632080078125	-2.899968850219876	-7.168602193704751	5.622671211913575	97.67729507551877	15.24375168808646	9.963758271597847	-0.2530864197530864	-0.6317991631799162	0.8213507625272332
2645.538330078125	-2.967969116279758	-6.897921728985881	5.281989878953566	96.94755670198265	12.98305356673112	11.07322676208241	-0.2530864197530864	-0.6317991631799162	0.8213507625272332
2649.444580078125	-3.321895850246884	-6.937059772163139	5.710837143798466	96.59403485917896	11.10677626965597	12.94125644194184	-0.271604938271605	-0.5962343096234309	0.8213507625272332
2653.350830078125	-3.294545193456766	-7.232297123454363	5.534732621185644	96.22540952403628	9.230045867810642	14.0545646096215	-0.271604938271605	-0.5962343096234309	0.8213507625272332
2657.257080078125	-3.322915349035211	-7.039009650995861	5.614820363959856	95.1722675311788	8.452182951308499	15.1788614521546	-0.271604938271605	-0.5962343096234309	0.8213507625272332
2661.163330078125	-3.283836919761334	-7.171570764012091	5.568179052197743	93.05086032841471	7.642272078509158	15.92547932455868	-0.271604938271605	-0.5962343096234309	0.8213507625272332
2665.069580078125	-3.141423346204986	-7.071627549791478	5.746317520361509	91.65923094860705	7.600523197114929	17.05713730744285	-0.2654320987654321	-0.5836820083682008	0.8344226579520698
2668.975830078125	-3.02082846128604	-7.133351179108954	5.875750419057955	90.27514345261383	7.932134900593342	18.19252889617574	-0.2654320987654321	-0.5836820083682008	0.8344226579520698
2672.882080078125	-3.224237162052445	-7.272201053729295	5.725359696905133	88.52239117205762	7.879552332176655	18.94672005162365	-0.2654320987654321	-0.5836820083682008	0.8344226579520698
2676.788330078125	-3.172228578175769	-7.121847716566729	5.713195429400008	87.83790410140806	7.859017720057167	20.07859017720057	-0.2736625514403292	-0.5397489539748953	0.8474945533769064
2680.694580078125	-3.202723615767943	-7.141048445481081	5.752334482982409	87.48435267153916	7.102142520444683	20.82573840633652	-0.2736625514403292	-0.5397489539748953	0.8474945533769064
2684.600830078125	-3.323901504453851	-7.13762519285982	5.852303967736714	87.49191428006372	6.729235040342211	21.57672631266757	-0.2736625514403292	-0.5397489539748953	0.8474945533769064
2688.507080078125	-3.102628840776023	-7.232581047299279	5.89017294205556	87.47683051243487	5.982513870596928	21.56925910097012	-0.2736625514403292	-0.5397489539748953	0.8474945533769064
2692.413330078125	-3.302784036985032	-7.046080466179918	5.958102479755499	88.54508585998641	6.387695859381682	21.57331092085797	-0.2777777777777778	-0.5271966527196652	0.8627450980392157
2696.319580078125	-3.121098036367533	-7.059298586248199	6.00976348426331	89.97447397064158	6.430577502701337	22.32845671842324	-0.2777777777777778	-0.5271966527196652	0.8627450980392157
2700.225830078125	-3.142109411296437	-7.140234058936589	5.95500154637455	90.68916802596915	6.452018324361164	22.70602961720588	-0.2777777777777778	-0.5271966527196652	0.8627450980392157
2704.132080078125	-3.149760199032031	-6.895211822394906	6.199499382647511	91.05785253524226	6.089944531281149	23.83448435097319	-0.2695473251028807	-0.502092050209205	0.8823529411764707
2708.038330078125	-3.056331066762207	-6.643207686321666	6.334246001985993	91.00502976147607	4.595822534635326	22.68746765930862	-0.2695473251028807	-0.502092050209205	0.8823529411764707
2711.944580078125	-2.874049937516041	-6.596912943523275	6.277777489812314	90.6816360045098	5.705523707000966	23.07592316159831	-0.2695473251028807	-0.502092050209205	0.8823529411764707
2715.850830078125	-2.985621904516492	-6.642998532457262	6.496579712917832	89.58319339699041	4.553167443700757	22.30968261783324	-0.2695473251028807	-0.502092050209205	0.8823529411764707
2719.757080078125	-2.948586514439837	-6.979863565195751	6.217480552555411	91.03520715908884	5.716130841638337	23.07602923294469	-0.2818930041152264	-0.4916317991631799	0.8932461873638345
2723.663330078125	-3.088735770072853	-6.853374987083235	6.464827731328949	91.04274904290327	6.089491426510979	23.07976283879341	-0.2818930041152264	-0.4916317991631799	0.8932461873638345
2727.569580078125	-3.019460372723705	-6.996542322875551	6.428059088209794	91.04274904290327	6.089491426510979	23.07976283879341	-0.2818930041152264	-0.4916317991631799	0.8932461873638345
2731.475830078125	-2.968773398772829	-6.978349978292964	6.328465474168332	92.14873353423708	7.615208274683829	23.84973698840722	-0.2777777777777778	-0.4832635983263598	0.9106753812636167
2735.382080078125	-3.189331706015228	-6.811958480310656	6.364882496298053	92.85587584339515	7.636422543958572	23.84994913109997	-0.2777777777777778	-0.4832635983263598	0.9106753812636167
2739.288330078125	-3.08209134585874	-7.199033575772976	6.255692054217412	93.21699874414369	7.647256230981028	24.22741595853623	-0.2777777777777778	-0.4832635983263598	0.9106753812636167
2743.194580078125	-3.179142780562808	-6.803166945169689	6.254312851198515	93.56301815255324	7.657636813233314	23.85016127379271	-0.2777777777777778	-0.4832635983263598	0.9106753812636167
2747.100830078125	-2.980965957621931	-7.1875048531022	6.600714087667662	93.20943713561913	8.0201637110835	23.47642805220518	-0.2942386831275721	-0.4476987447698744	0.9346405228758171
2751.007080078125	-3.191124164737223	-6.991204352510107	6.618528540727124	94.63882524627428	8.063045354403155	24.23157384977045	-0.2942386831275721	-0.4476987447698744	0.9346405228758171
2754.913330078125	-3.321612936807111	-6.908768428185774	6.52033534821254	94.62372175393529	8.062592249632985	23.47685233759067	-0.2942386831275721	-0.4476987447698744	0.9346405228758171
2758.819580078125	-3.269579092801883	-6.755889078168086	6.760822886476709	94.99994814702282	8.073879041425609	24.60904067720671	-0.2983539094650206	-0.4309623430962343	0.9063180827886711
2762.725830078125	-2.915812002847201	-6.732715436235197	6.755418229371891	96.10594250071173	9.226461857110904	25.75264197706168	-0.2983539094650206	-0.4309623430962343	0.9063180827886711
2766.632080078125	-3.288276639955495	-6.605441773327308	6.616643124732061	96.13614948538974	9.227368066651245	27.26208500142123	-0.2983539094650206	-0.4309623430962343	0.9063180827886711
2770.538330078125	-3.109926997117042	-6.952295671300093	6.631386956564836	96.82817843985373	9.621263263643373	26.13394848169304	-0.2983539094650206	-0.4309623430962343	0.9063180827886711
2774.444580078125	-3.094952792911879	-6.464976260884831	6.908427921652904	97.56551787133473	10.01651777494601	27.26997649850418	-0.3004115226337449	-0.4142259414225941	0.925925925925926
2778.350830078125	-3.316646795533941	-6.412154300868805	6.696730867506272	97.91908902591378	10.02712490958339	27.27008256985055	-0.3004115226337449	-0.4142259414225941	0.925925925925926
2782.257080078125	-3.094039386663467	-6.373635636043622	6.953408127361488	97.56551787133473	10.01651777494601	27.26997649850418	-0.3004115226337449	-0.4142259414225941	0.925925925925926
2786.163330078125	-2.991950071921143	-6.265714262821393	6.838612967957902	97.55042424135081	9.642930637688286	26.88888213656556	-0.3168724279835391	-0.3661087866108786	0.9281045751633988
2790.069580078125	-3.043037166308271	-6.323918651029112	6.976606019017786	97.2119467167557	10.00591064030864	27.26987042715781	-0.3168724279835391	-0.3661087866108786	0.9281045751633988
2793.975830078125	-3.242209238314066	-6.039105649588406	6.776733736248551	97.96436991586555	11.14788632135656	28.4133656556664	-0.3168724279835391	-0.3661087866108786	0.9281045751633988
2797.882080078125	-3.273780357382522	-6.165914526130953	7.164016975170133	96.92631169063694	11.11674457459971	29.54512970989694	-0.3168724279835391	-0.3661087866108786	0.9281045751633988
2801.788330078125	-3.294306737843243	-6.198350552001002	6.909664657546771	97.64853776742386	11.88468001361973	29.55280906428714	-0.3148148148148148	-0.3535564853556485	0.9564270152505447
2805.694580078125	-3.304810909699981	-6.23866672757389	6.89744279694855	96.55763704371888	11.10568433519216	28.79030212637079	-0.3148148148148148	-0.3535564853556485	0.9564270152505447
2809.600830078125	-3.416703175130462	-6.316782159510822	6.942923153202448	97.3025282213694	11.50116539887989	30.30369089927182	-0.3148148148148148	-0.3535564853556485	0.9564270152505447
2813.507080078125	-3.383266848169784	-6.003452493746073	7.029631070467364	97.66365112211793	11.51199908590234	30.68115772670808	-0.3189300411522634	-0.305439330543933	0.9455337690631809
2817.413330078125	-3.666954258282249	-6.089365222164196	6.961892499339272	96.941425045331	10.74406364688232	30.67347837231788	-0.3189300411522634	-0.305439330543933	0.9455337690631809
2821.319580078125	-3.475667388005002	-6.15259738635875	7.081855881044438	96.21920883089915	9.602994175374736	31.03942616816884	-0.3189300411522634	-0.305439330543933	0.9455337690631809
2825.225830078125	-3.514951939927858	-6.040648538240315	7.087060477931131	96.58789334017226	9.240920382294721	32.16788090193616	-0.3189300411522634	-0.305439330543933	0.9455337690631809
2829.132080078125	-3.466671751025342	-6.263134698493743	7.157227052615566	95.86567712574039	8.099850910787138	32.53382869778712	-0.3127572016460906	-0.2928870292887029	0.9738562091503269
2833.038330078125	-3.27235871734766	-6.023750522644692	7.241846462451866	95.83551945283776	6.233274538809014	32.89252142463337	-0.3127572016460906	-0.2928870292887029	0.9738562091503269
2836.944580078125	-3.542940162362609	-5.809167751412369	6.946839483533029	96.58040076813319	7.001889634984295	34.03228304729324	-0.3127572016460906	-0.2928870292887029	0.9738562091503269
2840.850830078125	-3.533624226952919	-5.887675220544415	7.195532521955776	96.92643990125288	6.266002152261467	34.40228266303205	-0.3333333333333334	-0.2719665271966527	0.9673202614379086
2844.757080078125	-3.339718386547482	-5.689010371919928	7.247808863195096	96.9339817850673	6.639362737134109	34.40601626888078	-0.3333333333333334	-0.2719665271966527	0.9673202614379086
2848.663330078125	-3.180870573355712	-5.965845214359018	7.154747518396978	96.55024309523056	5.13531326300617	34.3909757741395	-0.3333333333333334	-0.2719665271966527	0.9673202614379086
2852.569580078125	-3.370803500742613	-5.767218761129929	7.445607794612846	95.82047513462919	3.994017239113503	34.37956281390057	-0.3333333333333334	-0.2719665271966527	0.9673202614379086
2856.475830078125	-3.379907251072472	-5.667492784014858	7.29898790445015	96.1816078977328	3.631716893648402	35.130656791578	-0.3292181069958848	-0.2468619246861924	0.9694989106753814
2860.382080078125	-3.307278319056865	-5.475306653161189	7.470939661929151	95.80539136700034	3.24729606936822	34.37209560220312	-0.3292181069958848	-0.2468619246861924	0.9694989106753814
2864.288330078125	-3.286662012538502	-5.433878021526905	7.61463139799019	95.44428819096194	2.49019431737065	34.74188307524918	-0.3292181069958848	-0.2468619246861924	0.9694989106753814
2868.194580078125	-3.244670585240097	-5.275139332090476	7.410867034613783	95.0907170363829	2.479587182733278	34.7417770039028	-0.3251028806584362	-0.2154811715481171	0.9847494553376908
2872.100830078125	-3.447672092734257	-5.373269879486252	7.292819381057942	94.36093921342648	1.711425191328168	34.35673689342272	-0.3251028806584362	-0.2154811715481171	0.9847494553376908
2876.007080078125	-3.133675559575756	-5.286747876767474	7.482103628343648	94.72961386034451	1.722485430735708	35.11156447694887	-0.3251028806584362	-0.2154811715481171	0.9847494553376908
2879.913330078125	-3.273146833358457	-5.092461113623485	7.43991820325797	93.60097413050218	0.1960889254076029	33.2095080590654	-0.3251028806584362	-0.2154811715481171	0.9847494553376908
2883.819580078125	-3.010869908206007	-5.127394861004678	7.501400345746495	93.61607762284119	0.1965420301777729	33.96422957124518	-0.323045267489712	-0.1841004184100418	0.9891067538126362
2887.725830078125	-3.07188221230348	-5.168019210145892	7.357344863834318	93.61605789813103	0.9428100951528865	33.21697527076285	-0.323045267489712	-0.1841004184100418	0.9891067538126362
2891.632080078125	-3.091292095082236	-5.088805467819553	7.159091250102645	93.24739311356807	0.5586158232577885	32.83577483747786	-0.323045267489712	-0.1841004184100418	0.9891067538126362
2895.538330078125	-3.199604495094438	-4.808934357928607	7.656850166445555	92.52516703678114	-0.2093196157622372	32.82809548308767	-0.323045267489712	-0.1841004184100418	0.9891067538126362
2899.444580078125	-2.959154341820525	-5.006343272961526	7.588778161620588	92.93909298658573	2.041904132881155	33.60532470170617	-0.323045267489712	-0.1841004184100418	0.9891067538126362
2903.350830078125	-2.874824918259993	-4.654208997716395	7.61732917971946	92.93152151570609	2.787945645471183	32.48070964513396	-0.323045267489712	-0.1841004184100418	0.9891067538126362
2907.257080078125	-3.151854768891497	-5.084466788139595	7.471833870479864	93.66129933866253	3.556107636876294	32.86574975561405	-0.323045267489712	-0.1841004184100418	0.9891067538126362
2911.163330078125	-3.008638933652363	-4.90429740564031	7.59338560906833	93.66884122247696	3.929468221748936	32.86948336146278	-0.3271604938271605	-0.1443514644351464	0.9847494553376908
2915.069580078125	-3.009267405650717	-4.967144605475744	7.368014742134354	93.67638310629138	4.302828806621578	32.8732169673115	-0.3271604938271605	-0.1443514644351464	0.9847494553376908
2918.975830078125	-3.067841602140426	-4.763958193840589	7.367487310650204	94.03749614468485	4.686796526131591	32.8770566445066	-0.3271604938271605	-0.1443514644351464	0.9847494553376908
2922.882080078125	-3.148526494353589	-4.751639334348732	7.427902465308725	93.66127961395239	4.302375701851408	32.11849545513172	-0.3271604938271605	-0.1443514644351464	0.9847494553376908
2926.788330078125	-2.987229459097492	-4.783551970355199	7.589535965477125	94.40614120453768	5.817258863001802	32.51100277730927	-0.3271604938271605	-0.1443514644351464	0.9847494553376908
2930.694580078125	-3.094253592553581	-4.374854204853035	7.841223844740905	93.68389540304061	5.79559148895689	31.75606912243674	-0.3271604938271605	-0.1443514644351464	0.9847494553376908
2934.600830078125	-3.154041285618891	-4.293017450777938	7.824515785311986	94.78233801056	6.947947752257098	32.52230966620182	-0.3271604938271605	-0.1443514644351464	0.9847494553376908
2938.507080078125	-3.236274118509672	-4.43549265904795	7.553943433943315	95.17362844656624	8.452223778770122	32.91471091703298	-0.3415637860082305	-0.07949790794979079	0.9956427015250545
2942.413330078125	-3.10197106702855	-4.136500642248873	7.418720913782929	95.15096334570266	8.824678154102426	31.40900149852216	-0.3415637860082305	-0.07949790794979079	0.9956427015250545
2946.319580078125	-3.25273058705822	-4.060937493700757	7.60280965782822	94.77476653968034	7.693989264847127	31.39769460962961	-0.3415637860082305	-0.07949790794979079	0.9956427015250545
2950.225830078125	-3.312416229204183	-3.968895647690966	7.596713883606239	95.2037762571138	10.6919341832358	32.18239103994557	-0.3415637860082305	-0.07949790794979079	0.9956427015250545
2954.132080078125	-3.353228513701816	-4.009720057050305	7.473052419081175	95.24149553854102	12.18560307511146	32.57468621943036	-0.3415637860082305	-0.07949790794979079	0.9956427015250545
2958.038330078125	-3.475100550720313	-4.075711637687793	7.700857352002348	95.59504696840992	12.94247827472394	31.82753799029441	-0.3415637860082305	-0.07949790794979079	0.9956427015250545
2961.944580078125	-3.338974728362935	-3.594442533263119	7.615170954336044	94.88034305072726	13.29417148555167	31.07633794127061	-0.3415637860082305	-0.07949790794979079	0.9956427015250545
2965.850830078125	-3.412306902357408	-3.856952862003383	7.480099994946965	94.15055536541576	12.89914352663411	30.31767068054936	-0.3415637860082305	-0.03347280334728033	0.9956427015250545
2969.757080078125	-3.633847323397879	-3.788772743828216	7.794424909776632	94.54940740994657	14.03051207304467	31.46105983771158	-0.3415637860082305	-0.03347280334728033	0.9956427015250545
2973.663330078125	-3.509652364957812	-3.490489021033716	7.568156803076515	93.834713354619	14.00907125138484	31.08348693892895	-0.3415637860082305	-0.03347280334728033	0.9956427015250545
2977.569580078125	-3.52237538650649	-3.752690165800513	7.585222545925719	93.45848696153146	13.99778445959221	29.95129859931291	-0.3415637860082305	-0.03347280334728033	0.9956427015250545
2981.475830078125	-3.640128001760853	-3.40673957002472	7.601342549561965	93.48867422149931	14.74495873410767	30.71348732319014	-0.3415637860082305	-0.03347280334728033	0.9956427015250545
2985.382080078125	-3.633758407745378	-3.779881178578187	7.673658255983537	93.13510306692027	14.7343515994703	30.71338125184376	-0.3415637860082305	-0.03347280334728033	0.9956427015250545
2989.288330078125	-3.862628307686271	-3.434547940344186	7.405807936067546	92.40531538160877	14.33932364055274	29.95471399112251	-0.3415637860082305	-0.03347280334728033	0.9956427015250545
2993.194580078125	-3.630845409720852	-3.488581376125528	7.516535204369243	92.05173436467466	14.70185053840293	29.58098076953497	-0.3353909465020576	0.02510460251046025	0.991285403050109
2997.100830078125	-3.647107880482126	-3.094626432050998	7.485565276360306	90.99856278475197	15.04338971936346	29.58439616134458	-0.3353909465020576	0.02510460251046025	0.991285403050109
3001.007080078125	-3.665782188317472	-2.941855195383508	7.573825175923409	90.62988813783393	15.03232947995592	28.82956857781843	-0.3353909465020576	0.02510460251046025	0.991285403050109
3004.913330078125	-3.698620355434056	-3.19536887673897	7.409305958669318	89.90010045252242	14.63730152103836	28.07090131709718	-0.3353909465020576	0.02510460251046025	0.991285403050109
3008.819580078125	-3.295051406432933	-3.242514380666965	7.542297504276061	89.56916481174176	15.37364210853136	28.45562321353815	-0.3353909465020576	0.02510460251046025	0.991285403050109
3012.725830078125	-3.715872012829397	-2.900332596071014	7.585501417744925	88.83183524261581	14.60525356474116	27.69322234696817	-0.3353909465020576	0.02510460251046025	0.991285403050109
3016.632080078125	-3.968639004784885	-2.924506539094531	7.692876161785304	87.77113164123377	14.20029812834149	28.06653128317021	-0.3353909465020576	0.02510460251046025	0.991285403050109
3020.538330078125	-3.808268511044047	-3.049073326626871	7.678150517245086	86.68777280134323	13.79466303478657	27.30775795110258	-0.3559670781893005	0.06485355648535564	1.002178649237473
3024.444580078125	-3.430068814349483	-2.60284103090788	7.60323402798788	87.06396960736555	14.92535192404186	27.31906483999514	-0.3559670781893005	0.06485355648535564	1.002178649237473
3028.350830078125	-3.906561733667693	-2.777385487981378	7.377620663819811	86.69530482280258	14.54115765214677	26.93786440671015	-0.3559670781893005	0.06485355648535564	1.002178649237473
3032.257080078125	-3.509442200688266	-2.459371583978091	7.650017806875022	86.00324628127338	15.26666455261731	26.94511947571485	-0.3559670781893005	0.06485355648535564	1.002178649237473
3036.163330078125	-3.801583670624252	-2.380589284647407	7.873257729364418	85.29610397211529	15.24545028334257	26.94490733302211	-0.3559670781893005	0.06485355648535564	1.002178649237473
3040.069580078125	-3.621129353874911	-2.516975791531433	7.726828805773569	84.22782889985359	15.58653635953292	26.19360121265193	-0.3559670781893005	0.06485355648535564	1.002178649237473
3043.975830078125	-3.790076166461459	-2.239939878469076	7.819799214108903	83.87424788291949	15.94906325738311	25.8198679910644	-0.3559670781893005	0.06485355648535564	1.002178649237473
3047.882080078125	-3.688767894893939	-2.210122822727217	7.973818301126823	82.49015052457118	16.65380899334908	26.58163242955613	-0.3621399176954733	0.1129707112970711	1.013071895424837
3051.788330078125	-3.789967042706118	-2.22902750293495	7.901154004931243	81.79055009922753	17.00595530894698	26.58515389271211	-0.3621399176954733	0.1129707112970711	1.013071895424837
3055.694580078125	-3.54607241830296	-2.081989305043445	7.94124789137288	81.09094967388387	17.35810162454488	26.58867535586809	-0.3621399176954733	0.1129707112970711	1.013071895424837
3059.600830078125	-3.656261140663946	-1.989750430030955	7.853848856990804	80.02268446397726	17.32605366824767	26.21099638573908	-0.3621399176954733	0.1129707112970711	1.013071895424837
3063.507080078125	-3.716750054897838	-1.978035792814041	7.894233740113351	79.70683259082544	18.80911542548596	26.6031854938775	-0.3580246913580247	0.1338912133891213	0.9782135076252724
3067.413330078125	-3.79601936950699	-1.824159172921151	7.971841948668975	78.64609940237818	19.52356208654896	25.85561297935606	-0.3580246913580247	0.1338912133891213	0.9782135076252724
3071.319580078125	-3.909724301762306	-2.083541287341632	8.068846904736509	76.87068202095841	19.84343389346457	25.10409471629314	-0.3580246913580247	0.1338912133891213	0.9782135076252724
3075.225830078125	-3.615743894467791	-1.97842985081944	8.056840260433543	77.26198231931973	20.97457588749004	25.87012311736547	-0.3559670781893005	0.1569037656903766	0.991285403050109
3079.132080078125	-3.779249675364407	-2.167391778864833	8.025555086020287	76.57746566160493	22.07344337283322	25.8811117922189	-0.3559670781893005	0.1569037656903766	0.991285403050109
3083.038330078125	-3.959222028860991	-1.98280894670508	7.942075413184218	76.24653988317932	22.43664992783866	26.63946083890103	-0.3559670781893005	0.1569037656903766	0.991285403050109
3086.944580078125	-3.837394449668745	-1.921263148692606	8.279704312210098	75.1405258047803	22.03033517712849	24.74860523856374	-0.3559670781893005	0.1569037656903766	0.991285403050109
3090.850830078125	-3.645118392757433	-1.885576649480585	8.192502306830722	74.44093524179171	22.00934746023883	25.12575385196088	-0.3724279835390947	0.1799163179916318	0.9738562091503269
3094.757080078125	-3.733263106134341	-1.609138896262321	8.387260929176048	75.54691973312552	23.53506430841168	25.89572800157469	-0.3724279835390947	0.1799163179916318	0.9738562091503269
3098.663330078125	-3.83497553975868	-1.67937215768613	8.231216990253461	74.46356089323498	23.12942921485675	25.13695466950706	-0.3724279835390947	0.1799163179916318	0.9738562091503269
3102.569580078125	-3.954128576539923	-1.473463714598296	8.381735023454182	73.39529568332837	23.09738125855955	24.75927569937805	-0.3703703703703704	0.205020920502092	1
3106.475830078125	-4.012929103781451	-1.292910378145034	8.137649432479177	72.71078888796865	23.82311471141518	25.14389152447264	-0.3703703703703704	0.205020920502092	1
3110.382080078125	-3.988759202378502	-0.8961222580521991	8.470861850629161	70.94292325271839	24.14321307071588	24.76973401749961	-0.3703703703703704	0.205020920502092	1
3114.288330078125	-4.092141835702648	-1.13337548945667	8.78119768595802	68.47543746741432	25.56172581058959	23.65184367320024	-0.3703703703703704	0.205020920502092	1
3118.194580078125	-4.271772672261219	-0.9146409634956689	8.073166386718768	67.37701458460506	23.66310148231427	23.63285742991748	-0.3724279835390947	0.2322175732217573	0.9738562091503269
3122.100830078125	-4.222582108325717	-1.046089620450503	8.157994950419472	65.97782359627283	23.99426008102251	24.01352750647061	-0.3724279835390947	0.2322175732217573	0.9738562091503269
3126.007080078125	-4.46677985427149	-1.223439972603471	8.116382425049336	64.53336158034389	22.83152323547002	23.62454164744904	-0.3724279835390947	0.2322175732217573	0.9738562091503269
3129.913330078125	-4.373238567030898	-0.9602203394534887	8.362802051902472	63.10398333204381	22.41550755966281	23.24302300012493	-0.3765432098765432	0.2426778242677824	0.9694989106753814
3133.819580078125	-4.32402981580284	-1.089850267152635	8.629539915757068	61.65951145375981	21.62590474659787	22.48040999086221	-0.3765432098765432	0.2426778242677824	0.9694989106753814
3137.725830078125	-4.298460503278154	-0.5531210348860462	8.818248232111806	60.60635959854726	21.22117586258328	23.23107968315414	-0.3765432098765432	0.2426778242677824	0.9694989106753814
3141.632080078125	-4.38764492354623	-0.3806539707846002	8.714868630003087	58.07854860508285	19.27966989098831	22.45694764230611	-0.3765432098765432	0.2426778242677824	0.9694989106753814
3145.538330078125	-4.857082183757513	-0.8597335272664549	8.352886946243547	56.68689950056505	19.98418907456919	22.84135132470796	-0.3765432098765432	0.2531380753138075	0.9738562091503269
3149.444580078125	-4.501479187659728	-0.6529692710233055	8.528397350632845	54.81341790484758	16.19664134311558	21.29404188512927	-0.3765432098765432	0.2531380753138075	0.9738562091503269
3153.350830078125	-4.465813906955691	-0.1167442309225987	8.686878386758051	52.63164604450287	13.51924788879777	20.88990946002005	-0.3765432098765432	0.2531380753138075	0.9738562091503269
3157.257080078125	-4.650347229263484	-0.3882582798836591	8.439134118763688	51.88679431627265	11.63123069515982	20.87102928808368	-0.3827160493827161	0.2719665271966527	0.962962962962963
3161.163330078125	-4.254460390557357	-0.1935138032103219	8.503335261489466	51.15702635567128	10.48993467126715	20.85961632784475	-0.3827160493827161	0.2719665271966527	0.962962962962963
3165.069580078125	-4.515301530002955	-0.01500148514399804	8.661167617513479	50.40463274362665	8.22855689275656	20.83700255005964	-0.3827160493827161	0.2719665271966527	0.962962962962963
3168.975830078125	-3.930478023379988	-0.1185094087057578	8.57093136549253	50.38200709218336	7.108475138138636	20.82580173251347	-0.3827160493827161	0.2719665271966527	0.962962962962963
3172.882080078125	-4.029065273899969	0.123775640306116	8.359837523215701	49.62960361778365	5.2202313921156	20.4295608044872	-0.3724279835390947	0.2907949790794979	0.9433551198257082
3176.788330078125	-4.180933208370467	0.0884973447714833	8.568676141215477	49.26095855793083	4.089769055245388	20.79561467168453	-0.3724279835390947	0.2907949790794979	0.9433551198257082
3180.694580078125	-3.96816815598869	0.1528813708279728	8.361901780920906	47.80895465818747	2.553671624820251	20.40289520681424	-0.3724279835390947	0.2907949790794979	0.9433551198257082
3184.600830078125	-4.137305935147086	0.4108206267056082	8.565026557842398	47.0791866975861	1.412375600927583	20.39148224657531	-0.3641975308641975	0.2928870292887029	0.9564270152505447
3188.507080078125	-3.935740213359777	0.3653726034162546	8.4637597128857	46.36452222932374	0.2715326818050855	21.13479079851616	-0.3641975308641975	0.2928870292887029	0.9564270152505447
3192.413330078125	-3.998165063845834	0.1834936154166243	8.332829393768737	44.91251832958038	-1.264564748620051	20.74207133364588	-0.3641975308641975	0.2928870292887029	0.9564270152505447
3196.319580078125	-4.07763848029368	0.31696005144013	8.389213031910485	43.81408558441606	-2.790055044407817	20.34945794012196	-0.3641975308641975	0.2928870292887029	0.9564270152505447
3200.225830078125	-4.058568093642652	0.2037966963409522	8.222129406405875	44.16766660135017	-3.152581942258003	20.7231911617095	-0.3847736625514404	0.3263598326359832	0.9389978213507626
3204.132080078125	-4.348417964716472	0.511738881888297	8.133617915962404	43.45300213308781	-4.2934248613805	21.46649971365035	-0.3847736625514404	0.3263598326359832	0.9389978213507626
3208.038330078125	-3.955653277899274	0.3942681696685653	8.283187178734741	42.36212113409298	-5.818688604783181	21.45124707621632	-0.3847736625514404	0.3263598326359832	0.9389978213507626
3211.944580078125	-3.755922451849927	0.1653305725831556	8.011111344514701	42.00855984186901	-6.202429771908109	21.82476815511111	-0.3765432098765432	0.3263598326359832	0.9498910675381265
3215.850830078125	-3.8820543569473	0.6834531941589168	8.055958176744534	41.60216591352376	-7.707158903191302	20.67764539210016	-0.3765432098765432	0.3263598326359832	0.9498910675381265
3219.757080078125	-3.804793727760542	0.328708032026731	8.089498575434844	40.56411755065022	-8.111434682435718	22.18303659657187	-0.3765432098765432	0.3263598326359832	0.9498910675381265
3223.663330078125	-3.784889756867322	0.2989031011465765	8.179116459508858	39.10456190473736	-9.64775866524594	21.41295637561169	-0.3765432098765432	0.3263598326359832	0.9498910675381265
3227.569580078125	-3.592520742682942	0.3438853276654455	8.011572089259474	38.04385830335531	-10.05271410164561	21.78626531181374	-0.3765432098765432	0.3326359832635983	0.9520697167755993
3231.475830078125	-3.511322564657619	0.3828950493896644	8.034536577327959	38.0514100495248	-10.05248754926052	22.16362606790362	-0.3765432098765432	0.3326359832635983	0.9520697167755993
3235.382080078125	-3.616259201090235	-0.009758492861906996	7.953248473244994	37.32162236421331	-10.44751550817808	21.40495880718237	-0.3765432098765432	0.3326359832635983	0.9520697167755993
3239.288330078125	-3.370966175970483	0.2771197766891472	7.838732185660612	37.69783889494577	-10.06309468389789	22.16351999655725	-0.3539094650205762	0.3535564853556485	0.9520697167755993
3243.194580078125	-3.572134808536966	0.3622767220610172	7.871281376906571	37.6978290325907	-9.68996065141034	21.78989284631609	-0.3539094650205762	0.3535564853556485	0.9520697167755993
3247.100830078125	-3.269486135528815	0.3241137198458353	7.690581531707712	37.69026742406612	-9.317053171307869	21.03890493998504	-0.3539094650205762	0.3535564853556485	0.9520697167755993
3251.007080078125	-3.593245203169791	0.271439278980549	7.83622537050319	37.35933178328545	-8.580712583814869	21.423626836426	-0.3539094650205762	0.3535564853556485	0.9520697167755993
3254.913330078125	-3.34953649331277	0.3998860222583564	8.037003986684843	36.65217961177229	-8.228792820602058	21.04978754349209	-0.3580246913580247	0.3702928870292887	0.9477124183006537
3258.819580078125	-3.43195625115483	0.2387183188604417	7.917010292825414	36.28350496485426	-8.239853060009597	20.29495995996594	-0.3580246913580247	0.3702928870292887	0.9477124183006537
3262.725830078125	-3.149489410453961	0.2025741061190732	7.897825730393334	36.30613061629754	-7.11977130539167	20.30616077751212	-0.3580246913580247	0.3702928870292887	0.9477124183006537
3266.632080078125	-3.239903493779911	0.2520748644331843	7.616568344647498	35.61406221241324	-6.021130372433573	19.93978869627567	-0.360082304526749	0.3702928870292887	0.9564270152505447
3270.538330078125	-3.098201245443565	0.2808855566535629	7.750739033055011	33.85374832333247	-5.700805460747787	19.94299194539252	-0.360082304526749	0.3702928870292887	0.9564270152505447
3274.444580078125	-3.18109185208182	0.07263297363617562	7.971820730160992	34.59105816774826	-4.186148851982479	19.95813851148018	-0.360082304526749	0.3702928870292887	0.9564270152505447
3278.350830078125	-3.015176254921418	0.5025765280601988	7.863663932540666	33.86125075772661	-3.834908745924918	18.4522169502766	-0.360082304526749	0.3702928870292887	0.9564270152505447
3282.257080078125	-3.247628041090874	0.4897211434379123	8.133423918175129	33.54540874692986	-2.724981021174194	19.21803320865618	-0.3703703703703704	0.3933054393305439	0.9520697167755993
3286.163330078125	-3.230692640504994	0.16305918182383	7.824330881170991	32.8382565754167	-2.373061257961379	18.84419391572228	-0.3703703703703704	0.3933054393305439	0.9520697167755993
3290.069580078125	-3.20796458723975	0.4156624881463059	7.877592367423808	32.46203018232917	-2.384348049754005	17.71200557610624	-0.3703703703703704	0.3933054393305439	0.9520697167755993
3293.975830078125	-3.179796512689714	0.2021669128468275	7.796492198697264	32.14616844682227	-0.528152260028168	17.73056753400349	-0.345679012345679	0.397489539748954	0.9607843137254903
3297.882080078125	-3.248060494491671	0.4464758033582251	7.848429043808855	32.12351320831377	-0.5288319171834228	16.59848526573383	-0.345679012345679	0.397489539748954	0.9607843137254903
3301.788330078125	-3.359166664721637	0.4469698914726869	7.675625514795106	29.65605701007492	-0.2297212747723792	16.60147637215794	-0.345679012345679	0.397489539748954	0.9607843137254903
3305.694580078125	-3.335829337155737	0.7605006278607034	7.762242495597237	30.36317959452285	0.5377610594774768	15.85443421436836	-0.345679012345679	0.397489539748954	0.9607843137254903
3309.600830078125	-3.316633660267094	0.6598662965229303	7.838210816607315	30.02469220757267	1.273875094585389	15.86179535471944	-0.3559670781893005	0.3849372384937238	0.9389978213507626
3313.507080078125	-3.277763374452478	0.5064908375804957	7.729920645508239	29.33262380368838	2.372516027543487	15.49542327348298	-0.3559670781893005	0.3849372384937238	0.9389978213507626
3317.413330078125	-3.348234081084669	0.5301272450684424	7.932417960836516	28.58019074222345	1.603674378983121	13.97830089473323	-0.3559670781893005	0.3849372384937238	0.9389978213507626
3321.319580078125	-3.126188457473174	0.5124673839957141	7.620624110887682	27.51946741613125	1.944987007558565	13.60435553045295	-0.3518518518518519	0.401673640167364	0.9433551198257082
3325.225830078125	-3.223015582235708	0.9307650087524831	7.842590922898097	27.51945755377618	2.318121040046121	13.23072838021178	-0.3518518518518519	0.401673640167364	0.9433551198257082
3329.132080078125	-3.316235560641127	0.6996762591196517	7.779599235127351	26.09005958076596	2.648373429214024	12.10195543240535	-0.3518518518518519	0.401673640167364	0.9433551198257082
3333.038330078125	-3.615630729091881	1.063189717074537	8.178619340178971	25.02180423321441	2.243191440429269	12.0979036125175	-0.3518518518518519	0.401673640167364	0.9433551198257082
3336.944580078125	-3.437801444901583	0.6642999542862402	8.039241023669337	24.6757749624498	2.605944890664539	12.10153114701985	-0.360082304526749	0.4225941422594142	0.9302832244008715
3340.850830078125	-3.345706047419263	0.782930611609044	7.96528542970222	23.9459872771383	2.210916931746985	11.3428638862986	-0.360082304526749	0.4225941422594142	0.9302832244008715
3344.757080078125	-3.527264736988864	0.8088798364671405	8.176888516170642	23.22374147564122	2.189249557702073	10.58793023142608	-0.360082304526749	0.4225941422594142	0.9302832244008715
3348.663330078125	-3.083422049430819	0.7487041478272841	8.097510077806149	22.84751508255368	2.177962765909446	9.455741891810039	-0.3477366255144033	0.4225941422594142	0.9411764705882354
3352.569580078125	-3.476589887899692	0.8258596948792699	7.956022035359918	22.15545654102446	2.903469666379988	9.462996960814744	-0.3477366255144033	0.4225941422594142	0.9411764705882354
3356.475830078125	-3.242869032871825	0.9656219653428816	8.258276650362669	21.80186566173528	3.63913059671773	8.715636588986046	-0.3477366255144033	0.4225941422594142	0.9411764705882354
3360.382080078125	-3.326307279097069	0.7026054236264511	8.052372248895404	20.32721638583849	1.729219476649782	7.564462006087253	-0.3477366255144033	0.4225941422594142	0.9411764705882354
3364.288330078125	-3.505347028647543	0.9804486503973052	8.205888154152584	20.34985189963684	2.47616719878015	7.949289973874595	-0.3436213991769548	0.4163179916317991	0.9237472766884532
3368.194580078125	-3.423851791510457	1.049164283297758	8.169734847764936	18.86764101521548	0.9391635588146734	6.047127484644751	-0.3436213991769548	0.4163179916317991	0.9237472766884532
3372.100830078125	-3.333371021445132	1.006332198921168	8.107891990640699	18.55179900441872	2.049091283565398	6.812943743024333	-0.3436213991769548	0.4163179916317991	0.9237472766884532
3376.007080078125	-3.26226881159916	1.045846112811269	8.161083758938714	17.46844016452818	1.643456190010472	6.054170410956709	-0.3436213991769548	0.4163179916317991	0.9237472766884532
3379.913330078125	-3.52544297651775	0.9910558835785331	8.216318566433953	16.40017495462156	1.611408233713274	5.676491440827699	-0.3436213991769548	0.4163179916317991	0.9237472766884532
3383.819580078125	-3.765991139090443	1.17866386873358	8.314202574975068	15.31681611473102	1.205773140158348	4.917718108760075	-0.3436213991769548	0.4163179916317991	0.9237472766884532
3387.725830078125	-3.493420206350799	1.163029869970659	8.30604557426331	14.62473784849165	2.677548105604003	4.177718877282455	-0.3436213991769548	0.4163179916317991	0.9237472766884532
3391.632080078125	-3.847177192254061	1.14086663317982	8.412510953675845	13.54139873331125	1.525644947073965	4.166199845697155	-0.3497942386831276	0.4267782426778242	0.9368191721132898
3395.538330078125	-3.624478846920802	1.188478944283442	8.568633704199511	12.8417983079676	1.877791262671864	4.169721308853134	-0.3497942386831276	0.4267782426778242	0.9368191721132898
3399.444580078125	-3.584389002099734	1.157059385986293	8.537160594429833	11.76597148953641	2.218650786477137	3.041054432393074	-0.3497942386831276	0.4267782426778242	0.9368191721132898
