Time Stamp	Accelerometer X	Accelerometer Y	Accelerometer Z	Gyroscope X	Gyroscope Y	Gyroscope Z	Magnetometer X	Magnetometer Y	Magnetometer Z
1403.350830078125	-4.374987578331785	0.8850805506598901	8.040908192153719	-0.699560975923362	-1.140389814352328	1.498030064120628	-0.2325102880658436	-0.8598326359832635	0.5642701525054467
1407.257080078125	-2.673436017372543	-8.757743151395642	2.717196664074675	11.30172762492889	6.682335410837419	28.36871014656121	-0.2242798353909465	-0.8472803347280334	0.5686274509803922
1411.163330078125	-2.856120298270385	-8.844353059361778	2.78174639657446	48.04182608467045	-2.290088501041976	19.22238213385751	-0.2242798353909465	-0.8472803347280334	0.5686274509803922
1415.069580078125	-2.905818085587196	-8.763626740537791	2.674174623531381	56.24821780984662	-5.77524003286878	8.998851373256219	-0.2242798353909465	-0.8472803347280334	0.5686274509803922
1418.975830078125	-2.958329851224613	-8.964298253774388	2.704019970617217	61.40078965456251	-7.11320019096014	2.947735922618701	-0.2242798353909465	-0.8472803347280334	0.5686274509803922
1422.882080078125	-2.975704778047283	-8.681588915839427	2.657375627639678	63.46934449649517	-6.67800921734395	-0.06678009217343951	-0.2489711934156379	-0.8744769874476986	0.5751633986928105
1426.788330078125	-2.92670113906306	-8.831730067922162	2.892782848849625	0.2554576285059784	-2.231142241294074	-2.663820856375205	-0.2489711934156379	-0.8744769874476986	0.5751633986928105
1430.694580078125	-2.897451931011032	-8.937112293022423	2.514068855937759	-2.196934526814156	-0.4390423641626336	-3.400616838735966	-0.2489711934156379	-0.8744769874476986	0.5751633986928105
1434.600830078125	-2.937114374457015	-8.862952597216614	2.780006478919852	0.3459503719240346	2.622318809665184	-2.99264473643165	-0.2304526748971193	-0.8535564853556484	0.5490196078431373
1438.507080078125	-2.944995534564995	-8.640967597913642	2.740521866778871	0.7070732726725729	2.63315249668764	-2.615177908995388	-0.2304526748971193	-0.8535564853556484	0.5490196078431373
1442.413330078125	-2.675439650769226	-8.958106491063912	2.878875632474466	0.3836992404164599	2.996585604078166	-1.479468106223369	-0.2304526748971193	-0.8535564853556484	0.5490196078431373
1446.319580078125	-2.694338268546105	-8.827766248549905	2.743789517008256	0.03014781054756524	2.239710404465681	-0.7323198770874187	-0.2304526748971193	-0.8535564853556484	0.5490196078431373
1450.225830078125	-3.019454310292853	-9.016138099992343	2.448291481190384	-1.045649420818406	1.461167830808284	-0.7401053028239927	-0.2345679012345679	-0.8514644351464434	0.5446623093681918
1454.132080078125	-2.947230550739207	-8.864469215334829	2.608112314533948	-0.6618712815613693	1.472681174985995	0.7694437928819354	-0.2345679012345679	-0.8514644351464434	0.5446623093681918
1458.038330078125	-2.84228886228088	-8.471310470512233	2.739930779770772	-1.752762142911268	0.320551464070871	0.3805640052067465	-0.2345679012345679	-0.8514644351464434	0.5446623093681918
1461.944580078125	-2.875502900110308	-8.762411223151908	2.856356733073625	-1.752752280556195	-0.05258256841668587	0.7541911554479087	-0.2304526748971193	-0.8849372384937237	0.5577342047930284
1465.850830078125	-2.67242359142021	-8.656500556162356	2.742470938297882	-1.745210396741768	0.3207780164559559	0.7579247612966351	-0.2304526748971193	-0.8849372384937237	0.5577342047930284
1469.757080078125	-2.523071565753413	-8.872813140997867	2.622037718201664	-1.760313889080767	0.320324911685786	0.003203249116857859	-0.2304526748971193	-0.8849372384937237	0.5577342047930284
1473.663330078125	-2.783712644980887	-8.674294801118977	2.760670355716465	-3.174598507396923	0.2778963731363013	0.002778963731363013	-0.2304526748971193	-0.8849372384937237	0.5577342047930284
1477.569580078125	-2.91694062539087	-8.865779710804064	2.537642618306899	-1.737678375282413	1.067272633816155	0.3880312169041993	-0.2366255144032922	-0.8556485355648534	0.5642701525054467
1481.475830078125	-2.97821361401499	-8.932472512610136	2.816523531158637	-1.737678375282413	1.067272633816155	0.3880312169041993	-0.2366255144032922	-0.8556485355648534	0.5642701525054467
1485.382080078125	-2.775232314623671	-8.836362775498458	2.732449740099043	-2.85122447514081	-0.08553673425422428	-1.132930839040656	-0.2366255144032922	-0.8556485355648534	0.5642701525054467
1489.288330078125	-3.005811820064911	-8.661990087299108	2.536842377434396	-2.106343159845378	0.6830783619210565	0.006830783619210566	-0.2386831275720165	-0.8598326359832635	0.5490196078431373
1493.194580078125	-2.867151901611274	-8.937412383349612	2.544659882018427	-2.475007944408344	0.2988840900259586	-0.3743696496657782	-0.2386831275720165	-0.8598326359832635	0.5490196078431373
1497.100830078125	-2.633009707639172	-8.755516218462567	3.020742576848965	-1.737678375282413	1.067272633816155	0.3880312169041993	-0.2386831275720165	-0.8598326359832635	0.5490196078431373
1501.007080078125	-2.797063128122777	-8.999242105207003	2.562471303862463	-2.475007944408344	0.2988840900259586	-0.3743696496657782	-0.2386831275720165	-0.8598326359832635	0.5490196078431373
1504.913330078125	-2.997330479302553	-8.823957021164382	2.518727834047746	-2.091249529861452	1.056665499178783	0.3879251455578256	-0.2427983539094651	-0.8744769874476986	0.5511982570806101
1508.819580078125	-2.83369738735804	-8.622263988329177	2.813277099437234	-2.83612098280181	-0.08508362948405432	-0.3782093268608783	-0.2427983539094651	-0.8744769874476986	0.5511982570806101
1512.725830078125	-2.996602987600279	-8.751207850936872	2.724392769496346	-2.098791413675879	0.6833049143061415	0.3841915397090992	-0.2427983539094651	-0.8744769874476986	0.5511982570806101
1516.632080078125	-2.806839808277241	-8.966809110552379	2.755914378712841	-2.098791413675879	0.6833049143061415	0.3841915397090992	-0.2160493827160494	-0.8765690376569036	0.5490196078431373
1520.538330078125	-3.046705947379051	-8.71099877830904	2.604690072317829	-2.098791413675879	0.6833049143061415	0.3841915397090992	-0.2160493827160494	-0.8765690376569036	0.5490196078431373
1524.444580078125	-2.915716014358706	-8.743318607587755	2.664990040790157	-2.467456198238845	0.2991106424110436	0.002991106424110436	-0.2160493827160494	-0.8765690376569036	0.5490196078431373
1528.350830078125	-2.775229283408245	-8.836059653955843	2.762767956791358	-2.467456198238845	0.2991106424110436	0.002991106424110436	-0.2160493827160494	-0.8765690376569036	0.5490196078431373
1532.257080078125	-2.804728061530359	-8.755634435864188	2.665484128904619	-1.745230121451912	1.06704608143107	0.01067046081431069	-0.2407407407407408	-0.8723849372384936	0.5511982570806101
1536.163330078125	-2.794426981107172	-8.735627403646481	2.666587491319736	-1.730136491467986	1.440633218688796	0.3917648227529257	-0.2407407407407408	-0.8723849372384936	0.5511982570806101
1540.069580078125	-2.725534527306861	-8.917089094322442	2.840021513142123	-2.11390476836995	1.055985842023528	-0.7441571227118402	-0.2407407407407408	-0.8723849372384936	0.5511982570806101
1543.975830078125	-2.695151644685454	-8.909103862484832	2.689209452045066	-1.007900552325981	1.835434625221265	0.7730713273842882	-0.2407407407407408	-0.8723849372384936	0.5511982570806101
1547.882080078125	-2.854012593144072	-8.633582546730405	2.650891857843151	-1.007910414681053	2.208568657708822	0.399444177143126	-0.2407407407407408	-0.8723849372384936	0.5511982570806101
1551.788330078125	-2.836234514669724	-8.875976719497622	2.689454980494584	-1.376575199244019	1.824374385813724	0.01824374385813724	-0.2407407407407408	-0.8723849372384936	0.5511982570806101
1555.694580078125	-3.018207470347565	-8.891454105463525	2.797972492750621	-1.745239983806984	1.440180113918626	-0.3629566894268515	-0.2407407407407408	-0.8723849372384936	0.5511982570806101
1559.600830078125	-2.938024749490001	-8.953990100515206	2.765344489903583	-1.007910414681053	2.208568657708822	0.399444177143126	-0.2242798353909465	-0.8661087866108785	0.5599128540305012
1563.507080078125	-2.906319246537652	-8.81374283558341	2.712067847573635	-1.376575199244019	1.824374385813724	0.01824374385813724	-0.2242798353909465	-0.8661087866108785	0.5599128540305012
1567.413330078125	-3.178382955895988	-8.747386498689643	2.742968057627771	-1.376565336888947	1.451240353326168	0.3918708940992994	-0.2242798353909465	-0.8661087866108785	0.5599128540305012
1571.319580078125	-3.106778574694418	-8.657655449239718	2.768372674114303	-2.475017806763416	0.6720181225135154	-0.7479967999069403	-0.2242798353909465	-0.8661087866108785	0.5599128540305012
1575.225830078125	-2.653933177320718	-8.827661166415133	2.83510791293634	-1.384107220703374	1.077879768453526	0.388137288250573	-0.2242798353909465	-0.8661087866108785	0.5599128540305012
1579.132080078125	-2.978207551584138	-8.931866269524907	2.877159964543267	-1.384107220703374	1.077879768453526	0.388137288250573	-0.2242798353909465	-0.8661087866108785	0.5599128540305012
1583.038330078125	-2.834319796925541	-8.684504945079379	2.648542665887887	-2.467456198238845	0.2991106424110436	0.002991106424110436	-0.2242798353909465	-0.8661087866108785	0.5599128540305012
1586.944580078125	-3.077422263697333	-8.752327379834261	2.450801327563233	-1.74522025909684	0.6939120489435127	0.3842976110554729	-0.2325102880658436	-0.8598326359832635	0.5664488017429194
1590.850830078125	-2.865218996574535	-8.744121879675683	2.685656867565623	-1.737678375282413	1.067272633816155	0.3880312169041993	-0.2325102880658436	-0.8598326359832635	0.5664488017429194
1594.757080078125	-2.936202989018887	-8.771814053403816	2.804774540166894	-3.159514739768068	1.024617542881585	0.01024617542881585	-0.2325102880658436	-0.8598326359832635	0.5664488017429194
1598.663330078125	-2.888226932064127	-9.024713408432909	2.863316403692057	-1.737678375282413	1.067272633816155	0.3880312169041993	-0.2325102880658436	-0.8598326359832635	0.5664488017429194
1602.569580078125	-2.816041567905879	-8.876884063315181	2.639106492266294	-2.098791413675879	0.6833049143061415	0.3841915397090992	-0.2325102880658436	-0.8598326359832635	0.5664488017429194
1606.475830078125	-2.785837526994616	-8.886783002491834	2.719721666524655	-2.083697783691952	1.056892051563868	0.7652859016477143	-0.2325102880658436	-0.8598326359832635	0.5664488017429194
1610.382080078125	-2.857037746139366	-8.936097846259807	2.696341901942788	-2.091239667506379	0.6835314666912266	0.7615522957989878	-0.2325102880658436	-0.8598326359832635	0.5664488017429194
1614.288330078125	-2.826846840494949	-8.947310312121122	2.645578137201116	-2.098791413675879	0.6833049143061415	0.3841915397090992	-0.2366255144032922	-0.8619246861924685	0.5577342047930284
1618.194580078125	-2.92733264227684	-8.89488038930021	2.637093765223333	-2.44482068444049	1.046058364541412	0.3878190742114519	-0.2366255144032922	-0.8619246861924685	0.5577342047930284
1622.100830078125	-2.906334402614783	-8.815258443296484	2.560476764112059	-2.083697783691952	1.056892051563868	0.7652859016477143	-0.2366255144032922	-0.8619246861924685	0.5577342047930284
1626.007080078125	-2.936001918395619	-8.751706991077045	2.795680893888455	-2.452362568254918	0.6726977796687704	0.3840854683627254	-0.2366255144032922	-0.8619246861924685	0.5577342047930284
1629.913330078125	-2.73492927431763	-8.846462785298376	2.813155850820188	-1.730126629112913	1.06749918620124	0.7653919729940879	-0.2366255144032922	-0.8619246861924685	0.5577342047930284
1633.819580078125	-2.804800810700587	-8.762909352886938	2.947947938390062	-2.467456198238845	0.2991106424110436	0.002991106424110436	-0.2366255144032922	-0.8619246861924685	0.5577342047930284
1637.725830078125	-2.886335453638212	-8.83556556584138	2.58996442777761	-1.384107220703374	1.077879768453526	0.388137288250573	-0.2366255144032922	-0.8619246861924685	0.5577342047930284
1641.632080078125	-2.677475617130454	-9.16170312718674	2.717160289489561	-1.376555474533874	1.078106320838611	0.7654980443404616	-0.2386831275720165	-0.8661087866108785	0.5686274509803922
1645.538330078125	-2.895609962437078	-8.752915435626933	2.755620350816505	-1.74522025909684	0.6939120489435127	0.3842976110554729	-0.2386831275720165	-0.8661087866108785	0.5686274509803922
1649.444580078125	-2.967901419135241	-8.911354034736176	2.928793688112243	-1.737668512927341	0.6941386013285977	0.7616583671453615	-0.2386831275720165	-0.8661087866108785	0.5686274509803922
1653.350830078125	-2.976998096629106	-8.810920774021669	2.852916303564949	-1.022984319954835	1.088713455475982	0.7656041156868354	-0.2386831275720165	-0.8661087866108785	0.5686274509803922
1657.257080078125	-2.955180418396847	-8.649354970997788	2.891515800801496	-1.384107220703374	1.077879768453526	0.388137288250573	-0.2386831275720165	-0.8661087866108785	0.5686274509803922
1661.163330078125	-2.914886471737084	-8.660364345425549	2.881267261445696	-1.399210713042373	1.077426663683356	-0.3665842239292042	-0.2386831275720165	-0.8661087866108785	0.5686274509803922
1665.069580078125	-2.917015395371381	-8.873256708855227	2.799894283330798	-1.384097358348302	0.7047457359659689	0.7617644384917353	-0.2386831275720165	-0.8661087866108785	0.5686274509803922
1668.975830078125	-2.936010001636756	-8.752515315190683	2.714832316042281	-1.391649104517801	0.7045191835808838	0.3844036824018466	-0.2407407407407408	-0.8556485355648534	0.5642701525054467
1672.882080078125	-2.919464617435707	-9.118178915287848	2.545199438364282	-2.128978673643732	-0.06386936020931198	-0.3779971841681309	-0.2407407407407408	-0.8556485355648534	0.5642701525054467
1676.788330078125	-2.886307162294234	-8.832736431443642	2.87293445023922	-1.399190988332229	0.3311585987082421	0.3806700765531202	-0.2407407407407408	-0.8556485355648534	0.5642701525054467
1680.694580078125	-2.790398495805824	-9.342879883612646	2.55545707136636	-1.767855772895194	-0.05303567318685583	-0.0005303567318685583	-0.2407407407407408	-0.8556485355648534	0.5642701525054467
1684.600830078125	-2.815919308883692	-8.864658161096392	2.851840222088667	-1.406742734501728	0.3309320463231571	0.003309320463231571	-0.2386831275720165	-0.8765690376569036	0.542483660130719
1688.507080078125	-2.99940989308489	-9.031898399398019	2.932552395240665	-1.022984319954835	1.088713455475982	0.7656041156868354	-0.2386831275720165	-0.8765690376569036	0.542483660130719
1692.413330078125	-2.835937455557962	-8.846270808321387	2.630337186038453	-1.406762459211872	1.077200111298271	-0.7439449800190928	-0.2386831275720165	-0.8765690376569036	0.542483660130719
1696.319580078125	-3.076766510760143	-8.686752086115295	2.949036144728049	-1.760323751435839	0.6934589441733428	-0.3704239011243043	-0.2304526748971193	-0.8682008368200836	0.5533769063180829
1700.225830078125	-3.088918653403564	-8.891865340356338	2.615426637357239	-0.9852650385276265	2.582382347351634	1.15789929517163	-0.2304526748971193	-0.8682008368200836	0.5533769063180829
1704.132080078125	-2.834822978686282	-8.73482312115341	2.666223745468598	-1.022994182309908	1.461847487963539	0.3919769654456732	-0.2304526748971193	-0.8682008368200836	0.5533769063180829
1708.038330078125	-2.763320648404059	-8.655297163638176	2.681016076748193	-1.399200850687301	0.7042926311957989	0.007042926311957989	-0.2304526748971193	-0.8682008368200836	0.5533769063180829
1711.944580078125	-3.039829129982266	-9.03341804873166	2.699748988081777	-1.391649104517801	0.7045191835808838	0.3844036824018466	-0.2407407407407408	-0.8765690376569036	0.5511982570806101
1715.850830078125	-2.885620086797642	-8.764028881784327	2.674356496456949	-0.676955049190224	0.7259600052407112	0.7619765811844826	-0.2407407407407408	-0.8765690376569036	0.5511982570806101
1719.757080078125	-3.028108430334501	-8.871449094056102	2.758469693317083	-1.391639242162729	0.3313851510933271	0.7580308326430089	-0.2407407407407408	-0.8765690376569036	0.5511982570806101
1723.663330078125	-2.835011924447845	-8.753717697309721	2.796590258516299	-1.406742734501728	0.3309320463231571	0.003309320463231571	-0.2366255144032922	-0.8619246861924685	0.5511982570806101
1727.569580078125	-2.854303589824982	-8.662682214821411	2.770646085683913	-1.775397656709622	-0.4263962580594976	-0.004263962580594976	-0.2366255144032922	-0.8619246861924685	0.5511982570806101
1731.475830078125	-2.834031831460058	-8.65570839853099	2.49847022135481	-1.384097358348302	0.7047457359659689	0.7617644384917353	-0.2366255144032922	-0.8619246861924685	0.5511982570806101
1735.382080078125	-2.764432094060313	-8.766441729263541	2.675447734010362	-2.482539965867699	-0.4476105273342399	-0.004476105273342399	-0.2366255144032922	-0.8619246861924685	0.5511982570806101
1739.288330078125	-2.937615535407471	-8.913068692262232	2.817899702962107	-1.760304026725695	-0.05280912080177085	0.37683039935802	-0.2407407407407408	-0.8661087866108785	0.5577342047930284
1743.194580078125	-2.915010751569556	-8.672792328672749	2.648321387161778	-2.113875181304734	-0.06341625543914202	0.3767243280116463	-0.2407407407407408	-0.8661087866108785	0.5577342047930284
1747.100830078125	-3.076283537102244	-8.638454720325365	2.729233620531902	-1.391639242162729	0.3313851510933271	0.7580308326430089	-0.2407407407407408	-0.8661087866108785	0.5577342047930284
1751.007080078125	-2.807154044276418	-8.998232710470097	2.643228945245853	-1.030526203769263	0.7153528706033401	0.7618705098381089	-0.2325102880658436	-0.8598326359832635	0.5381263616557734
1754.913330078125	-2.783218556866425	-8.624885989672793	2.652034626058808	-1.384097358348302	0.7047457359659689	0.7617644384917353	-0.2325102880658436	-0.8598326359832635	0.5381263616557734
1758.819580078125	-2.704045230745768	-8.788361458415146	2.624450565680876	-2.12896881128866	-0.4370033926968688	-0.004370033926968688	-0.2325102880658436	-0.8598326359832635	0.5381263616557734
1762.725830078125	-2.878726092513443	-9.084730463465464	2.941218640144017	-1.04561983375319	0.3417657333456133	0.3807761478994939	-0.2325102880658436	-0.8598326359832635	0.5381263616557734
1766.632080078125	-3.057296003672863	-8.759903397589342	2.743553082205017	-1.04561983375319	0.3417657333456133	0.3807761478994939	-0.2283950617283951	-0.8723849372384936	0.5511982570806101
1770.538330078125	-2.675869072954596	-9.001048709600987	2.624198974800506	-1.04561983375319	0.3417657333456133	0.3807761478994939	-0.2283950617283951	-0.8723849372384936	0.5511982570806101
1774.444580078125	-2.93722046699693	-8.873561851208127	2.728969904789827	-1.060713463737117	-0.0318214039121135	-0.000318214039121135	-0.2283950617283951	-0.8723849372384936	0.5511982570806101
1778.350830078125	-2.795430313413227	-8.835960634251922	2.732267867173474	-0.3309257784256125	0.3632065550054406	0.75834904668213	-0.2407407407407408	-0.8744769874476986	0.5359477124183007
1782.257080078125	-2.925395695619533	-8.701185723569461	2.818515039693615	-0.6694131653757966	1.099320590113353	0.765710187033209	-0.2407407407407408	-0.8744769874476986	0.5359477124183007
1786.163330078125	-2.88449954749511	-8.65197495153112	2.770879489271726	-1.022974457599763	0.715579422988425	1.139231265927998	-0.2407407407407408	-0.8744769874476986	0.5359477124183007
1790.069580078125	-2.873878168641893	-8.599938076310467	2.945304718538462	-1.03806808758369	0.3419922857306982	0.7581369039893825	-0.2407407407407408	-0.8744769874476986	0.5359477124183007
1793.975830078125	-2.794221868863336	-8.715116179262889	2.697918133964385	-0.6694033030207246	0.7261865576257962	1.139337337274371	-0.2222222222222222	-0.8702928870292886	0.5620915032679739
1797.882080078125	-2.774022859668639	-8.71541727999522	2.708206079120725	-1.399200850687301	0.7042926311957989	0.007042926311957989	-0.2222222222222222	-0.8702928870292886	0.5620915032679739
1801.788330078125	-3.049942275049033	-9.03463154530726	2.558173040388187	-1.384107220703374	1.077879768453526	0.388137288250573	-0.2222222222222222	-0.8702928870292886	0.5620915032679739
1805.694580078125	-3.057197994374085	-8.75010246771147	2.713741078488868	-1.391649104517801	0.7045191835808838	0.3844036824018466	-0.2448559670781893	-0.8807531380753137	0.5381263616557734
1809.600830078125	-2.805551541721129	-8.837982454941161	2.509843341633711	-0.3233740322561131	0.3634331073905256	1.135709802772018	-0.2448559670781893	-0.8807531380753137	0.5381263616557734
1813.507080078125	-2.713231834297275	-8.696920803464874	2.659233762695905	-1.022974457599763	0.715579422988425	1.139231265927998	-0.2448559670781893	-0.8807531380753137	0.5381263616557734
1817.413330078125	-2.895928240056823	-8.78474319760147	2.60251062842643	-1.03806808758369	0.3419922857306982	0.7581369039893825	-0.2448559670781893	-0.8807531380753137	0.5381263616557734
1821.319580078125	-2.765439467986935	-8.867179121925805	2.700703820941013	-1.022974457599763	0.715579422988425	1.139231265927998	-0.2345679012345679	-0.8765690376569036	0.542483660130719
1825.225830078125	-2.923602226492397	-8.521838810855806	2.574975067495317	-1.37653574982373	0.331838255863497	1.512752344822786	-0.2345679012345679	-0.8765690376569036	0.542483660130719
1829.132080078125	-2.89552710921543	-8.744630113462133	2.57421726363878	-1.391629379807657	-0.04174888139422971	1.131657982884171	-0.2345679012345679	-0.8765690376569036	0.542483660130719
1833.038330078125	-2.85361247270782	-8.593570503105276	2.612492420824729	-1.745200534386696	-0.05235601603160088	1.131551911537797	-0.2386831275720165	-0.8598326359832635	0.5446623093681918
1836.944580078125	-2.998741004880853	-8.96500957899439	2.552065141304503	-2.106323435135234	-0.06318970305405704	0.754085084101535	-0.2386831275720165	-0.8598326359832635	0.5446623093681918
1840.850830078125	-3.158283976810353	-8.757690610328257	2.762855862038716	-0.6769353244800799	-0.0203080597344024	1.509230881666807	-0.2386831275720165	-0.8598326359832635	0.5446623093681918
1844.757080078125	-2.835365566247562	-8.789081877281427	2.289768008049211	-1.737658650572269	0.3210045688410409	1.135285517386524	-0.2386831275720165	-0.8598326359832635	0.5446623093681918
1848.663330078125	-2.926407111166724	-8.802327278288544	2.803346837701179	-1.406742734501728	0.3309320463231571	0.003309320463231571	-0.2222222222222222	-0.8577405857740585	0.5490196078431373
1852.569580078125	-2.926317185109081	-8.79333467252431	2.692686256138856	-1.022974457599763	0.715579422988425	1.139231265927998	-0.2222222222222222	-0.8577405857740585	0.5490196078431373
1856.475830078125	-2.8343187865204	-8.684403904565174	2.658648738118659	-1.030516341414191	0.3422188381157832	1.135497660079271	-0.2222222222222222	-0.8577405857740585	0.5490196078431373
1860.382080078125	-2.867326701700849	-8.954892392307055	2.816511406296932	-0.676945186835152	0.3528259727531544	1.135603731425645	-0.2407407407407408	-0.8765690376569036	0.5686274509803922
1864.288330078125	-2.875225038696244	-8.734625081745568	2.60522356623283	-1.399181125977156	-0.0419754337793147	0.7542972267942823	-0.2407407407407408	-0.8765690376569036	0.5686274509803922
1868.194580078125	-2.6724185393945	-8.655995353591331	2.793001299451741	-1.406732872146656	-0.04220198616439969	0.3769364707043938	-0.2407407407407408	-0.8765690376569036	0.5686274509803922
1872.100830078125	-2.866423399503857	-8.864562172607897	2.760430889697799	-1.03806808758369	0.3419922857306982	0.7581369039893825	-0.2407407407407408	-0.8765690376569036	0.5686274509803922
1876.007080078125	-2.753520728931328	-8.685406226466087	2.720012663205565	-0.676955049190224	0.7259600052407112	0.7619765811844826	-0.2345679012345679	-0.8744769874476986	0.5468409586056645
1879.913330078125	-2.936621296747695	-8.813644826284634	2.661264677031423	-0.676955049190224	0.7259600052407112	0.7619765811844826	-0.2345679012345679	-0.8744769874476986	0.5468409586056645
1883.819580078125	-2.794014735809216	-8.694402873850889	2.749460921070576	-1.43692013211451	-0.7893762606798532	-0.3852522531728363	-0.2345679012345679	-0.8744769874476986	0.5468409586056645
1887.725830078125	-2.985490551848026	-8.650065285812648	2.75986405241311	-0.6694033030207246	0.7261865576257962	1.139337337274371	-0.2345679012345679	-0.8723849372384936	0.5533769063180829
1891.632080078125	-2.88430251849241	-8.632272051261168	2.7213615540702	-0.676945186835152	0.3528259727531544	1.135603731425645	-0.2345679012345679	-0.8723849372384936	0.5533769063180829
1895.538330078125	-2.906809293031546	-8.862747484972777	2.86112786615438	-0.6844969330046514	0.3525994203680694	0.7582429753357562	-0.2345679012345679	-0.8723849372384936	0.5533769063180829
1899.444580078125	-2.885628170038778	-8.764837205897967	2.593507918610775	-1.399190988332229	0.3311585987082421	0.3806700765531202	-0.2345679012345679	-0.8723849372384936	0.5533769063180829
1903.350830078125	-3.047720394141667	-8.812443454570737	2.559203653633077	0.03772914378228104	1.120534859388095	0.7659223297259565	-0.2407407407407408	-0.8786610878661087	0.542483660130719
1907.257080078125	-2.825916257359122	-8.854251998538432	2.862361570832821	-0.6618614192062973	1.099547142498438	1.143070943123098	-0.2407407407407408	-0.8786610878661087	0.542483660130719
1911.163330078125	-2.682321520191719	-8.636192423212318	2.733286355556659	-1.060723326092188	0.3413126285754433	-0.3739453642802834	-0.2407407407407408	-0.8786610878661087	0.542483660130719
1915.069580078125	-2.813434722639394	-8.616199536666599	2.450146585031186	-1.429358523589938	-1.162283740782325	0.3657356531582145	-0.2530864197530864	-0.8723849372384936	0.5468409586056645
1918.975830078125	-2.915191614089983	-8.690878580715422	2.859536478055653	-1.022974457599763	0.715579422988425	1.139231265927998	-0.2530864197530864	-0.8723849372384936	0.5468409586056645
1922.882080078125	-2.997216303521502	-8.812539443059231	2.650612986023945	-1.030516341414191	0.3422188381157832	1.135497660079271	-0.2530864197530864	-0.8723849372384936	0.5468409586056645
1926.788330078125	-2.917027520233086	-8.874469195025684	2.678621416561537	-1.752752280556195	-0.05258256841668587	0.7541911554479087	-0.2530864197530864	-0.8723849372384936	0.5468409586056645
1930.694580078125	-2.96520363740597	-8.641575861809155	2.639279271545584	-1.752752280556195	-0.05258256841668587	0.7541911554479087	-0.2469135802469136	-0.8661087866108785	0.5403050108932462
1934.600830078125	-2.786349802401634	-8.938010543193705	2.64644809602842	-0.676945186835152	0.3528259727531544	1.135603731425645	-0.2469135802469136	-0.8661087866108785	0.5403050108932462
1938.507080078125	-3.049828099267981	-9.023213967202111	2.690058192364387	-2.098771688965734	-0.06296315066897205	1.131445840191424	-0.2469135802469136	-0.8661087866108785	0.5403050108932462
1942.413330078125	-2.865221017384819	-8.744323960704094	2.665444723104079	-1.775397656709622	-0.4263962580594976	-0.004263962580594976	-0.2345679012345679	-0.8723849372384936	0.5533769063180829
1946.319580078125	-2.754450301662013	-8.778363499534574	2.513335301804632	-1.737658650572269	0.3210045688410409	1.135285517386524	-0.2345679012345679	-0.8723849372384936	0.5533769063180829
1950.225830078125	-3.018623757266089	-8.933082797315933	2.674674774076694	-1.038058225228618	-0.03114174675685855	1.131764054230545	-0.2345679012345679	-0.8723849372384936	0.5533769063180829
1954.132080078125	-2.923896254388733	-8.551241600489424	2.664411078643763	-2.85873677189002	-1.578299416589537	-0.01578299416589536	-0.2345679012345679	-0.8723849372384936	0.5533769063180829
1958.038330078125	-3.007201127135228	-8.800920794330812	2.78240720153736	-1.752742418201124	-0.4257166009042426	1.127818305689071	-0.2366255144032922	-0.8577405857740585	0.5664488017429194
1961.944580078125	-2.843113352876792	-8.553759530103411	2.574183920269092	-2.113865318949661	-0.4365502879266988	0.7503514782528086	-0.2366255144032922	-0.8577405857740585	0.5664488017429194
1965.850830078125	-2.91662537898655	-8.834255070372143	2.660434124004659	-3.904386192708426	-0.1171315857812528	-0.755888296989888	-0.2366255144032922	-0.8577405857740585	0.5664488017429194
1969.757080078125	-2.68333798776462	-8.737839180502425	2.667587792410365	-2.113865318949661	-0.4365502879266988	0.7503514782528086	-0.2448559670781893	-0.8786610878661087	0.542483660130719
1973.663330078125	-2.876118236841815	-8.823944896302677	2.762364805139681	-1.760304026725695	-0.05280912080177085	0.37683039935802	-0.2448559670781893	-0.8786610878661087	0.542483660130719
1977.569580078125	-2.61436672236323	-8.911419711070408	2.619194438131939	-1.752752280556195	-0.05258256841668587	0.7541911554479087	-0.2448559670781893	-0.8786610878661087	0.542483660130719
1981.475830078125	-3.058000256056872	-8.83032863599014	2.770327808064167	-2.505175479666053	-1.194558249464609	-0.3893040730606839	-0.2448559670781893	-0.8786610878661087	0.542483660130719
1985.382080078125	-2.703820920804233	-8.765930464261663	2.847796580710188	-1.384097358348302	0.7047457359659689	0.7617644384917353	-0.2366255144032922	-0.8661087866108785	0.5533769063180829
1989.288330078125	-2.993571772174132	-8.448086308322242	2.739579158781339	-1.399190988332229	0.3311585987082421	0.3806700765531202	-0.2366255144032922	-0.8661087866108785	0.5533769063180829
1993.194580078125	-2.749377057443786	-9.281140087812899	2.75087346745916	-2.106333297490306	0.3099443294334998	0.3804579338603727	-0.2366255144032922	-0.8661087866108785	0.5533769063180829
1997.100830078125	-2.652931865824947	-8.7275300168381	2.749215392621058	-1.399200850687301	0.7042926311957989	0.007042926311957989	-0.2366255144032922	-0.8661087866108785	0.5533769063180829
2001.007080078125	-2.93762968107946	-8.9144832594611	2.676414691731302	-1.760304026725695	-0.05280912080177085	0.37683039935802	-0.2366255144032922	-0.8661087866108785	0.5533769063180829
2004.913330078125	-2.963562739455283	-8.477486066740434	2.889924412702769	-1.72255515823327	0.3214576736112109	1.890007029566301	-0.2366255144032922	-0.8661087866108785	0.5533769063180829
2008.819580078125	-3.04577839545865	-8.618243586268964	2.791155289257218	-1.75277200526634	0.6936854965584277	0.006936854965584278	-0.2366255144032922	-0.8661087866108785	0.5533769063180829
2012.725830078125	-3.056380576614167	-8.668360691719725	2.808745432375146	-0.676955049190224	0.7259600052407112	0.7619765811844826	-0.2325102880658436	-0.8723849372384936	0.5555555555555556
2016.632080078125	-3.035982517606487	-8.648756811153694	2.789727586791503	-1.376555474533874	1.078106320838611	0.7654980443404616	-0.2325102880658436	-0.8723849372384936	0.5555555555555556
2020.538330078125	-2.91501277237984	-8.672994409701159	2.628109242700235	-2.106333297490306	0.3099443294334998	0.3804579338603727	-0.2325102880658436	-0.8723849372384936	0.5555555555555556
2024.444580078125	-2.974685279258956	-8.579639037006707	2.753392407478288	-2.098791413675879	0.6833049143061415	0.3841915397090992	-0.2325102880658436	-0.8723849372384936	0.5555555555555556
2028.350830078125	-2.968241925668111	-8.945404688023219	2.553350376645189	-1.384107220703374	1.077879768453526	0.388137288250573	-0.2325102880658436	-0.8723849372384936	0.5555555555555556
2032.257080078125	-3.075789448987782	-8.58904590887918	2.620597890874245	-1.722584745298486	1.440859771073881	0.7691255788428143	-0.2325102880658436	-0.8723849372384936	0.5555555555555556
2036.163330078125	-3.228813286940783	-8.739914552664192	2.379200987982232	-2.098791413675879	0.6833049143061415	0.3841915397090992	-0.2325102880658436	-0.8723849372384936	0.5555555555555556
2040.069580078125	-3.037190962156377	-8.769601266142727	2.824077320000594	-2.091239667506379	0.6835314666912266	0.7615522957989878	-0.2448559670781893	-0.8598326359832635	0.5533769063180829
2043.975830078125	-3.137386777662501	-8.688172715745017	2.685732647951276	-1.03806808758369	0.3419922857306982	0.7581369039893825	-0.2448559670781893	-0.8598326359832635	0.5533769063180829
2047.882080078125	-2.814648219214994	-8.737549194226657	2.433965957086416	-2.136530419813232	-0.06409591259439697	-0.7553579402580195	-0.2448559670781893	-0.8598326359832635	0.5533769063180829
2051.788330078125	-2.772809363093038	-8.594067622435164	2.724386707065494	-2.482530103512627	-0.8207445598217967	0.3691510449678198	-0.2448559670781893	-0.8598326359832635	0.5533769063180829
2055.694580078125	-3.067904247259233	-8.810626746125333	2.700506791938313	-2.490071987327055	-1.194105144694438	0.3654174391190934	-0.2448559670781893	-0.8598326359832635	0.5533769063180829
2059.600830078125	-3.175960004365355	-8.505091345626349	2.734905024594222	-2.113875181304734	-0.06341625543914202	0.3767243280116463	-0.2448559670781893	-0.8598326359832635	0.5533769063180829
2063.507080078125	-2.875825219350621	-8.794643147183264	2.662822721760462	-2.121407202764089	-0.8099108727993406	0.7466178724040822	-0.2448559670781893	-0.8598326359832635	0.5533769063180829
2067.413330078125	-2.794030902291489	-8.696019522078167	2.587763765378228	-2.4674364735287	-0.44715742256407	0.7502454069064348	-0.2242798353909465	-0.8723849372384936	0.5446623093681918
2071.319580078125	-2.765973972307079	-8.920629553940183	2.4050966613678	-2.4674364735287	-0.44715742256407	0.7502454069064348	-0.2242798353909465	-0.8723849372384936	0.5446623093681918
2075.225830078125	-2.521552926824914	-8.720949248147935	2.659949129536476	-2.121417065119161	-0.4367768403117838	0.37299072216292	-0.2242798353909465	-0.8723849372384936	0.5446623093681918
2079.132080078125	-2.614359649527235	-8.910712427470974	2.689936943747341	-2.467446335883773	-0.07402339007651318	0.3766182566652727	-0.2242798353909465	-0.8723849372384936	0.5446623093681918
2083.038330078125	-2.764940327846763	-8.817265107908593	2.642598452437214	-2.12896881128866	-0.4370033926968688	-0.004370033926968688	-0.2242798353909465	-0.8723849372384936	0.5446623093681918
2086.944580078125	-2.934982419607292	-8.649757112244323	2.891697673727065	-2.467456198238845	0.2991106424110436	0.002991106424110436	-0.2242798353909465	-0.8723849372384936	0.5446623093681918
2090.850830078125	-2.91750342105499	-8.92205927721618	2.969166446373086	-2.106343159845378	0.6830783619210565	0.006830783619210566	-0.2242798353909465	-0.8723849372384936	0.5446623093681918
2094.757080078125	-2.837339897895125	-8.986515042037757	2.744523071141383	-1.74522025909684	0.6939120489435127	0.3842976110554729	-0.2304526748971193	-0.8870292887029287	0.5315904139433552
2098.663330078125	-2.695374944221847	-8.931433816124109	2.475969509246526	-1.015442436140408	1.462074040348624	0.7693377215355618	-0.2304526748971193	-0.8870292887029287	0.5315904139433552
2102.569580078125	-2.795228232384817	-8.815752531410947	2.733280293125807	-1.36147170690502	1.824827490583894	0.7729652560379144	-0.2304526748971193	-0.8870292887029287	0.5315904139433552
2106.475830078125	-2.766141699560659	-8.937402279298192	2.747690691261707	-1.376565336888947	1.451240353326168	0.3918708940992994	-0.2304526748971193	-0.8870292887029287	0.5315904139433552
2110.382080078125	-2.897236714715776	-8.915590663496785	2.646460220890125	-1.376565336888947	1.451240353326168	0.3918708940992994	-0.2304526748971193	-0.8870292887029287	0.5315904139433552
2114.288330078125	-2.937929771406648	-8.944492292179948	2.705214269495118	-1.376575199244019	1.824374385813724	0.01824374385813724	-0.2304526748971193	-0.8870292887029287	0.5315904139433552
2118.194580078125	-2.97912095783255	-9.023206894366115	2.832179758834683	-2.091259392216524	1.42979953166634	0.0142979953166634	-0.2304526748971193	-0.8870292887029287	0.5315904139433552
2122.100830078125	-3.168782086236241	-8.797400542815915	2.811270434825125	-1.346397801631237	2.944682692816734	0.4068053174942051	-0.2366255144032922	-0.8702928870292886	0.542483660130719
2126.007080078125	-2.937125488913578	-8.864064042872867	2.668839684381363	-1.353939685445664	2.571322107944093	0.4030717116454787	-0.2366255144032922	-0.8702928870292886	0.542483660130719
2129.913330078125	-2.915514943735439	-8.723211545260984	2.655896394511718	-0.9928167846971259	2.582155794966549	0.780538539081741	-0.2366255144032922	-0.8702928870292886	0.542483660130719
2133.819580078125	-2.909456554503714	-9.127473632189554	2.645844884158617	-1.369023453074519	1.824600938198809	0.3956044999480259	-0.2366255144032922	-0.8702928870292886	0.542483660130719
2137.725830078125	-3.03671405092933	-8.721910143438025	2.543638362419816	-1.007910414681053	2.208568657708822	0.399444177143126	-0.2304526748971193	-0.8744769874476986	0.5468409586056645
2141.632080078125	-2.674750554462348	-8.889196860376188	2.700509823153739	-2.113894906014878	0.6828518095359716	-0.370529972470678	-0.2304526748971193	-0.8744769874476986	0.5468409586056645
2145.538330078125	-3.037500146129844	-8.800519663489419	2.761922247687464	-1.745230121451912	1.06704608143107	0.01067046081431069	-0.2304526748971193	-0.8744769874476986	0.5468409586056645
2149.444580078125	-3.048697455914029	-8.910149631806853	2.887641907486881	-2.106343159845378	0.6830783619210565	0.006830783619210566	-0.2345679012345679	-0.8577405857740585	0.5490196078431373
2153.350830078125	-2.815216066904825	-8.794333963209796	2.814959423998745	-1.722574882943414	1.067725738586325	1.142752729083977	-0.2345679012345679	-0.8577405857740585	0.5490196078431373
2157.257080078125	-2.851676536455655	-8.399976877888731	2.78380762306424	-1.74522025909684	0.6939120489435127	0.3842976110554729	-0.2345679012345679	-0.8577405857740585	0.5490196078431373
2161.163330078125	-2.92579884727121	-8.741500888737209	2.826596260019721	-2.128978673643732	-0.06386936020931198	-0.3779971841681309	-0.2345679012345679	-0.8577405857740585	0.5490196078431373
2165.069580078125	-2.58173366749048	-8.678417254098536	2.752383012741381	-1.760304026725695	-0.05280912080177085	0.37683039935802	-0.2407407407407408	-0.8828451882845187	0.5490196078431373
2168.975830078125	-2.852793034137619	-8.511626646085119	2.72770891917255	-1.767845910540123	-0.4261697056744126	0.3730967935092936	-0.2407407407407408	-0.8828451882845187	0.5490196078431373
2172.882080078125	-2.755443529916647	-8.877686324997969	2.680076399966087	-1.767855772895194	-0.05303567318685583	-0.0005303567318685583	-0.2407407407407408	-0.8828451882845187	0.5490196078431373
2176.788330078125	-2.865913144907123	-8.813536712934432	2.81349231573249	-1.782939540524049	-0.7997568429321394	-0.007997568429321394	-0.2386831275720165	-0.8619246861924685	0.5468409586056645
2180.694580078125	-2.523677808838642	-8.933437449520792	2.619000440344665	-1.782949402879121	-0.4266228104445826	-0.3816247186704836	-0.2386831275720165	-0.8619246861924685	0.5468409586056645
2184.600830078125	-2.813814634972804	-8.654190770007633	2.690667466665043	-1.391649104517801	0.7045191835808838	0.3844036824018466	-0.2386831275720165	-0.8619246861924685	0.5468409586056645
2188.507080078125	-2.724944450703905	-8.858081434026795	2.681361635306773	-1.053171579922689	0.3415391809605283	0.003415391809605283	-0.2386831275720165	-0.8619246861924685	0.5468409586056645
2192.413330078125	-3.027116212485009	-8.772227309106912	2.581622522924855	-0.6769649115452961	1.099094037728268	0.3883494309433204	-0.2448559670781893	-0.8786610878661087	0.5577342047930284
2196.319580078125	-2.675455817251498	-8.95972313929119	2.717178476782118	-0.654329397746942	1.846041759858636	0.7731773987306619	-0.2448559670781893	-0.8786610878661087	0.5577342047930284
2200.225830078125	-2.834902800692503	-8.742805321775593	2.877945049338639	-0.6845166577147956	1.098867485343183	0.01098867485343183	-0.2448559670781893	-0.8786610878661087	0.5577342047930284
2204.132080078125	-2.896336443734211	-8.825563565340239	2.560061487598677	-0.6694230277308688	1.47245462260091	0.3920830367920469	-0.2283950617283951	-0.8682008368200836	0.5686274509803922
2208.038330078125	-2.955900837263128	-8.721396857625866	2.756593370968298	-1.038087812293834	1.088260350705812	0.01088260350705812	-0.2283950617283951	-0.8682008368200836	0.5686274509803922
2211.944580078125	-2.875434192560648	-8.755540468185977	2.533468634665095	-1.038087812293834	1.088260350705812	0.01088260350705812	-0.2283950617283951	-0.8682008368200836	0.5686274509803922
2215.850830078125	-2.895300778463611	-8.721997038280241	2.817775423129635	-1.030545928479407	1.461620935578454	0.01461620935578454	-0.2283950617283951	-0.8682008368200836	0.5686274509803922
2219.757080078125	-2.965182418897987	-8.639454011010852	2.851506788391791	-1.030545928479407	1.461620935578454	0.01461620935578454	-0.2304526748971193	-0.8661087866108785	0.5468409586056645
2223.663330078125	-3.008123627029918	-8.893170783799865	2.646472345751829	-1.376565336888947	1.451240353326168	0.3918708940992994	-0.2304526748971193	-0.8661087866108785	0.5468409586056645
2227.569580078125	-2.845622188844499	-8.804643126874121	2.733331823788052	-1.022994182309908	1.461847487963539	0.3919769654456732	-0.2304526748971193	-0.8661087866108785	0.5468409586056645
2231.475830078125	-2.95399319235494	-8.530632366807058	2.644938550746199	-1.022994182309908	1.461847487963539	0.3919769654456732	-0.2325102880658436	-0.8807531380753137	0.5533769063180829
2235.382080078125	-2.735146511423171	-8.868186495852425	2.660552341406279	-1.767865635250266	0.320098359300701	-0.3741575069730307	-0.2325102880658436	-0.8807531380753137	0.5533769063180829
2239.288330078125	-2.856317327273085	-8.864055959631731	2.831264331775986	-1.04561983375319	0.3417657333456133	0.3807761478994939	-0.2325102880658436	-0.8807531380753137	0.5533769063180829
2243.194580078125	-2.855311974156747	-8.763520647997877	2.785796100383792	-1.760313889080767	0.320324911685786	0.003203249116857859	-0.2325102880658436	-0.8807531380753137	0.5533769063180829
2247.100830078125	-3.017600216857193	-8.830728756426392	2.811115842838392	-1.376555474533874	1.078106320838611	0.7654980443404616	-0.2407407407407408	-0.8640167364016735	0.5577342047930284
2251.007080078125	-2.77433406445239	-8.746537758370323	2.625838862346051	-1.022984319954835	1.088713455475982	0.7656041156868354	-0.2407407407407408	-0.8640167364016735	0.5577342047930284
2254.913330078125	-2.87501083280613	-8.713204492734132	2.727508858954424	-1.75277200526634	0.6936854965584277	0.006936854965584278	-0.2407407407407408	-0.8640167364016735	0.5577342047930284
2258.819580078125	-3.007093013785028	-8.790109459310891	2.853655920128929	-1.376555474533874	1.078106320838611	0.7654980443404616	-0.2222222222222222	-0.8619246861924685	0.533769063180828
2262.725830078125	-2.884686472446389	-8.670667446659021	2.921458146780969	-1.369003728364375	1.078332873223696	1.14285880043035	-0.2222222222222222	-0.8619246861924685	0.533769063180828
2266.632080078125	-2.816841808778382	-8.956908150565443	2.715905366303137	-1.36147170690502	1.824827490583894	0.7729652560379144	-0.2222222222222222	-0.8619246861924685	0.533769063180828
2270.538330078125	-2.736643931843687	-9.017928537904053	2.834868446917674	-1.406732872146656	-0.04220198616439969	0.3769364707043938	-0.2222222222222222	-0.8619246861924685	0.533769063180828
2274.444580078125	-2.886812364865259	-8.883256688546082	2.870403385358387	-1.399190988332229	0.3311585987082421	0.3806700765531202	-0.2407407407407408	-0.8744769874476986	0.5599128540305012
2278.350830078125	-2.644641491634437	-8.908593607888097	2.841255217820565	-1.369003728364375	1.078332873223696	1.14285880043035	-0.2407407407407408	-0.8744769874476986	0.5599128540305012
2282.257080078125	-3.10912271462397	-8.892069442195032	2.55460833104704	-1.053171579922689	0.3415391809605283	0.003415391809605283	-0.2407407407407408	-0.8744769874476986	0.5599128540305012
2286.163330078125	-2.996303907678232	-8.721299858732229	2.685487119501758	-1.752762142911268	0.320551464070871	0.3805640052067465	-0.2242798353909465	-0.8765690376569036	0.5555555555555556
2290.069580078125	-3.041765066234432	-9.227011673948203	2.528433785842266	-1.038077949938762	0.715126318218255	0.3845097537482203	-0.2242798353909465	-0.8765690376569036	0.5555555555555556
2293.975830078125	-2.89591712560026	-8.783631751945215	2.713677422964919	-0.6694033030207246	0.7261865576257962	1.139337337274371	-0.2242798353909465	-0.8765690376569036	0.5555555555555556
2297.882080078125	-3.095793449990063	-8.569243988905308	2.540579866054835	-1.767855772895194	-0.05303567318685583	-0.0005303567318685583	-0.2242798353909465	-0.8765690376569036	0.5555555555555556
2301.788330078125	-2.927130561248431	-8.874672286459235	2.638106191175666	-1.030516341414191	0.3422188381157832	1.135497660079271	-0.2386831275720165	-0.8682008368200836	0.5555555555555556
2305.694580078125	-2.846328462038791	-8.875270446303329	2.739894405185658	-1.04561983375319	0.3417657333456133	0.3807761478994939	-0.2386831275720165	-0.8682008368200836	0.5555555555555556
2309.600830078125	-2.976189772515467	-8.730088362657769	2.856966007374281	-0.7373591561911478	0.3510135536724745	-1.883282317293464	-0.2386831275720165	-0.8682008368200836	0.5555555555555556
2313.507080078125	-2.824910904242784	-8.753716686904578	2.816893339440627	-1.045609971398118	-0.03136829914194354	0.7544032981406561	-0.2551440329218107	-0.8556485355648534	0.5533769063180829
2317.413330078125	-3.016417032435855	-8.712410314292482	2.524114303860008	0.3686746469180378	0.01106023940754114	0.754827583526151	-0.2551440329218107	-0.8556485355648534	0.5533769063180829
2321.319580078125	-2.725544631358281	-8.918099499464491	2.738960790834405	-0.6618515568512251	0.7264131100108812	1.51669809336426	-0.2551440329218107	-0.8556485355648534	0.5533769063180829
2325.225830078125	-3.12707862440332	-8.667458399927876	2.757578515981796	-0.6694033030207246	0.7261865576257962	1.139337337274371	-0.2551440329218107	-0.8556485355648534	0.5533769063180829
2329.132080078125	-3.097523263593251	-8.742225349224057	2.410701378690744	-0.6618515568512251	0.7264131100108812	1.51669809336426	-0.2407407407407408	-0.8912133891213389	0.542483660130719
2333.038330078125	-2.908033904063709	-8.985208588189087	2.733780443671121	-1.030506479059119	-0.03091519437177356	1.509124810320433	-0.2407407407407408	-0.8912133891213389	0.542483660130719
2336.944580078125	-2.834615845632162	-8.714109815741407	2.71776653257479	-1.722535433523126	-0.4248103913639027	2.637261330048625	-0.2407407407407408	-0.8912133891213389	0.542483660130719
2340.850830078125	-3.024875133879945	-8.548119448600495	2.774668508554408	-0.9927477482116213	-0.02978243244634864	3.395928590769876	-0.2263374485596708	-0.8640167364016735	0.5555555555555556
2344.757080078125	-2.9661847407989	-8.73968620110209	2.927293236476301	-0.6618219697860087	-0.3929889874517892	2.637579544087747	-0.2263374485596708	-0.8640167364016735	0.5555555555555556
2348.663330078125	-2.935778618859226	-8.729377037437768	3.008920836686995	-0.2931571852230431	-0.008794715556691294	3.018779977372735	-0.2263374485596708	-0.8640167364016735	0.5555555555555556
2352.569580078125	-3.045855186249445	-8.625922665348535	3.033194809819574	-0.7146151564870002	-3.006513081560282	2.611444303146662	-0.2263374485596708	-0.8640167364016735	0.5555555555555556
2356.475830078125	-3.083639286536359	-8.363928653635856	2.894401517887188	1.79058991024427	-2.931356929558344	4.121629826930832	-0.2263374485596708	-0.8640167364016735	0.5686274509803922
2360.382080078125	-3.194705040560643	-8.359392944953202	3.12584087810431	2.14417092717838	-3.293883827408529	4.495363048518368	-0.2263374485596708	-0.8640167364016735	0.5686274509803922
2364.288330078125	-3.296930759997143	-8.480954787593086	2.886417296454718	1.783057888784915	-3.677851546918542	4.491523371323268	-0.2263374485596708	-0.8640167364016735	0.5686274509803922
2368.194580078125	-3.075159966584286	-8.526097668529541	2.856074830038994	1.452132110359302	-3.314644991913102	5.249872418005397	-0.2366255144032922	-0.8682008368200836	0.5577342047930284
2372.100830078125	-3.419834420665671	-8.650108733233756	2.89693258276802	0.4065320013162563	-3.719147323542602	6.377902866387216	-0.2366255144032922	-0.8682008368200836	0.5577342047930284
2376.007080078125	-3.236044756542427	-8.452960502727485	2.777314759621434	0.01523170295493635	-4.850289317568069	5.611874465314886	-0.2366255144032922	-0.8682008368200836	0.5577342047930284
2379.913330078125	-3.542850236304966	-8.830478175951166	2.795774861566665	0.3612511113644757	-4.839908735315783	5.234619780571371	-0.2366255144032922	-0.8682008368200836	0.5577342047930284
2383.819580078125	-3.615449866571455	-9.019734131892895	2.916899198780045	-0.7748910528719867	-8.232201955466756	4.823338357803824	-0.2181069958847737	-0.8723849372384936	0.5446623093681918
2387.725830078125	-3.619901711627321	-8.454817627378571	2.833989394444092	1.369200975465817	-8.541013522974831	6.329684204392894	-0.2181069958847737	-0.8723849372384936	0.5446623093681918
2391.632080078125	-3.744589747776707	-8.80240912110505	3.178999303032638	1.346575324022535	-9.661095277592757	6.318483386846714	-0.2181069958847737	-0.8723849372384936	0.5446623093681918
2395.538330078125	-3.471856139809194	-8.801775597080985	2.777717911273112	1.323959534934325	-11.15431106469824	6.680909719541697	-0.2304526748971193	-0.8577405857740585	0.5490196078431373
2399.444580078125	-3.47131658346334	-8.747819962495582	3.123855432000184	1.33904330256318	-10.40758989495296	6.688376931239151	-0.2304526748971193	-0.8577405857740585	0.5490196078431373
2403.350830078125	-3.286612502686542	-8.459230066633896	3.059323886792956	1.722821441820217	-10.39607655077524	8.197926026945078	-0.2304526748971193	-0.8577405857740585	0.5490196078431373
2407.257080078125	-3.219058835699445	-8.774570438631322	2.973525334155884	1.008127386492639	-10.41751737243507	7.820353128162442	-0.2304526748971193	-0.8577405857740585	0.5490196078431373
2411.163330078125	-2.905880730706003	-8.769891252418494	3.057699155324541	0.6621079780831	-10.42789795468736	8.197607812905957	-0.2530864197530864	-0.8430962343096233	0.5446623093681918
2415.069580078125	-3.091818516161243	-9.181851616124334	2.903928627971565	-0.06766984487333201	-11.19605994609247	7.812567702425868	-0.2530864197530864	-0.8430962343096233	0.5446623093681918
2418.975830078125	-3.321457334415235	-8.913410209200244	3.026165421246341	1.745466817973643	-10.02226286113243	8.956381144973582	-0.2530864197530864	-0.8430962343096233	0.5446623093681918
2422.882080078125	-3.131317273974214	-9.091323357017334	2.786847932136665	1.361718265781822	-11.15317830277281	8.567713499991141	-0.2366255144032922	-0.8535564853556484	0.5555555555555556
2426.788330078125	-3.290066067462064	-8.804586544186165	2.860203345449405	3.152239139540587	-11.47259700491826	10.07395327523384	-0.2366255144032922	-0.8535564853556484	0.5555555555555556
2430.694580078125	-3.159188289412487	-8.848121870541622	2.808830306407077	3.53599755408748	-10.71481559576544	10.83624807045744	-0.2366255144032922	-0.8535564853556484	0.5555555555555556
2434.600830078125	-3.120074495958637	-8.97714656556068	3.115901522721976	4.243149725600629	-11.06673535897825	11.21008736339135	-0.2366255144032922	-0.8535564853556484	0.5555555555555556
2438.507080078125	-3.30034693978241	-8.822572766119775	3.061221427649723	5.702715233868566	-9.903545408655583	12.35379473459269	-0.2366255144032922	-0.8765690376569036	0.5708061002178649
2442.413330078125	-3.320165026238554	-8.784179391532206	2.820518673090298	6.42495117301057	-9.508744002123116	12.73510123922405	-0.2366255144032922	-0.8765690376569036	0.5708061002178649
2446.319580078125	-3.418811890661918	-8.547855732858419	3.023267579298945	7.162280742136502	-8.740355458332919	13.49750210579403	-0.2366255144032922	-0.8765690376569036	0.5708061002178649
2450.225830078125	-3.493352509206281	-8.931210516587717	2.922546353118956	7.876994522174223	-9.465182701648207	14.62232930505899	-0.2366255144032922	-0.8765690376569036	0.5708061002178649
2454.132080078125	-3.220670431901012	-8.935730058788101	3.01595628769108	8.290930334333897	-7.587092985492371	15.77318567391866	-0.2366255144032922	-0.8765690376569036	0.5708061002178649
2458.038330078125	-3.360122507986016	-8.739523525874221	3.165786234990066	8.982988875863121	-8.312599885962912	15.76593060491396	-0.2366255144032922	-0.8765690376569036	0.5708061002178649
2461.944580078125	-3.309950840657584	-8.772861843536118	2.962600833760053	9.005634252016547	-7.938786196320101	16.52438572294246	-0.2366255144032922	-0.8765690376569036	0.5708061002178649
2465.850830078125	-3.279646769637257	-8.772757771806488	3.033616148763809	10.11920007658509	-7.532244893224836	18.79260207936964	-0.2448559670781893	-0.8598326359832635	0.5708061002178649
2469.757080078125	-3.168767940564252	-8.795985975617047	2.95275544605593	10.82633252338809	-7.137896591462536	18.41918707182122	-0.2448559670781893	-0.8598326359832635	0.5708061002178649
2473.663330078125	-3.401349058591889	-8.821774546057556	2.939039196252618	10.48032297733363	-7.521411206202379	19.1700689068059	-0.2448559670781893	-0.8598326359832635	0.5708061002178649
2477.569580078125	-3.378425997134229	-8.549670420493539	2.922570602842365	11.57123356339367	-7.115549560262369	20.30620299496342	-0.2448559670781893	-0.8598326359832635	0.5708061002178649
2481.475830078125	-3.449717152741763	-8.608078910539954	2.99974534759205	11.56368181722417	-7.115776112647454	19.92884223887353	-0.2448559670781893	-0.8598326359832635	0.5708061002178649
2485.382080078125	-3.400348757501261	-8.721744436994729	2.843040603706565	12.69987329323599	-5.589153054934264	22.20825941284689	-0.2448559670781893	-0.8598326359832635	0.5708061002178649
2489.288330078125	-3.592828916251267	-8.777841120076134	2.909018038672065	11.97009547027956	-6.357315046339375	21.8232193023668	-0.2448559670781893	-0.8598326359832635	0.5708061002178649
2493.194580078125	-3.600790908770611	-8.563939361909554	3.071148658170352	12.00028273024741	-5.610140771823922	22.58540802624403	-0.2530864197530864	-0.8535564853556484	0.5686274509803922
2497.100830078125	-3.560178684491103	-8.543120974362781	3.214009841204628	11.6995639364998	-5.246028007278141	24.85320009728571	-0.2530864197530864	-0.8535564853556484	0.5686274509803922
2501.007080078125	-3.533121045192179	-8.867660074773418	3.137447401971024	11.67689883563623	-4.873573631945838	23.34749067877488	-0.2530864197530864	-0.8535564853556484	0.5686274509803922
2504.913330078125	-3.317304569281415	-8.498133695818201	3.147980875576883	11.7071156826693	-5.245801454893055	25.2305608533756	-0.2530864197530864	-0.8535564853556484	0.5686274509803922
2508.819580078125	-3.802646616833688	-8.547489966196999	3.302275803198582	10.99244135205186	-6.013510341527996	25.60024225507529	-0.2530864197530864	-0.8535564853556484	0.5686274509803922
2512.725830078125	-3.350319557297858	-8.769329467159517	3.235101038139753	12.79049424726998	-5.586434426313244	26.73658848592555	-0.2530864197530864	-0.8535564853556484	0.5686274509803922
2516.632080078125	-3.741334222409026	-8.476856584336939	3.417531707346942	12.39920381126374	-7.090710452826268	26.34418723509438	-0.2530864197530864	-0.8535564853556484	0.5686274509803922
2520.538330078125	-3.479889871093624	-8.59504771542295	3.232418412487614	13.49766614349328	-6.684622254501171	27.85768207934178	-0.2510288065843622	-0.8702928870292886	0.5860566448801744
2524.444580078125	-3.438969473245791	-8.543411971043689	3.427328595604247	13.85878904424182	-6.673788567478716	28.23514890677805	-0.2510288065843622	-0.8702928870292886	0.5860566448801744
2528.350830078125	-3.552297524383123	-8.765105973665753	3.253494453345609	14.61123196806182	-6.278080951405906	30.12589843576896	-0.2510288065843622	-0.8702928870292886	0.5860566448801744
2532.257080078125	-3.2396316947967	-8.811654328154797	3.264394704018031	14.61121224335168	-5.531812886430793	29.37864413528664	-0.2510288065843622	-0.8702928870292886	0.5860566448801744
2536.163330078125	-3.741995027371926	-8.542937080626928	2.868766529028268	15.017616034052	-4.400217787635157	30.89939404853875	-0.2510288065843622	-0.8702928870292886	0.5860566448801744
2540.069580078125	-3.684089719086253	-8.813012312665709	3.24978121444858	16.44699428235208	-3.984202111827945	31.28091269586286	-0.2510288065843622	-0.8702928870292886	0.5860566448801744
2543.975830078125	-3.590554494276515	-8.550398922600957	3.435564407917087	16.41680702238422	-4.731376386343398	30.51872397198563	-0.2510288065843622	-0.8702928870292886	0.5860566448801744
2547.882080078125	-3.521691342225323	-8.734790788188864	3.315922335047092	18.60617007831874	-3.546292509590736	32.79472575414938	-0.2654320987654321	-0.8451882845188283	0.5882352941176471
2551.788330078125	-3.600746450944361	-8.55949357928454	3.51581583632431	19.30577050366239	-3.898438825188636	32.7912042909934	-0.2654320987654321	-0.8451882845188283	0.5882352941176471
2555.694580078125	-4.014510387828757	-8.521745853582738	3.432757502432475	20.72760686814804	-3.855783734254066	33.16898933246878	-0.2654320987654321	-0.8451882845188283	0.5882352941176471
2559.600830078125	-4.015347003286373	-8.605407399344376	3.145737776161534	22.1720984711422	-3.812448986164242	34.67885664221383	-0.2654320987654321	-0.8451882845188283	0.5882352941176471
2563.507080078125	-3.733758204653945	-8.729355818929784	3.435285536097881	23.26298933249209	-2.660319275249118	35.06773642988902	-0.2654320987654321	-0.8451882845188283	0.5882352941176471
2567.413330078125	-3.896047457759534	-8.796664967872502	3.450499206321709	23.97014150400524	-3.012239038461932	35.44157572282293	-0.2654320987654321	-0.8451882845188283	0.5882352941176471
2571.319580078125	-3.682883295346647	-8.692369938705086	3.195219336777947	22.89434427263927	-3.790781612119329	35.43379029708635	-0.2654320987654321	-0.8451882845188283	0.5882352941176471
2575.225830078125	-3.844358161907745	-8.678240433198676	3.275119144195737	26.1293172999719	-2.574329436224724	36.95538878110946	-0.2777777777777778	-0.8284518828451882	0.5925925925925927
2579.132080078125	-3.76201014283077	-8.524246606309308	3.687682719771379	27.20513425604802	-2.54205492754244	37.71042850732835	-0.2777777777777778	-0.8284518828451882	0.5925925925925927
2583.038330078125	-3.944930858531853	-8.634499994599388	3.407613570472591	27.91227656520609	-2.520840658267698	37.7106406500211	-0.2777777777777778	-0.8284518828451882	0.5925925925925927
2586.944580078125	-3.934115481891363	-8.563063340651398	3.502202647845487	28.95790626131436	-3.235740424100868	37.70349165236277	-0.2777777777777778	-0.8284518828451882	0.5925925925925927
2590.850830078125	-3.913820484208171	-8.553765592534265	3.462466444824135	30.77861439504098	-2.807984851730861	39.97192015148269	-0.2839506172839507	-0.8347280334728032	0.5991285403050109
2594.757080078125	-3.880181065813942	-8.220126783414335	3.560292860272154	31.47819509567448	-2.413863102353646	39.22114438784439	-0.2839506172839507	-0.8347280334728032	0.5991285403050109
2598.663330078125	-3.965114711649419	-8.632683286153982	3.548916708777828	32.21554438951055	-2.391742623538564	40.73079955489669	-0.2839506172839507	-0.8347280334728032	0.5991285403050109
2602.569580078125	-3.841197614623416	-8.362185704765823	3.573781768918506	31.83932785877809	-2.776163447818747	39.97223836552182	-0.2860082304526749	-0.8305439330543932	0.5860566448801744
2606.475830078125	-3.719605459829268	-8.324182346563086	3.576897858376584	34.70563610154775	-1.943905543819239	41.11263641625992	-0.2860082304526749	-0.8305439330543932	0.5860566448801744
2610.382080078125	-3.579309695450654	-8.436020050115896	3.784830142963942	36.48103375825738	-1.517509285759741	41.11690037884052	-0.2860082304526749	-0.8305439330543932	0.5860566448801744
2614.288330078125	-3.757541120887489	-8.077344411981139	3.942395752030453	35.79651710054258	-0.4186418004165585	41.12788905369395	-0.2860082304526749	-0.8305439330543932	0.5860566448801744
2618.194580078125	-3.679088213633112	-8.312861767351571	3.779889261819323	36.57157581345079	1.470281602761733	42.65621224998988	-0.2942386831275721	-0.7970711297071129	0.6209150326797386
2622.100830078125	-3.758156457618997	-8.138878085131909	3.848403824096508	37.62476711808362	0.382474356826091	43.40005115866261	-0.2942386831275721	-0.7970711297071129	0.6209150326797386
2626.007080078125	-3.880037588283771	-8.205779030397242	3.985254106940735	37.26363435498002	0.7447747022911916	42.64895718098518	-0.2942386831275721	-0.7970711297071129	0.6209150326797386
2629.913330078125	-3.806927703420548	-7.965497614782051	3.917191195762046	38.02361916261444	1.513842903236643	44.54344031582482	-0.308641975308642	-0.811715481171548	0.6209150326797386
2633.819580078125	-4.032556223665749	-8.306127417079816	3.746388268929555	38.00850580792037	1.886523830954029	43.41509165340388	-0.308641975308642	-0.811715481171548	0.6209150326797386
2637.725830078125	-4.041129511296032	-8.153355170007185	3.854951249416984	40.53635625080507	2.335493672598779	45.68373229521656	-0.308641975308642	-0.811715481171548	0.6209150326797386
2641.632080078125	-3.771412973082676	-8.454428621398883	3.57996847960327	40.53632666373985	3.454895770061449	44.56285084449307	-0.308641975308642	-0.811715481171548	0.6209150326797386
2645.538330078125	-3.820569183243348	-8.319544586961081	3.838746371748806	41.25856260288186	3.849697176593919	44.94415734912443	-0.3148148148148148	-0.7803347280334727	0.627450980392157
2649.444580078125	-4.254740272781705	-8.302310106453156	3.683751233363667	41.60459187364647	3.486943726358648	44.94052981462208	-0.3148148148148148	-0.7803347280334727	0.627450980392157
2653.350830078125	-4.062332863201926	-8.253488340394499	3.90023760788361	42.68041869207766	3.146084202553375	46.06919669108214	-0.3148148148148148	-0.7803347280334727	0.627450980392157
2657.257080078125	-4.180590681027312	-7.958058001721146	3.913826546639024	42.68041869207766	3.146084202553375	46.06919669108214	-0.323045267489712	-0.7782426778242677	0.6448801742919391
2661.163330078125	-4.009916075647861	-8.062314635493165	3.930522481206238	43.02644796284228	2.783330752318105	46.06556915657979	-0.323045267489712	-0.7782426778242677	0.6448801742919391
2665.069580078125	-4.240583486336459	-7.896732472029639	3.865787844565457	42.32685739985369	2.762343035428447	46.44271776997693	-0.323045267489712	-0.7782426778242677	0.6448801742919391
2668.975830078125	-4.171697094967	-8.078800405790831	3.978585433003214	43.36493534979245	2.047216717210192	46.05820801622871	-0.323045267489712	-0.7782426778242677	0.6448801742919391
2672.882080078125	-4.171184819559981	-8.02757286508896	4.051859003499448	45.19316564262336	3.594600939427955	47.58311582071504	-0.3353909465020576	-0.7635983263598326	0.6209150326797386
2676.788330078125	-4.243928937761781	-8.231277614561984	3.737916021813476	45.54673679720239	3.605208074065326	47.58322189206141	-0.3353909465020576	-0.7635983263598326	0.6209150326797386
2680.694580078125	-4.219483195755054	-7.806905434091219	3.799783128661121	45.54673679720239	3.605208074065326	47.58322189206141	-0.3353909465020576	-0.7635983263598326	0.6209150326797386
2684.600830078125	-4.322379824205875	-7.995558178163144	3.920634656486148	45.92295332793486	3.989628898345509	48.34178308143629	-0.3353909465020576	-0.7573221757322175	0.6557734204793029
2688.507080078125	-4.150991872796136	-8.028480208906521	4.001510515271158	47.3825188362028	5.152818848668174	49.48549045263763	-0.3353909465020576	-0.7573221757322175	0.6557734204793029
2692.413330078125	-4.180890771354501	-7.988067034439994	3.94262612440284	48.1047547753448	5.547620255200643	49.86679695726899	-0.3353909465020576	-0.7573221757322175	0.6557734204793029
2696.319580078125	-4.251884867850275	-8.016769613310174	3.960683074696393	48.83453259830124	6.315782246605754	50.25183706774908	-0.3353909465020576	-0.7573221757322175	0.6557734204793029
2700.225830078125	-4.412551410297732	-7.921807696439862	4.044632585923515	50.27146259277082	6.73202447479805	51.01071647116308	-0.345679012345679	-0.7510460251046025	0.6840958605664489
2704.132080078125	-4.472772567168981	-7.883317322958658	3.73282357989755	51.70084084107089	7.148040150605261	51.39223511848719	-0.345679012345679	-0.7510460251046025	0.6840958605664489
2708.038330078125	-4.440916513850467	-7.728015021410336	4.175250689851586	51.35480170795122	7.883927633328089	51.02223550274838	-0.345679012345679	-0.7510460251046025	0.6840958605664489
2711.944580078125	-4.479505907035594	-7.546550299518945	4.062725910802182	52.06195387946436	7.532007870115274	51.39607479568229	-0.3662551440329219	-0.7301255230125523	0.6557734204793029
2715.850830078125	-4.398488591530698	-7.525626829837399	4.296905489764541	52.79174156477587	7.927035829032828	52.15474205640354	-0.3662551440329219	-0.7301255230125523	0.6557734204793029
2719.757080078125	-4.226922808815959	-7.540765730080715	4.136248040963361	52.80682533240472	8.673756998778112	52.16220926810099	-0.3662551440329219	-0.7301255230125523	0.6557734204793029
2723.663330078125	-4.086351203833567	-7.625019373255594	4.072835014248381	53.88263242612577	9.079165539947953	52.54362184407873	-0.3662551440329219	-0.7301255230125523	0.6557734204793029
2727.569580078125	-4.04684436277946	-7.714739308248957	4.270764287929455	53.56678055297393	10.56222729718623	52.93581095221715	-0.3786008230452675	-0.7175732217573221	0.6753812636165578
2731.475830078125	-4.469514010585874	-7.55746166464793	4.00167420090417	53.58942592912736	10.93604098682905	53.69426607024565	-0.3786008230452675	-0.7175732217573221	0.6753812636165578
2735.382080078125	-4.659658112647462	-7.37995267888766	4.200567401090759	53.58938647970707	12.42857711677927	52.199757469281	-0.3786008230452675	-0.7175732217573221	0.6753812636165578
2739.288330078125	-4.499479595883614	-7.523717164118927	4.285890052905925	54.73309025246811	15.44796285682778	53.3620267983796	-0.3786008230452675	-0.7092050209205021	0.673202614379085
2743.194580078125	-4.652071990840961	-7.631441508338456	4.319381952149416	54.74817402009696	16.19468402657306	53.36949401007706	-0.3786008230452675	-0.7092050209205021	0.673202614379085
2747.100830078125	-4.599673390579453	-7.442086532692807	4.167757525318152	56.1926360360259	17.35742087212556	53.75847986909862	-0.3786008230452675	-0.7092050209205021	0.673202614379085
2751.007080078125	-4.610647400827246	-7.529386547370962	4.50671712791611	55.85415851143078	17.72040087474591	54.13946815969086	-0.3786008230452675	-0.7092050209205021	0.673202614379085
2754.913330078125	-4.6807351639106	-7.467455784999367	4.499011778302846	56.9375272136764	17.75290193581328	55.27186864199965	-0.3950617283950618	-0.6924686192468619	0.6884531590413944
2758.819580078125	-4.761140173899415	-7.427148703072758	4.328505910582116	54.82364217001659	18.06261971286169	55.27496581977013	-0.3950617283950618	-0.6924686192468619	0.6884531590413944
2762.725830078125	-5.003391879541601	-7.409895024867132	4.559269309759208	55.86172011995536	17.34749339464344	54.89045606602191	-0.3950617283950618	-0.6924686192468619	0.6884531590413944
2766.632080078125	-4.862513111396026	-7.463432351723729	4.537799210895813	56.96772433599932	18.12694217784117	56.40768451611804	-0.4032921810699589	-0.6757322175732217	0.7080610021786493
2770.538330078125	-4.901498583396835	-7.32157551140065	4.50409815778792	56.60661129760586	17.74297445833116	56.40384483892294	-0.4032921810699589	-0.6757322175732217	0.7080610021786493
2774.444580078125	-5.023385776492463	-7.389082699751212	4.580312007247516	56.59907927614651	16.99647984097096	56.77373838331538	-0.4032921810699589	-0.6757322175732217	0.7080610021786493
2778.350830078125	-4.830208438194443	-7.263268061868442	4.416817340807462	56.61419263084058	16.62379891325358	57.90208704573632	-0.4032921810699589	-0.6757322175732217	0.7080610021786493
2782.257080078125	-5.030571777862713	-7.097581826675285	4.423098019170438	56.62174437701007	16.62402546563866	58.2794478018262	-0.397119341563786	-0.6506276150627615	0.7145969498910676
2786.163330078125	-5.009227979642075	-6.98340402481349	4.772454690680077	57.34399017850716	16.64569283968357	59.03438145669872	-0.397119341563786	-0.6506276150627615	0.7145969498910676
2790.069580078125	-5.323704455243049	-7.117920271779585	4.833291184282833	55.90707004639264	15.85631657900372	58.64912920352589	-0.397119341563786	-0.6506276150627615	0.7145969498910676
2793.975830078125	-5.060237272833265	-7.033828293427434	4.678514293408377	58.43491062692227	16.67842045313603	60.54414269509741	-0.4197530864197531	-0.6338912133891212	0.7145969498910676
2797.882080078125	-5.340992487223503	-6.826521449623005	4.645668043050656	58.06623598000423	16.66736021372849	59.78931511157125	-0.4197530864197531	-0.6338912133891212	0.7145969498910676
2801.788330078125	-5.250602653620963	-6.878447180278033	4.68437969525797	57.74287181010319	16.65765928863145	61.29865206458443	-0.4197530864197531	-0.6338912133891212	0.7145969498910676
2805.694580078125	-5.321269378850712	-6.874412632545833	4.946501018018545	57.72023629630483	15.91071156650109	60.91382409679709	-0.4197530864197531	-0.6338912133891212	0.7145969498910676
2809.600830078125	-5.320985455005796	-6.846020248054262	4.756004284562382	58.44248209780191	15.932378940546	61.66875775166962	-0.4465020576131687	-0.6276150627615062	0.7233115468409587
2813.507080078125	-5.340378160897138	-6.76508881698644	4.729553898753829	57.76553691096676	16.28520491329915	62.80436148309526	-0.4465020576131687	-0.6276150627615062	0.7233115468409587
2817.413330078125	-5.431843065570819	-6.820670193445401	5.049092504116468	57.75046300569297	15.16534971106631	63.17052142163897	-0.4465020576131687	-0.6276150627615062	0.7233115468409587
2821.319580078125	-5.471059920349156	-6.701951630875238	4.721302930363859	57.41199534345294	15.15519568119911	63.92513686247237	-0.448559670781893	-0.5983263598326359	0.7254901960784315
2825.225830078125	-5.612644961689025	-6.719041623447851	4.749335610624859	56.69734073754565	13.64121872958906	65.04207256465439	-0.448559670781893	-0.5983263598326359	0.7254901960784315
2829.132080078125	-5.783501439994045	-6.632972282232711	4.933748694720748	57.04337000831026	13.27846527935379	65.03844503015203	-0.448559670781893	-0.5983263598326359	0.7254901960784315
2833.038330078125	-5.702201211049375	-6.5837574685738	4.96732546799617	56.29850841772498	11.76358211820339	64.6459377079745	-0.448559670781893	-0.5983263598326359	0.7254901960784315
2836.944580078125	-5.817549062065662	-7.007431459091411	4.793473138444976	57.00568031394827	10.66539429001546	65.76703130139073	-0.462962962962963	-0.5920502092050208	0.7189542483660132
2840.850830078125	-5.70177482007943	-6.541118371579342	5.191683908977815	57.3139804409306	9.182105980392098	64.99748143716242	-0.462962962962963	-0.5920502092050208	0.7189542483660132
2844.757080078125	-5.561316380472948	-6.636688552345166	5.006491802517407	56.93779349726334	7.678283058649244	65.35980169851102	-0.462962962962963	-0.5920502092050208	0.7189542483660132
2848.663330078125	-5.680279461087485	-6.411784492586816	5.036749394901199	57.26873900039911	6.56880843866869	65.34870695231122	-0.4609053497942387	-0.5711297071129706	0.7538126361655774
2852.569580078125	-5.6100876262745	-6.463308081995309	5.075279174182945	57.27629074656861	6.569034991053774	65.7260677084011	-0.4609053497942387	-0.5711297071129706	0.7538126361655774
2856.475830078125	-5.742080891600898	-6.531321483322038	5.080659581564355	56.53898090215282	5.054378382288465	65.71092114231345	-0.4609053497942387	-0.5711297071129706	0.7538126361655774
2860.382080078125	-5.640492737809031	-6.473516205145427	5.003757646203023	56.89254219437678	5.438119549413393	65.33740006341867	-0.4609053497942387	-0.5711297071129706	0.7538126361655774
2864.288330078125	-5.577568747182801	-6.241723203128587	5.076582596816188	56.16276437142036	4.669957558008282	64.95235995293858	-0.4855967078189301	-0.5418410041841004	0.7559912854030502
2868.194580078125	-5.577641496353029	-6.248998120151338	5.359046406301631	56.17031611758986	4.670184110393367	65.32972070902846	-0.4855967078189301	-0.5418410041841004	0.7559912854030502
2872.100830078125	-5.394270139958593	-6.093680662525886	5.095918720019575	55.46317380843178	4.648969841118625	65.32950856633572	-0.4855967078189301	-0.5418410041841004	0.7559912854030502
2876.007080078125	-5.557735504649527	-6.278600970003083	5.46887643483719	55.11715440002224	4.638589258866339	65.70676325107924	-0.5	-0.5418410041841004	0.7559912854030502
2879.913330078125	-5.609356092951655	-6.390154749710979	5.321368398554633	56.19296149374328	5.04399780003618	66.08817582705697	-0.5	-0.5418410041841004	0.7559912854030502
2883.819580078125	-5.627749508157512	-6.209294250094533	5.188813347969255	55.87712934530159	5.780791492299347	67.22761923567772	-0.5	-0.5418410041841004	0.7559912854030502
2887.725830078125	-5.60573278011227	-6.02782346577229	5.19810705446582	55.51600644455305	5.76995780527689	66.85015240824146	-0.5	-0.5418410041841004	0.7559912854030502
2891.632080078125	-5.879846601503822	-6.166478332200215	4.925806910304245	55.86958746148716	5.407430907426704	67.22388562982898	-0.5061728395061729	-0.5125523012552301	0.7516339869281047
2895.538330078125	-5.73784527324543	-6.107759647775193	5.021071948717171	54.46285458934051	5.365228921262305	67.60082210053338	-0.5061728395061729	-0.5125523012552301	0.7516339869281047
2899.444580078125	-5.88629197590495	-5.800914762212114	5.105636796675801	54.09419966713262	4.60790061687965	67.59324881748955	-0.5061728395061729	-0.5125523012552301	0.7516339869281047
2903.350830078125	-5.787931056136786	-6.06583288640588	5.073172479461773	53.74819012107815	4.224386002139807	68.34413065247423	-0.5061728395061729	-0.5125523012552301	0.7516339869281047
2907.257080078125	-6.057468752639999	-5.74687526399992	5.11672801392007	53.04104781192007	4.203171732865065	68.34391850978149	-0.5061728395061729	-0.5125523012552301	0.7516339869281047
2911.163330078125	-5.893851827177759	-5.546798879391991	5.24958012361721	52.32637348130264	3.435462846230124	68.71359991148117	-0.5061728395061729	-0.5125523012552301	0.7516339869281047
2915.069580078125	-5.935055138465365	-5.626725967748617	5.255272746187512	51.9728023267236	3.424855711592753	68.7134938401348	-0.5061728395061729	-0.5125523012552301	0.7516339869281047
2918.975830078125	-6.329231361266004	-5.650408853873098	5.128934718441161	50.88945334918813	2.646086585550271	68.32834765830833	-0.5144032921810699	-0.4644351464435146	0.7777777777777779
2922.882080078125	-6.045238808800642	-5.533981890165102	5.218404072959295	51.61924103449963	3.041114544467825	69.08701491902958	-0.5144032921810699	-0.4644351464435146	0.7777777777777779
2926.788330078125	-6.219957055558573	-5.834089394241001	5.16124747488388	50.53589205696416	2.262345418425343	68.70186873720313	-0.5144032921810699	-0.4644351464435146	0.7777777777777779
2930.694580078125	-6.249632654580545	-5.7713462661352	5.315603026814102	50.53590191931923	1.889211385937786	69.07549588744429	-0.5144032921810699	-0.4644351464435146	0.7777777777777779
2934.600830078125	-6.25699850806608	-5.49783060458774	5.379710201861671	50.5283600355048	1.515850801065144	69.07176228159557	-0.5144032921810699	-0.4644351464435146	0.7777777777777779
2938.507080078125	-6.176605622938969	-5.539350172684808	5.428943202813138	50.89702482006777	1.900045072960242	69.45296271488056	-0.5144032921810699	-0.4644351464435146	0.7777777777777779
2942.413330078125	-6.066323943304915	-5.622293320390448	5.435999872325207	50.15970511329692	0.7585224966824896	69.06418899855174	-0.5144032921810699	-0.4644351464435146	0.7777777777777779
2946.319580078125	-6.196294377536931	-5.488023612279014	5.471716683691489	49.43745931179984	0.7368551226375774	68.30925534367921	-0.5390946502057614	-0.4309623430962343	0.7799564270152506
2950.225830078125	-6.273763150182953	-5.154092796073033	5.376527425664217	49.81368570488738	0.7481419144302034	69.44144368329525	-0.5390946502057614	-0.4309623430962343	0.7799564270152506
2954.132080078125	-6.395870611599547	-5.243626816520259	5.269819549017589	48.34656845044994	-0.4152745882775467	67.92037555600402	-0.5390946502057614	-0.4309623430962343	0.7799564270152506
2958.038330078125	-6.212554827487923	-5.093866587176075	5.460958900144096	48.37677543512794	-0.4143683787372067	69.42981858036357	-0.5390946502057614	-0.4309623430962343	0.7799564270152506
2961.944580078125	-6.142173036508232	-5.126394559914051	5.379228238608913	47.66964298832493	-0.8087166804995058	69.80323358791199	-0.5390946502057614	-0.4309623430962343	0.7799564270152506
2965.850830078125	-6.057728426761506	-4.762741666049563	5.549770480914757	48.39187892746693	-0.4139152739670368	70.18454009254336	-0.5390946502057614	-0.4309623430962343	0.7799564270152506
2969.757080078125	-6.232893272592223	-5.107509077404017	5.066133997242262	47.67719473449443	-0.8084901281144209	70.18059434400188	-0.5390946502057614	-0.4309623430962343	0.7799564270152506
2973.663330078125	-5.910306274916023	-5.172041633016388	5.318658491963657	48.05341126522689	-0.4240693038342379	70.93915553337676	-0.551440329218107	-0.399581589958159	0.8169934640522877
2977.569580078125	-6.008662142658476	-4.906618306251597	5.401653170331543	47.70738199446228	-0.06131585359896734	70.94278306787911	-0.551440329218107	-0.399581589958159	0.8169934640522877
2981.475830078125	-6.242037439127764	-5.01182472085714	5.525372227949704	46.99269780148978	-0.4558907077463515	70.93883731933764	-0.551440329218107	-0.399581589958159	0.8169934640522877
2985.382080078125	-6.189341779754495	-4.792763834035259	5.314630006662309	47.00778156911863	0.2908304619989321	70.9463045310351	-0.551440329218107	-0.399581589958159	0.8169934640522877
2989.288330078125	-6.209414488306436	-4.779832669027318	5.55750008025143	47.01532345293306	0.6641910468715739	70.95003813688382	-0.551440329218107	-0.399581589958159	0.8169934640522877
2993.194580078125	-6.268779832022369	-4.65576098001458	5.724726172881068	46.6843779497973	1.773665666852128	70.96113288308362	-0.551440329218107	-0.399581589958159	0.8169934640522877
2997.100830078125	-6.116712847738888	-4.600577703181588	5.48658176414131	45.61611273989069	1.74161771055493	70.58345391295461	-0.551440329218107	-0.399581589958159	0.8169934640522877
3001.007080078125	-5.916233311479282	-4.754644279241184	5.632398382216079	45.6538320213179	3.235286602430582	70.9757490924394	-0.5411522633744856	-0.3702928870292887	0.8017429193899783
3004.913330078125	-6.35029325645201	-4.726295342170721	5.578970179114823	46.3760679604599	3.630088008963051	71.35705559707077	-0.5411522633744856	-0.3702928870292887	0.8017429193899783
3008.819580078125	-6.248918298145116	-4.68980961249134	5.389889023262669	46.7522746288373	4.387642865730791	71.74198963620448	-0.5411522633744856	-0.3702928870292887	0.8017429193899783
3012.725830078125	-6.418168232274279	-4.443085853690447	5.481340792669504	46.74472288266779	4.387416313345706	71.36462888011459	-0.5411522633744856	-0.3702928870292887	0.8017429193899783
3016.632080078125	-6.306961021530108	-4.433475890384421	5.654650534659418	46.75981651265172	4.761003450603432	71.74572324205322	-0.5411522633744856	-0.3702928870292887	0.8017429193899783
3020.538330078125	-6.548340747534706	-4.329024248419987	5.516045178083452	45.69156116510018	4.355821461818677	71.74167142216537	-0.5411522633744856	-0.3702928870292887	0.8017429193899783
3024.444580078125	-6.488953174905648	-4.450873046120217	5.571152674530793	46.03758057350971	4.366202044070963	71.36441673742185	-0.5411522633744856	-0.3702928870292887	0.8017429193899783
3028.350830078125	-6.448944162495942	-4.490375845553755	5.741294796400384	46.04511259496907	5.112696661431162	70.99452319302941	-0.5637860082304528	-0.3075313807531381	0.8169934640522877
3032.257080078125	-6.62771009225292	-4.185150639433379	5.603253245893682	46.09039348492085	6.233458073204342	72.13780627884526	-0.5637860082304528	-0.3075313807531381	0.8169934640522877
3036.163330078125	-6.416655655776632	-4.291828203925746	5.458615770619685	45.36814768342378	6.21179069915943	71.38287262397273	-0.5637860082304528	-0.3075313807531381	0.8169934640522877
3040.069580078125	-6.496206873420416	-4.166141887496016	5.746932857093016	45.02211841265916	6.574544149394701	71.38650015847509	-0.5637860082304528	-0.3075313807531381	0.8169934640522877
3043.975830078125	-6.473986043536478	-3.964260919304389	5.777451134003457	44.66854725808012	6.56393701475733	71.38639408712871	-0.5843621399176955	-0.2949790794979079	0.823529411764706
3047.882080078125	-6.434604492719986	-4.066509878059155	5.732328461169844	44.31496624114601	6.926463912607515	71.01266086554118	-0.5843621399176955	-0.2949790794979079	0.823529411764706
3051.788330078125	-6.636869414865592	-4.090981890599577	5.910900393139548	43.21651377127154	6.147241681794863	69.87279317153494	-0.5843621399176955	-0.2949790794979079	0.823529411764706
3055.694580078125	-6.211120052186213	-3.940288046904139	5.670167326425861	43.56253317968109	6.157622264047149	69.49553848679142	-0.5823045267489713	-0.2824267782426778	0.8453159041394336
3059.600830078125	-6.805838456365266	-3.816168868849727	5.781537212397902	42.84030710289415	5.389686825027123	69.48785913240123	-0.5823045267489713	-0.2824267782426778	0.8453159041394336
3063.507080078125	-6.38308898655263	-3.965464311828569	5.838905995553147	42.84029724053907	5.76282085751468	69.11423198216006	-0.5823045267489713	-0.2824267782426778	0.8453159041394336
3067.413330078125	-6.533946515881079	-3.899702093158325	6.052806743314587	42.09541592524364	4.994205761339399	67.97447035950019	-0.5823045267489713	-0.2824267782426778	0.8453159041394336
3071.319580078125	-6.544147566195203	-3.909706114469749	6.042103521644864	42.47162259362104	5.751760618107139	68.35940439863391	-0.5925925925925927	-0.2719665271966527	0.8278867102396515
3075.225830078125	-6.672236626052726	-3.587298968908834	5.703407634788982	41.37317998610165	4.59940435480693	67.59316385486883	-0.5925925925925927	-0.2719665271966527	0.8278867102396515
3079.132080078125	-6.744025911395291	-3.695520432458252	5.848793820273237	41.380712007561	5.345898972167129	67.22327031047639	-0.5925925925925927	-0.2719665271966527	0.8278867102396515
3083.038330078125	-6.704949502931696	-3.828283626502892	5.78194036404958	41.01204722299803	4.961704700272031	66.84206987719141	-0.5802469135802469	-0.2489539748953975	0.8474945533769064
3086.944580078125	-6.723317658009002	-3.644897114031324	5.902037119233496	40.98186982538525	3.84139639326902	66.45350830355534	-0.5802469135802469	-0.2489539748953975	0.8474945533769064
3090.850830078125	-6.519905926027168	-3.505744117868368	6.082746058078635	40.26718563241275	3.446821539121637	66.44956255501387	-0.5802469135802469	-0.2489539748953975	0.8474945533769064
3094.757080078125	-6.579808805278672	-3.435425982412626	5.924046774442744	39.87587547169635	2.688813577583727	65.30990700370037	-0.5802469135802469	-0.2489539748953975	0.8474945533769064
3098.663330078125	-7.223208529201633	-3.128933728244121	5.993543450518001	39.51476243330289	2.304845858073714	65.30606732650527	-0.6193415637860082	-0.2280334728033473	0.8409586056644881
3102.569580078125	-6.958540985483096	-2.924805619016577	5.723568248588281	39.16874302489335	2.294465275821427	65.68332201124879	-0.6193415637860082	-0.2280334728033473	0.8409586056644881
3106.475830078125	-6.738459589467743	-3.138888239703586	5.967590184039336	38.41632968813857	0.7793555622859479	64.91345393298135	-0.6193415637860082	-0.2280334728033473	0.8409586056644881
3110.382080078125	-7.013762657711487	-3.396467791350652	5.921655145471515	37.70918737898049	0.7581412930112056	64.91324179028861	-0.6090534979423868	-0.2175732217573222	0.8366013071895426
3114.288330078125	-6.940345609685082	-3.125470059417178	5.895535162144412	36.25717361688205	-0.4048221049263744	64.14689517517715	-0.6090534979423868	-0.2175732217573222	0.8366013071895426
3118.194580078125	-6.880765049673892	-3.228020118904276	5.860700434467139	35.51232188865183	-2.292839298564326	64.12801500324078	-0.6090534979423868	-0.2175732217573222	0.8366013071895426
3122.100830078125	-6.818454374968887	-3.057558709009797	5.859745601607903	35.12103145264558	-3.797115325077349	63.73561375240961	-0.6090534979423868	-0.2175732217573222	0.8366013071895426
3126.007080078125	-6.979836284256915	-3.034133476196538	5.859303044155686	34.75236666808262	-4.181309596972446	63.35441331912462	-0.6090534979423868	-0.198744769874477	0.8431372549019609
3129.913330078125	-7.178284906181003	-2.67697546658514	5.824671407911964	33.98486956369898	-6.44314048025321	62.57707802915974	-0.6090534979423868	-0.198744769874477	0.8431372549019609
3133.819580078125	-6.977423436777703	-2.792848728275292	5.750179288814419	33.25510160309762	-7.584436504145877	62.56566506892081	-0.6090534979423868	-0.198744769874477	0.8431372549019609
3137.725830078125	-7.099698625447877	-2.899155474080527	5.986065442061698	32.14912697411886	-9.483287384806285	62.16931806954817	-0.6090534979423868	-0.1799163179916318	0.8409586056644881
3141.632080078125	-7.037027236107161	-2.692622600614907	5.552574355183942	31.41933928880736	-9.878315343723839	61.41065080882692	-0.6090534979423868	-0.1799163179916318	0.8409586056644881
3145.538330078125	-6.846332463243154	-2.815064506133519	5.810985470262914	31.03558087426047	-10.63609675287666	60.64835601360331	-0.6090534979423868	-0.1799163179916318	0.8409586056644881
3149.444580078125	-6.86511084280813	-2.672700442429131	5.868420940157534	29.92205449911222	-12.53517418592216	59.87464825814078	-0.6090534979423868	-0.1799163179916318	0.8409586056644881
3153.350830078125	-6.663635047078465	-2.727141071482719	5.877814676763161	29.19982842232529	-13.30310962494218	59.86696890375058	-0.5987654320987655	-0.2071129707112971	0.851851851851852
3157.257080078125	-6.783609543240193	-2.60337856644345	5.892904067154517	28.83871538393182	-13.68707734445219	59.86312922655549	-0.5987654320987655	-0.2071129707112971	0.851851851851852
3161.163330078125	-6.602733887546617	-2.697631178904043	5.920303223391454	28.4625185779095	-14.81776623370749	59.85182233766293	-0.5987654320987655	-0.2071129707112971	0.851851851851852
3165.069580078125	-6.853770055493776	-2.548722721094606	6.167662527026697	28.05609506249903	-15.20309326752801	57.58381812392849	-0.6111111111111112	-0.1610878661087866	0.8583877995642702
3168.975830078125	-6.460941713152629	-2.65982788091943	5.943813330236645	28.09384393099146	-14.82882647311503	59.09699475413678	-0.6111111111111112	-0.1610878661087866	0.8583877995642702
3172.882080078125	-6.792795136386558	-2.511836870978974	5.937793336400318	27.04069207577891	-15.23355535712962	59.84766444642871	-0.6111111111111112	-0.1610878661087866	0.8583877995642702
3176.788330078125	-6.521658978948624	-2.670948399912819	5.720427909406793	26.66445582033631	-14.87170811643469	58.3418489565715	-0.6111111111111112	-0.1610878661087866	0.8583877995642702
3180.694580078125	-6.468923913774814	-2.447946933036946	5.903822505119496	26.30334278194284	-15.2556758359447	58.33800927937641	-0.6090534979423868	-0.1443514644351464	0.8387799564270153
3184.600830078125	-6.481450916725935	-2.690546218047997	5.861264240536403	26.30334278194284	-15.2556758359447	58.33800927937641	-0.6090534979423868	-0.1443514644351464	0.8387799564270153
3188.507080078125	-6.488216589557094	-2.357012491062841	5.867772260056339	25.93465827266973	-14.89360204286468	57.20955454560909	-0.6090534979423868	-0.1443514644351464	0.8387799564270153
3192.413330078125	-6.367127616523685	-2.369327308934131	5.888569429095129	27.0104555040357	-14.11505946920729	57.21733997134567	-0.5987654320987655	-0.1150627615062761	0.8453159041394336
3196.319580078125	-6.39882604664004	-2.508867290266492	6.012588577040478	27.01044564168063	-13.74192543671973	56.8437128211045	-0.5987654320987655	-0.1150627615062761	0.8453159041394336
3200.225830078125	-6.60926514638482	-2.340656052623355	6.25121798024842	26.28820970253862	-14.1367268432522	56.46240631647314	-0.5987654320987655	-0.1150627615062761	0.8453159041394336
3204.132080078125	-6.488602564321356	-2.395609967489104	6.047656708305564	26.99532242463149	-12.99611047651479	55.3417370084424	-0.5987654320987655	-0.1150627615062761	0.8453159041394336
3208.038330078125	-6.506570598962409	-2.172211411392405	6.129354026471059	27.35641573831481	-11.86587469202966	54.59832238515518	-0.6152263374485597	-0.1234309623430962	0.860566448801743
3211.944580078125	-6.507590097750737	-2.274161290225126	6.033337246632449	26.63416993681773	-11.88754206607457	53.84338873028265	-0.6152263374485597	-0.1234309623430962	0.860566448801743
3215.850830078125	-6.283890440921708	-2.126417829544471	6.103567476840833	26.99527311285613	-11.130440314077	53.4736012572366	-0.6152263374485597	-0.1234309623430962	0.860566448801743
3219.757080078125	-6.528992499469614	-2.394199441910804	6.107929395839058	26.29565296280233	-10.03202593350399	52.72986841991025	-0.5864197530864198	-0.102510460251046	0.851851851851852
3223.663330078125	-6.456676793048041	-2.233335870460645	6.177301792081842	25.93451033734365	-9.296591555551331	51.60514729199166	-0.5864197530864198	-0.102510460251046	0.851851851851852
3227.569580078125	-6.355174523693248	-2.18411903599145	6.25148472720592	25.57334798717482	-7.81488911262356	49.73317186359075	-0.5864197530864198	-0.102510460251046	0.851851851851852
3231.475830078125	-6.264201686323746	-2.177744389950264	6.060793995962483	25.96464828553614	-6.683747118598095	50.49920026466308	-0.5864197530864198	-0.102510460251046	0.851851851851852
3235.382080078125	-6.486570639580696	-2.192417493423096	6.168947762367383	25.97974191552007	-6.310159981340369	50.8802946266017	-0.6069958847736626	-0.09623430962343095	0.8496732026143792
3239.288330078125	-6.261583726600698	-1.915948417645429	5.983000883265864	26.31063810688046	-5.553964438883138	49.00106412919608	-0.6069958847736626	-0.09623430962343095	0.8496732026143792
3243.194580078125	-6.51587238870011	-2.09228937506149	6.022145999279117	25.2197373831755	-6.332960117310706	48.23855719127972	-0.6069958847736626	-0.09623430962343095	0.8496732026143792
3247.100830078125	-6.494379050518449	-1.963157577097373	5.846999340740958	25.23483101315943	-5.959372980052979	48.61965155321834	-0.617283950617284	-0.07740585774058577	0.8671023965141613
3251.007080078125	-6.361973539894095	-1.853919645975055	5.924492363110388	25.23481128844928	-5.213104915077865	47.87239725273601	-0.617283950617284	-0.07740585774058577	0.8671023965141613
3254.913330078125	-6.433981072747342	-1.983965860592726	5.907168966949962	24.50502360313777	-5.608132873995419	47.11372999201477	-0.617283950617284	-0.07740585774058577	0.8671023965141613
3258.819580078125	-6.26957502086916	-1.704976834390788	5.85205540807177	24.49747185696828	-5.608359426380503	46.73636923592488	-0.617283950617284	-0.07740585774058577	0.8671023965141613
3262.725830078125	-6.452461382795414	-1.8117948451979	5.915592714619223	24.4974619946132	-5.235225393892947	46.36274208568371	-0.617283950617284	-0.0606694560669456	0.8649237472766885
3266.632080078125	-6.450736621217937	-1.639318687450176	5.994940840829455	23.79030982310005	-4.883305630680133	45.9889027927498	-0.617283950617284	-0.0606694560669456	0.8649237472766885
3270.538330078125	-6.582638950081551	-1.698238442498465	5.899766738879313	23.0756059054174	-4.531612419852403	45.23770274372601	-0.617283950617284	-0.0606694560669456	0.8649237472766885
3274.444580078125	-6.470330397732547	-1.578494318709124	5.977584101299341	22.69938937468494	-4.916033244132586	44.47914155435113	-0.6028806584362141	-0.04602510460251046	0.8801742919389979
3278.350830078125	-6.508416609156932	-1.346711420743705	5.847378242669226	22.00734069551078	-4.563660376149602	44.860023773597	-0.6028806584362141	-0.04602510460251046	0.8801742919389979
3282.257080078125	-6.458827945595464	-1.438350115101818	5.873595224889965	21.62357241860882	-4.94830775281487	43.72410182813223	-0.6028806584362141	-0.04602510460251046	0.8801742919389979
3286.163330078125	-6.691797059197647	-1.502938242997001	6.019551278874336	19.85571664571363	-5.001343426001726	43.72357147140036	-0.6028806584362141	-0.04602510460251046	0.8801742919389979
3290.069580078125	-6.608493196856295	-1.253360089669819	5.891449083749968	19.87080041334248	-4.254622256256442	43.73103868309781	-0.6028806584362141	-0.0397489539748954	0.8627450980392157
3293.975830078125	-6.528913687868534	-1.376217271701813	5.886102019738245	19.50212576642445	-4.265682495663983	42.97621109957166	-0.6028806584362141	-0.0397489539748954	0.8627450980392157
3297.882080078125	-6.348522016237999	-1.518868290466542	6.123197627940557	18.77234794346801	-5.033844487069094	42.59117098909158	-0.6028806584362141	-0.0397489539748954	0.8627450980392157
3301.788330078125	-6.629676340659348	-1.351472449773039	6.138856886832028	18.74969270495951	-5.034524144224349	41.45908872082191	-0.6090534979423868	-0.03556485355648535	0.8823529411764707
3305.694580078125	-6.650383583640495	-1.401994727685761	6.095719660102541	18.00483111437423	-6.549407305374744	41.06658139864437	-0.6090534979423868	-0.03556485355648535	0.8823529411764707
3309.600830078125	-6.578360894710116	-1.270432905355017	6.264634139724543	18.71198328588738	-6.901327068587558	41.44042069157828	-0.6090534979423868	-0.03556485355648535	0.8823529411764707
3313.507080078125	-6.536797879191941	-1.154535393941455	5.816299190904949	16.91393039066926	-7.32840298380231	40.30407446072802	-0.6090534979423868	-0.03556485355648535	0.8823529411764707
3317.413330078125	-6.628901359915396	-1.273974375377898	5.809406207025892	16.92149199919383	-7.701310463904782	41.05506236705907	-0.6008230452674898	-0.02928870292887029	0.8823529411764707
3321.319580078125	-6.650285574341716	-1.392193797807888	6.065907656386392	16.51506848378337	-8.086637497725304	38.78705815332464	-0.6008230452674898	-0.02928870292887029	0.8823529411764707
3325.225830078125	-6.568502371739147	-1.294681618359045	5.879681905465667	16.54527546846137	-8.085731288184965	40.29650117768419	-0.6008230452674898	-0.02928870292887029	0.8823529411764707
3329.132080078125	-6.738529307422545	-1.125658014981702	6.280372210217094	15.47702998326489	-8.864047309457277	40.66607650803751	-0.5905349794238683	-0.01464435146443514	0.8714596949891068
3333.038330078125	-6.659167035540325	-1.270238907567744	6.122421636791463	15.80793603698036	-8.480985799487605	39.16047316087305	-0.5905349794238683	-0.01464435146443514	0.8714596949891068
3336.944580078125	-6.606257170276941	-1.029757431734427	6.033964708225661	14.73967082707374	-8.513033755784804	38.78279419074404	-0.5905349794238683	-0.01464435146443514	0.8714596949891068
3340.850830078125	-6.757831076851103	-1.035632937635441	6.153367315076991	14.02497677174617	-8.53447457744463	38.4052212919614	-0.5905349794238683	-0.01464435146443514	0.8714596949891068
3344.757080078125	-6.605763082162479	-0.9803486202882423	5.925328978568005	14.04759256083438	-7.041258790339148	38.04279495926642	-0.5946502057613169	0.01673640167364017	0.8692810457516341
3348.663330078125	-6.769633619315375	-1.205786173961595	6.286155769250182	14.04759256083438	-7.041258790339148	38.04279495926642	-0.5946502057613169	0.01673640167364017	0.8692810457516341
3352.569580078125	-6.565630800325445	-1.007524476988786	6.318310902490742	14.03248906849538	-7.041711895109318	37.28807344708665	-0.5946502057613169	0.01673640167364017	0.8692810457516341
3356.475830078125	-6.566637163846925	-1.108160829136843	6.353673061652164	12.59556893638087	-7.831088155789172	36.90282119391381	-0.5946502057613169	0.01673640167364017	0.8692810457516341
3360.382080078125	-6.595446845662162	-0.9588259803574617	6.078023424444698	13.3177950131678	-7.063152716769146	36.91050054830401	-0.5946502057613169	0.01673640167364017	0.8692810457516341
3364.288330078125	-6.424142757879213	-1.000134373779841	6.330196298176661	12.94910064153962	-6.327944891201573	35.40841866429553	-0.5946502057613169	0.01673640167364017	0.8692810457516341
3368.194580078125	-6.27024491947834	-0.7618656852076113	6.222436589777161	11.85820978018972	-7.480074602116696	35.01953887662035	-0.5946502057613169	0.01673640167364017	0.8692810457516341
3372.100830078125	-6.495656202617998	-1.080771776951327	6.204237172358578	11.8883871778025	-6.359766295113686	35.40810045025641	-0.5802469135802469	0.01882845188284519	0.8758169934640524
3376.007080078125	-6.342049360898034	-0.8716027564701018	6.216231691799839	11.19630891156313	-4.887991329668031	34.66810121877879	-0.5802469135802469	0.01882845188284519	0.8758169934640524
3379.913330078125	-6.382962685909874	-0.9225312172499277	6.092064014298608	11.90345122072121	-4.866777060393289	34.66831336147154	-0.5802469135802469	0.01882845188284519	0.8758169934640524
3383.819580078125	-6.422623108545572	-0.8481694404157069	6.378213781742245	11.49701784295568	-4.878970061726256	32.02668199749595	-0.5802469135802469	0.01882845188284519	0.8758169934640524
3387.725830078125	-6.471710611156586	-0.706414651011975	6.31410357547925	11.903421633656	-3.747374962930619	33.54743191074805	-0.5802469135802469	0.01882845188284519	0.8758169934640524
3391.632080078125	-6.269542687904615	-0.6916425278352221	6.175449719456466	11.90341177130092	-3.374240930443062	33.17380476050689	-0.5802469135802469	0.01882845188284519	0.8758169934640524
3395.538330078125	-6.307813803469997	-0.4783500439692955	6.216034662797139	11.51209174822946	-3.759114859493415	31.66052205895224	-0.5802469135802469	0.01882845188284519	0.8758169934640524
3399.444580078125	-6.552912830802477	-0.7458285347930133	6.250714798487679	11.51209174822946	-3.759114859493415	31.66052205895224	-0.5905349794238683	0.006276150627615062	0.8736383442265796
3403.350830078125	-6.39173502335314	-0.789663951475657	6.22993278552602	11.51209174822946	-3.759114859493415	31.66052205895224	-0.5905349794238683	0.006276150627615062	0.8736383442265796
3407.257080078125	-6.552715801799777	-0.7261256345230622	6.201196863286153	11.83546578048557	-4.12254796688394	30.52481225618022	-0.5905349794238683	0.006276150627615062	0.8736383442265796
3411.163330078125	-6.431926919093558	-0.768449485113201	6.250793610088759	11.88073680808228	-2.628652522623203	31.2944681917549	-0.5905349794238683	0.006276150627615062	0.8736383442265796
3415.069580078125	-6.459986880293394	-0.544142574793801	6.403142497406872	11.47429356796167	-2.267711491468612	28.27920967753815	-0.5905349794238683	0.006276150627615062	0.8736383442265796
3418.975830078125	-6.710729020344216	-0.3658313273507448	6.561065789893668	11.49694880647017	-2.267031834313357	29.41129194580781	-0.5905349794238683	0.006276150627615062	0.8736383442265796
3422.882080078125	-6.319129330655801	-0.5998017524486993	6.16944488169727	11.8580421201535	-1.136796049828231	28.66787732252059	-0.5905349794238683	0.006276150627615062	0.8736383442265796
3426.788330078125	-6.500900205305232	-0.5950710355736271	6.278974819905641	11.49690935704989	-0.7744957043631303	27.91678334484316	-0.5884773662551441	0.05230125523012552	0.8910675381263617
3430.694580078125	-6.500196963326366	-0.5247468376870328	6.242094021815719	11.14333820247085	-0.7851028390005015	27.91667727349679	-0.5884773662551441	0.05230125523012552	0.8910675381263617
3434.600830078125	-6.530617230938028	-0.5364705685502248	6.018981410374221	11.8731061630722	0.3561931848921662	27.92809023373572	-0.5884773662551441	0.05230125523012552	0.8910675381263617
3438.507080078125	-6.530465670166722	-0.5213144914194932	6.524791234888975	11.15086036157513	0.3345258108472539	27.17315657886319	-0.5884773662551441	0.05230125523012552	0.8910675381263617
3442.413330078125	-6.681861745435882	-0.5094068668204484	6.402660534154115	11.1735254624387	-0.03792856448504799	28.67886599737402	-0.5884773662551441	0.05230125523012552	0.8910675381263617
3446.319580078125	-6.529880645589475	-0.4628120336948695	6.315600995899767	10.75955020085874	-0.4234821506906559	26.0335010275497	-0.5884773662551441	0.05230125523012552	0.8910675381263617
3450.225830078125	-7.093577591097345	-0.2668500188253635	6.602590410016447	10.78974732318166	-0.0494419086627591	27.16931690166809	-0.5884773662551441	0.05230125523012552	0.8910675381263617
3454.132080078125	-6.7321748694842	-0.4902142211472321	6.201096833177091	10.79730893170623	-0.4223493887652309	27.92030480799914	-0.5802469135802469	0.06276150627615062	0.8736383442265796
3458.038330078125	-6.941902644008978	-0.2508704615038622	6.483694016141284	11.1131114930827	-0.03974098356572787	25.65997994865491	-0.5802469135802469	0.06276150627615062	0.8736383442265796
3461.944580078125	-6.964637770110218	-0.5041810514257722	6.359690024273065	10.4059790462797	-0.434089285328027	26.03339495620332	-0.5802469135802469	0.06276150627615062	0.8736383442265796
3465.850830078125	-6.951889488432989	-0.2394538938038532	6.595276087193155	10.02223049408788	-1.565004726968408	25.64472731122088	-0.5802469135802469	0.06276150627615062	0.8736383442265796
3469.757080078125	-6.900193119745206	-0.1203220755305933	6.490638530682585	9.646013963355411	-1.949425551248591	24.88616612184601	-0.5802469135802469	0.06276150627615062	0.8736383442265796
3473.663330078125	-6.720213693412627	-0.304197624090912	6.644860709134057	9.284900924961946	-2.333393270758604	24.88232644465091	-0.5802469135802469	0.06276150627615062	0.8736383442265796
3477.569580078125	-6.770614722708303	-0.29379550315352	6.574169734180899	8.547561493480941	-2.728647782061243	23.74629842783977	-0.5802469135802469	0.06276150627615062	0.8736383442265796
3481.475830078125	-6.366041430995983	-0.240506735961868	6.651586976164675	8.570206869634367	-2.354834092418431	24.50475354586827	-0.5884773662551441	0.06903765690376569	0.8867102396514162
3485.382080078125	-6.809809348573517	-0.1728540492708508	6.468713749505269	7.855532539016935	-3.122542979053373	24.87443494756796	-0.5884773662551441	0.06903765690376569	0.8867102396514162
3489.288330078125	-6.689439784001248	-0.2571097132560134	6.364694560941633	8.171335100393405	-2.73993457385387	22.61411008822373	-0.5884773662551441	0.06903765690376569	0.8867102396514162
3493.194580078125	-6.863136511160567	-0.4550652574707816	6.423766887166371	7.087995985213007	-3.891837732383908	22.60259105663843	-0.5884773662551441	0.06903765690376569	0.8867102396514162
3497.100830078125	-6.668361722332969	-0.1695055666301012	6.076356255960317	7.095537869027433	-3.518477147511267	22.60632466248715	-0.5864197530864198	0.07322175732217573	0.8714596949891068
3501.007080078125	-6.607132181129955	-0.10715750693484	6.373015247286404	7.080444239043507	-3.892064284768993	22.22523030054854	-0.5864197530864198	0.07322175732217573	0.8714596949891068
3504.913330078125	-6.63711494331511	-0.0751306951473202	6.485427871365039	6.704227708311041	-4.276485109049176	21.46666911117366	-0.5864197530864198	0.07322175732217573	0.8714596949891068
3508.819580078125	-6.375149222946411	-0.1411849209036163	6.464542797078892	7.050237254365509	-3.892970494309334	20.71578727618898	-0.5802469135802469	0.0606694560669456	0.8649237472766885
3512.725830078125	-6.646778458093665	-0.03138116290175064	6.800650025960846	7.087976260502862	-3.145569667408795	21.8553367561561	-0.5802469135802469	0.0606694560669456	0.8649237472766885
3516.632080078125	-6.526345237997446	-0.109271274492006	6.32321237783482	6.380833951344784	-3.166783936683538	21.85512461346336	-0.5802469135802469	0.0606694560669456	0.8649237472766885
3520.538330078125	-6.56560452979175	0.005203586481551129	6.581068780490807	6.689094628906826	-3.157536116356676	19.5910661482704	-0.5802469135802469	0.0606694560669456	0.8649237472766885
3524.444580078125	-6.497457754986272	-0.2508260036776121	6.366928566710702	6.335523474327787	-3.168143250994047	19.59096007692402	-0.5679012345679013	0.08158995815899581	0.8779956427015252
3528.350830078125	-6.556136023205612	-0.05804676500555962	6.335576705558071	6.343075220497287	-3.167916698608962	19.96832083301391	-0.5679012345679013	0.08158995815899581	0.8779956427015252
3532.257080078125	-6.577152450160226	-0.1394874402649743	6.230284406515453	6.71173014270518	-2.410588394226307	19.97589411605774	-0.5679012345679013	0.08158995815899581	0.8779956427015252
3536.163330078125	-6.497144529392237	-0.2195034442741004	6.469507927946919	6.350607241956642	-2.421422081248764	19.59842728862148	-0.5843621399176955	0.08786610878661087	0.8692810457516341
3540.069580078125	-6.557241406431014	-0.1685850875456948	6.390644796204871	7.050197804945221	-2.400434364359106	19.22127867522434	-0.5843621399176955	0.08786610878661087	0.8692810457516341
3543.975830078125	-6.383618438847063	0.02199449913211754	6.603930207234803	5.944203451256323	-3.5530171800444	18.07767737536937	-0.5843621399176955	0.08786610878661087	0.8692810457516341
3547.882080078125	-6.425329983921121	-0.1087559678695611	6.576773548231959	6.320410119633716	-2.795462323276661	18.46261141450308	-0.5843621399176955	0.08786610878661087	0.8692810457516341
3551.788330078125	-6.565113472892715	0.0543092763851212	6.442114834140835	6.658877781873756	-2.785308293409459	17.70799597366968	-0.5905349794238683	0.08368200836820083	0.8758169934640524
3555.694580078125	-6.525510643350113	-0.02581180975877782	6.590019959644217	6.29776474348029	-3.169276012919472	17.70415629647458	-0.5905349794238683	0.08368200836820083	0.8758169934640524
3559.600830078125	-6.445823021012154	-0.1378576567708497	6.655921614224065	6.29776474348029	-3.169276012919472	17.70415629647458	-0.5905349794238683	0.08368200836820083	0.8758169934640524
3563.507080078125	-6.52541465486162	-0.01621296090931452	6.539995811466525	6.666419665688183	-2.411947708536817	17.71172957951841	-0.565843621399177	0.08368200836820083	0.8779956427015252
3567.413330078125	-6.585408470575907	0.04501152826798846	6.481851037162187	6.681533020382255	-2.784628636254204	18.84007824193935	-0.565843621399177	0.08368200836820083	0.8779956427015252
3571.319580078125	-6.706663150052611	0.04075570180967904	6.823860042478848	6.282651388786219	-2.796595085202085	16.57580763405364	-0.565843621399177	0.08368200836820083	0.8779956427015252
3575.225830078125	-6.665251695305743	0.1414971360925093	6.879816279245508	6.997345444113797	-2.775154263542258	16.95338053283628	-0.565843621399177	0.08368200836820083	0.8779956427015252
3579.132080078125	-6.595003277804802	0.09563181547948965	6.474185093349463	6.997355306468869	-3.148288296029814	17.32700768307744	-0.5802469135802469	0.09414225941422594	0.8714596949891068
3583.038330078125	-6.636284390288346	0.007924607529088461	6.71181116425135	6.982241951774798	-2.775607368312428	16.1986590206565	-0.5802469135802469	0.09414225941422594	0.8714596949891068
3586.944580078125	-6.605798446342451	0.02621597181559727	6.581717460592003	5.913986604223253	-3.180789357097183	16.19460720076865	-0.5802469135802469	0.09414225941422594	0.8714596949891068
3590.850830078125	-6.485622879557454	-0.07743947089690162	6.557534423922208	6.267557758802292	-3.170182222459812	16.19471327211503	-0.5720164609053499	0.09414225941422594	0.8758169934640524
3594.757080078125	-6.685007136643081	0.1861550225607807	6.255588992892922	6.643764427179685	-2.412627365692072	16.57964731124874	-0.5720164609053499	0.09414225941422594	0.8758169934640524
3598.663330078125	-6.677087581139702	-0.03199043720240605	6.679104349803231	6.27509964261672	-2.79682163758717	16.19844687796375	-0.5720164609053499	0.09414225941422594	0.8758169934640524
3602.569580078125	-6.494097147483818	0.0852347465678078	6.64639147292426	6.26754789644722	-2.797048189972255	15.82108612187386	-0.5720164609053499	0.09414225941422594	0.8758169934640524
3606.475830078125	-6.665593212243754	0.107345442291261	6.494266895547682	5.537760211135716	-3.192076148889809	15.06241886115261	-0.5802469135802469	0.08786610878661087	0.8736383442265796
3610.382080078125	-6.736995512416915	0.03782249568231146	6.469874705013483	6.643744702469541	-1.666359300716959	15.83239301076642	-0.5802469135802469	0.08786610878661087	0.8736383442265796
3614.288330078125	-6.714268469556813	0.2903247614905825	6.513030119035528	6.267528171737076	-2.050780124997142	15.07383182139154	-0.5802469135802469	0.08786610878661087	0.8736383442265796
3618.194580078125	-6.552586469941595	0.2969085613961722	6.484673098723929	5.55284397876457	-2.445354979144525	15.06988607285007	-0.565843621399177	0.09623430962343095	0.8779956427015252
3622.100830078125	-6.736293280843191	0.1080456530547008	6.422887834692789	5.55284397876457	-2.445354979144525	15.06988607285007	-0.565843621399177	0.09623430962343095	0.8779956427015252
3626.007080078125	-6.58368370899843	0.217487686015713	6.561199163372419	5.567927746393425	-1.698633809399242	15.07735328454752	-0.565843621399177	0.09623430962343095	0.8779956427015252
3629.913330078125	-6.604204027028298	0.1856579032308927	6.367483279133687	4.860775574880274	-1.346714046186428	14.70351399161361	-0.565843621399177	0.09623430962343095	0.8779956427015252
3633.819580078125	-6.784960454915113	0.2918332963676613	6.522499636026809	5.605647027820634	-0.2049649175235899	15.46964846403231	-0.5679012345679013	0.104602510460251	0.8779956427015252
3637.725830078125	-6.563792873372058	0.186369228450895	6.519438108446401	4.868307596339631	-0.600219428826229	14.33362044722117	-0.5679012345679013	0.104602510460251	0.8779956427015252
3641.632080078125	-6.634591961675414	0.1771674688222569	6.467764979076885	5.598085419296062	0.1679425625788819	14.71866055770126	-0.5679012345679013	0.104602510460251	0.8779956427015252
3645.538330078125	-6.432612984185008	0.173045015842698	6.459477636101801	5.974282225318383	1.298631451834179	14.72996744659381	-0.5761316872427984	0.1213389121338912	0.9019607843137256
3649.444580078125	-6.550899093354373	0.4656462201183163	6.190096552395605	5.252046286176379	0.9038300453017093	14.34866094196245	-0.5761316872427984	0.1213389121338912	0.9019607843137256
3653.350830078125	-6.613490660688869	0.2670955472748813	6.411866335403321	4.913558899226195	1.639944080409622	14.35602208231353	-0.5761316872427984	0.1213389121338912	0.9019607843137256
3657.257080078125	-6.674798003087819	0.1969673679858446	6.347140792408819	5.6282430921987	2.034518934557006	14.35996783085501	-0.5761316872427984	0.1213389121338912	0.9019607843137256
3661.163330078125	-6.49100631815429	0.3943176795205257	6.247735113723778	5.658420489811481	3.154827241560016	14.74852940449107	-0.5452674897119342	0.104602510460251	0.8845315904139435
3665.069580078125	-6.581458796875639	0.4399788982948515	6.592547993309624	6.01199164439052	3.165434376197387	14.74863547583745	-0.5452674897119342	0.104602510460251	0.8845315904139435
3668.975830078125	-6.469796903817545	0.4950570929930718	6.263085188641782	5.658410627456409	3.527961274047573	14.37490225424991	-0.5452674897119342	0.104602510460251	0.8845315904139435
3672.882080078125	-6.680730091676788	0.6138595191900238	6.610350321507381	5.297287726707871	3.517127587025117	13.99743542681365	-0.5637860082304528	0.1255230125523012	0.8845315904139435
3676.788330078125	-6.519873593062624	0.5378932189902293	6.406140369463331	6.034597571123658	5.031784195790427	14.0125819929013	-0.5637860082304528	0.1255230125523012	0.8845315904139435
3680.694580078125	-6.653474412970022	0.3091243595635418	6.494376019303023	5.665932786560693	4.647589923895328	13.63138155961631	-0.5637860082304528	0.1255230125523012	0.8845315904139435
3684.600830078125	-6.862705068164913	0.598180052195711	6.698655689301875	4.951238731233115	4.626149102235502	13.25380866083368	-0.5637860082304528	0.1255230125523012	0.8845315904139435
3688.507080078125	-6.56177711511367	0.3879450542896241	6.479032006815871	6.05722322256694	6.151865950408352	14.02378281044748	-0.5761316872427984	0.1213389121338912	0.9019607843137256
3692.413330078125	-6.754464406917796	0.3111350657962189	6.49346665467518	5.688558438003975	5.767671678513254	13.64258237716249	-0.5761316872427984	0.1213389121338912	0.9019607843137256
3696.319580078125	-6.966237241450082	0.3459728246889183	6.523393844577522	5.681006691834475	5.76744512612817	13.2652216210726	-0.5761316872427984	0.1213389121338912	0.9019607843137256
3700.225830078125	-6.733362095526108	0.401164184763048	6.447674083232387	4.943677122708544	4.999056582337973	12.50282075450263	-0.5637860082304528	0.1234309623430962	0.9019607843137256
3704.132080078125	-6.836240536684371	0.2143301699468106	6.750434911211306	6.042129592583014	5.778278813150625	13.64268844850887	-0.5637860082304528	0.1234309623430962	0.9019607843137256
3708.038330078125	-6.752204130615032	0.537162696072528	6.878528012689396	4.936125376539044	4.998830029952888	12.12545999841274	-0.5637860082304528	0.1234309623430962	0.9019607843137256
3711.944580078125	-6.763951100796493	0.3725666880276418	6.557049429454024	5.289706393473155	4.636303132102702	12.49919322000027	-0.5637860082304528	0.1234309623430962	0.9019607843137256
3715.850830078125	-6.712743768197461	0.4427948974257414	6.611577963754971	5.658361315681049	5.393631436485356	12.5067665030441	-0.5864197530864198	0.1338912133891213	0.8779956427015252
3719.757080078125	-6.722944818511585	0.4327908761143166	6.600874742085248	6.342868111040772	4.667897983629731	12.12215067794951	-0.5864197530864198	0.1338912133891213	0.8779956427015252
3723.663330078125	-6.774446179006952	0.3331598770825979	6.635782218932748	5.635745526592839	3.900415649379875	12.86919283573908	-0.5864197530864198	0.1338912133891213	0.8779956427015252
3727.569580078125	-6.903108138580016	0.5982770510893477	6.627549437835335	6.350439581920416	3.921856471039702	13.24676573452172	-0.5679012345679013	0.1443514644351464	0.8583877995642702
3731.475830078125	-6.703164117045697	0.390659002501167	6.467652824106118	5.236903344417091	2.395913070481766	12.09943082881803	-0.5679012345679013	0.1443514644351464	0.8583877995642702
3735.382080078125	-6.780728878180211	0.7149909698576848	6.422487714256538	5.620671621319056	2.780560447147034	13.23535277428279	-0.5679012345679013	0.1443514644351464	0.8583877995642702
3739.288330078125	-6.801736211488548	0.634459659226114	6.408150065290866	5.236913206772163	2.022779037994209	12.47305797905919	-0.5679012345679013	0.1443514644351464	0.8583877995642702
3743.194580078125	-6.863228458028494	0.5458410658375848	6.514215324267151	4.875800168378698	1.638811318484197	12.46921830186409	-0.5740740740740741	0.1359832635983264	0.8801742919389979
3747.100830078125	-6.942620031659834	0.6874917835116857	6.379089803000401	4.544874389953084	2.002017873489637	13.22756734854622	-0.5740740740740741	0.1359832635983264	0.8801742919389979
3751.007080078125	-6.994719551999294	0.5280448000706799	6.491808579837078	3.822628588456009	1.980350499444725	12.47263369367369	-0.5740740740740741	0.1359832635983264	0.8801742919389979
3754.913330078125	-6.913928567246217	0.5263351945703335	6.482429999308581	3.469067296232041	1.596609332319797	12.84615477256848	-0.5843621399176955	0.1234309623430962	0.8714596949891068
3758.819580078125	-6.802239393249288	0.5841414831520855	6.425831144871577	3.107944395483503	1.585775645297341	12.46868794513222	-0.5843621399176955	0.1234309623430962	0.8714596949891068
3762.725830078125	-6.780506589048961	0.7372198829827578	6.625621584824306	3.123047887822502	1.586228750067511	13.223409457312	-0.5843621399176955	0.1234309623430962	0.8714596949891068
3766.632080078125	-7.025011498157916	0.5291532145115075	6.542066131602583	2.400811948680497	1.191427343535042	12.84210295268063	-0.5843621399176955	0.1234309623430962	0.8714596949891068
3770.538330078125	-6.814363244548731	0.3818573633087802	6.375191659962377	3.10042223637922	0.4661469954495855	13.21220863976582	-0.5802469135802469	0.1485355648535565	0.8692810457516341
3774.444580078125	-7.024626533798795	0.5676496504235655	6.352075611122586	2.363082804898216	0.07089248414694649	12.07618062295468	-0.5802469135802469	0.1485355648535565	0.8692810457516341
3778.350830078125	-6.700501699496398	0.6569007574310171	6.834526889563457	1.994427882690323	-0.6864358202357083	12.06860733991085	-0.5802469135802469	0.1485355648535565	0.8692810457516341
3782.257080078125	-6.641276802095209	0.5187844369438031	6.272657766957552	2.36310252960836	-0.6753755808281671	12.823434923437	-0.5699588477366255	0.1380753138075314	0.8714596949891068
3786.163330078125	-6.983007945997806	0.6891043901183955	6.459574634995437	2.370644413422788	-0.3020149959555253	12.82716852928573	-0.5699588477366255	0.1380753138075314	0.8714596949891068
3790.069580078125	-6.671542477720138	0.5225199047539573	6.585673196723124	2.37065427577786	-0.6751490284430821	13.20079567952689	-0.5699588477366255	0.1380753138075314	0.8714596949891068
3793.975830078125	-6.773251880129051	0.4525897648727621	6.459947474492854	2.001989491214895	-1.05934330033818	12.8195952462419	-0.5699588477366255	0.1380753138075314	0.8714596949891068
3797.882080078125	-6.58974512944558	0.621446651401668	6.540932457033205	2.017073258843749	-0.3126221305928965	12.82706245793936	-0.5987654320987655	0.1485355648535565	0.8910675381263617
3801.788330078125	-6.731854571054171	0.5519166319567241	6.37441870002871	2.024615142658177	0.06073845427974529	12.83079606378808	-0.5987654320987655	0.1485355648535565	0.8910675381263617
3805.694580078125	-6.731451419402494	0.5922317971244699	6.366337479702604	1.294837319701744	-0.7074235371253655	12.44575595330799	-0.5987654320987655	0.1485355648535565	0.8910675381263617
3809.600830078125	-6.75122100641182	0.635475116393873	6.610726192220223	2.039708772642103	0.434325591537472	13.2118904257267	-0.5987654320987655	0.1485355648535565	0.8910675381263617
3813.507080078125	-6.771134070951316	0.6643706826461837	6.430153658069262	2.047240794101459	1.18082020889767	12.84199688133426	-0.5987654320987655	0.1485355648535565	0.8910675381263617
3817.413330078125	-6.742923559385315	0.4551188089433101	6.773508523035131	1.68611789335292	1.169986521875215	12.464530053898	-0.5987654320987655	0.1485355648535565	0.8910675381263617
3821.319580078125	-6.924554998125144	0.4737931167786555	6.257474408887985	1.678576009538493	0.7966259370025728	12.46079644804927	-0.5987654320987655	0.1485355648535565	0.8910675381263617
3825.225830078125	-6.580644410331147	0.521417552743982	6.657234130503586	2.039689047931959	1.180593656512586	12.46463612524437	-0.5761316872427984	0.1631799163179916	0.8692810457516341
3829.132080078125	-6.831590652220663	0.6793186163176531	6.793932852576505	0.933694694243062	0.02801084082729186	11.32103482538941	-0.5761316872427984	0.1631799163179916	0.8692810457516341
3833.038330078125	-6.830798494589296	0.7585343794542765	6.636285400693488	1.671024263368993	0.7963993846174877	12.08343569195938	-0.5761316872427984	0.1631799163179916	0.8692810457516341
3836.944580078125	-6.487235486164165	0.7714008785331256	6.589859305226632	0.9412464404125613	0.02823739321237684	11.69839558147929	-0.5761316872427984	0.1631799163179916	0.8692810457516341
3840.850830078125	-6.762350619051487	0.5326148625281665	6.403451681380339	0.9412464404125613	0.02823739321237684	11.69839558147929	-0.5761316872427984	0.1631799163179916	0.8692810457516341
3844.757080078125	-6.591169800695869	0.4789795263727918	6.432784753059157	1.317453108789954	0.7857922499801165	12.08332962061301	-0.5761316872427984	0.1631799163179916	0.8692810457516341
3848.663330078125	-6.598657913203593	0.740269285701461	6.284158198284351	0.5876654234784504	0.3907642910625625	11.32466235989176	-0.5761316872427984	0.1631799163179916	0.8692810457516341
3852.569580078125	-6.489665510530791	0.528398441870397	6.527179832644778	0.9487685995168446	1.147866043060132	10.9548748868457	-0.5781893004115227	0.1317991631799163	0.8779956427015252
3856.475830078125	-6.618843787131443	0.7418839131184548	6.405249192128044	0.2340745441892673	1.126425221400305	10.57730198806306	-0.5781893004115227	0.1317991631799163	0.8779956427015252
3860.382080078125	-6.449454417092677	0.5091037452778339	6.698334380466703	0.602729466397161	1.88375352578296	10.58487527110689	-0.5781893004115227	0.1317991631799163	0.8779956427015252
3864.288330078125	-6.722436584725134	0.4836142547593695	6.633724023658395	1.332507289353593	2.65191551718807	10.96991538158698	-0.5781893004115227	0.1317991631799163	0.8779956427015252
3868.194580078125	-6.650151190457824	0.6414466107833813	6.399914252978026	1.332507289353593	2.65191551718807	10.96991538158698	-0.5781893004115227	0.1317991631799163	0.8779956427015252
3872.100830078125	-6.628430511119202	0.793312524443595	6.478431826161493	1.708713957730986	3.40947037395581	11.35484942072069	-0.5781893004115227	0.1317991631799163	0.8779956427015252
3876.007080078125	-6.589440997497823	0.6518598461773359	6.552557168192475	1.332497426998521	3.025049549675627	10.59628823134581	-0.5781893004115227	0.1317991631799163	0.8779956427015252
3879.913330078125	-6.70950339890691	0.766831826480781	6.698519284607698	1.332507289353593	2.65191551718807	10.96991538158698	-0.5905349794238683	0.1589958158995816	0.8714596949891068
3883.819580078125	-6.861600695344653	0.7086173342216412	6.633481526424303	0.602729466397161	1.88375352578296	10.58487527110689	-0.5905349794238683	0.1589958158995816	0.8714596949891068
3887.725830078125	-6.678431419978627	0.8437266890061182	6.369341414189915	-0.14215184889827	1.115138429607679	9.445113648447022	-0.5905349794238683	0.1589958158995816	0.8714596949891068
3891.632080078125	-6.837978433528694	1.050641495615433	6.539707846001042	0.587635836413234	1.510166388525233	10.20378090916827	-0.5905349794238683	0.1589958158995816	0.8714596949891068
