Time Stamp	Accelerometer X	Accelerometer Y	Accelerometer Z	Gyroscope X	Gyroscope Y	Gyroscope Z	Magnetometer X	Magnetometer Y	Magnetometer Z
854.522705078125	-2.554567914841357	-8.992145019489254	2.747069292099347	45.24303975144804	13.67072402836434	4.665009127076097	-0.271604938271605	-0.8974895397489538	0.579520697167756
858.428955078125	-2.56407784803832	-8.933037329084542	2.578212405570441	21.95414315225184	8.121310861731734	29.51517537276826	-0.2654320987654321	-0.8786610878661087	0.579520697167756
862.335205078125	-2.433396088586301	-8.996174515195744	2.586463373960411	44.52121803121906	-2.395706742645518	19.97604293257355	-0.2654320987654321	-0.8786610878661087	0.579520697167756
866.241455078125	-2.602456066548759	-8.730455139724333	2.557654702550316	55.89464665526759	-5.785847167506152	8.998745301909844	-0.2654320987654321	-0.8786610878661087	0.579520697167756
870.147705078125	-2.534381030508365	-8.993658606392041	2.636084370486426	61.03214459470968	-8.243662527830351	3.313789789816036	-0.2654320987654321	-0.8786610878661087	0.579520697167756
874.053955078125	-2.341901882163501	-8.93766296382484	2.560000863290154	63.07804419813385	-7.809151211369417	-0.8328084932457697	-0.2448559670781893	-0.8891213389121339	0.5751633986928105
877.960205078125	-2.776992440381121	-9.012375351243353	2.2993890858118	0.6090485077951615	-2.966803171631817	-1.916460484546507	-0.2448559670781893	-0.8891213389121339	0.5751633986928105
881.866455078125	-2.671015086652194	-8.515650079360757	2.688921486579582	-2.181831034475156	-0.4385892593924637	-2.645895326556189	-0.2448559670781893	-0.8891213389121339	0.5751633986928105
885.772705078125	-2.522763392185088	-8.841995784165377	2.674086718284022	-0.04534006408221316	1.11804278315216	-3.385045987262818	-0.2510288065843622	-0.8828451882845187	0.5577342047930284
889.678955078125	-2.252220342565537	-9.060418094937488	2.585062952433531	-0.01514294175928738	1.492083025180057	-2.249230113144426	-0.2510288065843622	-0.8828451882845187	0.5577342047930284
893.585205078125	-2.514795337234891	-9.055291299246731	2.572592532170365	0.7372802573505709	2.63405870622798	-1.105734884635833	-0.2510288065843622	-0.8828451882845187	0.5577342047930284
897.491455078125	-2.34228583611748	-8.976058359222693	2.760097456000923	-0.68453638242494	1.845135550318297	-0.7362656256288925	-0.2510288065843622	-0.8828451882845187	0.5577342047930284
901.397705078125	-2.525190385336289	-9.084695099285492	2.641725462394484	-0.3007582431679031	1.856648894496008	0.7732834700770356	-0.2613168724279836	-0.8974895397489538	0.5533769063180829
905.303955078125	-2.50269169403829	-8.855027989687523	2.42111057246413	-1.752762142911268	0.320551464070871	0.3805640052067465	-0.2613168724279836	-0.8974895397489538	0.5533769063180829
909.210205078125	-2.714351363194666	-8.808873693203877	2.5728168421119	-2.076146037522452	1.057118603948953	1.142646657737603	-0.2613168724279836	-0.8974895397489538	0.5533769063180829
913.116455078125	-2.553803038148827	-8.915657350236161	2.316557889985492	-2.083678058981808	0.3106239865887547	1.512540202130039	-0.2613168724279836	-0.8974895397489538	0.5533769063180829
917.05322265625	-2.53529544716192	-9.085100271747454	2.580998092547069	-2.106323435135234	-0.06318970305405704	0.754085084101535	-0.2613168724279836	-0.8974895397489538	0.5533769063180829
920.928955078125	-2.566023888341906	-9.127641359443135	2.305836481023213	-2.106323435135234	-0.06318970305405704	0.754085084101535	-0.2613168724279836	-0.8974895397489538	0.5533769063180829
924.835205078125	-2.564994285502158	-9.024681075468365	2.50291398316954	-1.745200534386696	-0.05235601603160088	1.131551911537797	-0.2613168724279836	-0.8974895397489538	0.5533769063180829
928.741455078125	-2.545113553927207	-9.056809938175231	2.360092205935805	-2.459914314424417	0.6724712272836855	0.006724712272836854	-0.2695473251028807	-0.903765690376569	0.5751633986928105
932.647705078125	-2.414505554050558	-9.127323081823389	2.640700911580447	-1.782939540524049	-0.7997568429321394	-0.007997568429321394	-0.2695473251028807	-0.903765690376569	0.5751633986928105
936.553955078125	-2.47299285569805	-8.915447185966615	2.499194681841659	-1.391649104517801	0.7045191835808838	0.3844036824018466	-0.2695473251028807	-0.903765690376569	0.5751633986928105
940.460205078125	-2.401502650277532	-8.83713371462184	2.392714146351992	-1.74522025909684	0.6939120489435127	0.3842976110554729	-0.2695473251028807	-0.903765690376569	0.5751633986928105
944.366455078125	-2.431863303985813	-8.842896055146944	2.765859796526028	-1.030516341414191	0.3422188381157832	1.135497660079271	-0.2695473251028807	-0.903765690376569	0.5751633986928105
948.272705078125	-2.554488092835136	-8.984162818867066	2.535347988229306	-1.75277200526634	0.6936854965584277	0.006936854965584278	-0.2695473251028807	-0.903765690376569	0.5751633986928105
952.178955078125	-2.452490724960739	-8.885436132437482	2.511001265926499	-1.391649104517801	0.7045191835808838	0.3844036824018466	-0.2695473251028807	-0.903765690376569	0.5751633986928105
956.085205078125	-2.615903548584286	-9.065102333176025	2.399373726643235	-1.376555474533874	1.078106320838611	0.7654980443404616	-0.2613168724279836	-0.903765690376569	0.5533769063180829
959.991455078125	-2.715864950097455	-8.960232383482783	2.585435791930947	-1.368993866009303	0.7051988407361388	1.516485950671512	-0.2613168724279836	-0.903765690376569	0.5533769063180829
963.897705078125	-2.451495475895821	-8.785911225945679	2.364472312226586	-2.166688092715869	-1.930672284572521	-0.396665213411763	-0.2613168724279836	-0.903765690376569	0.5533769063180829
967.803955078125	-2.542684539965722	-8.813908542026708	2.412665606286887	-1.384097358348302	0.7047457359659689	0.7617644384917353	-0.2613168724279836	-0.903765690376569	0.5533769063180829
971.710205078125	-2.594589052112767	-8.953854706226172	2.455654303460494	-1.030536066124335	1.088486903090897	0.3882433595969467	-0.2613168724279836	-0.903765690376569	0.5533769063180829
975.616455078125	-2.725672952811322	-8.93093164476851	2.465590627627401	-1.022994182309908	1.461847487963539	0.3919769654456732	-0.2613168724279836	-0.903765690376569	0.5533769063180829
979.522705078125	-2.353505374814789	-9.087911218852634	2.663483526723363	-1.74522025909684	0.6939120489435127	0.3842976110554729	-0.2613168724279836	-0.903765690376569	0.5533769063180829
983.428955078125	-2.696057978097872	-8.999737203726607	2.714971751951883	-2.113894906014878	0.6828518095359716	-0.370529972470678	-0.2489711934156379	-0.899581589958159	0.5708061002178649
987.335205078125	-2.594373835817511	-8.932333076700534	2.588045668412859	-1.376565336888947	1.451240353326168	0.3918708940992994	-0.2489711934156379	-0.899581589958159	0.5708061002178649
991.241455078125	-2.44380629276483	-9.027093922947577	2.504005220722953	-1.391658966872873	1.077653216068441	0.01077653216068441	-0.2489711934156379	-0.899581589958159	0.5708061002178649
995.147705078125	-2.329880081783405	-8.745583935916228	2.600028062992416	-1.391649104517801	0.7045191835808838	0.3844036824018466	-0.2489711934156379	-0.899581589958159	0.5708061002178649
999.053955078125	-2.57277743631136	-8.79289514628752	2.43361736731241	-1.022994182309908	1.461847487963539	0.3919769654456732	-0.2489711934156379	-0.899581589958159	0.5708061002178649
1002.960205078125	-2.362520209492148	-8.979293676487535	2.396096982767571	-1.767865635250266	0.320098359300701	-0.3741575069730307	-0.2489711934156379	-0.899581589958159	0.5708061002178649
1006.866455078125	-2.623457337426243	-8.810380207270674	2.603953486969275	-1.391658966872873	1.077653216068441	0.01077653216068441	-0.2489711934156379	-0.899581589958159	0.5708061002178649
1010.772705078125	-2.535982522658513	-9.153807821406771	2.77957604632934	-1.399210713042373	1.077426663683356	-0.3665842239292042	-0.2551440329218107	-0.899581589958159	0.5511982570806101
1014.678955078125	-2.585686372406176	-9.073687745668014	2.611367839901629	-1.745230121451912	1.06704608143107	0.01067046081431069	-0.2551440329218107	-0.899581589958159	0.5511982570806101
1018.585205078125	-2.423820479055105	-9.048714572177136	2.402113945388471	-1.030536066124335	1.088486903090897	0.3882433595969467	-0.2551440329218107	-0.899581589958159	0.5511982570806101
1022.491455078125	-2.737179446568973	-9.071480010432637	2.529155215113689	-1.745210396741768	0.3207780164559559	0.7579247612966351	-0.2551440329218107	-0.899581589958159	0.5511982570806101
1026.397705078125	-2.442102749695335	-8.856739615998153	2.371125830086978	-1.030526203769263	0.7153528706033401	0.7618705098381089	-0.2551440329218107	-0.899581589958159	0.5511982570806101
1030.303955078125	-2.432672638504594	-8.923829507025051	2.751704020485924	-1.391649104517801	0.7045191835808838	0.3844036824018466	-0.2551440329218107	-0.899581589958159	0.5511982570806101
1034.210205078125	-2.62337246339431	-8.801892804077463	2.442762544253093	-1.760313889080767	0.320324911685786	0.003203249116857859	-0.2551440329218107	-0.899581589958159	0.5511982570806101
1038.116455078125	-2.392301901054036	-8.927159802373245	2.499415960567767	-1.391649104517801	0.7045191835808838	0.3844036824018466	-0.2510288065843622	-0.8891213389121339	0.5642701525054467
1042.022705078125	-2.525828961386064	-9.148552704262976	2.315293873152789	-1.767865635250266	0.320098359300701	-0.3741575069730307	-0.2510288065843622	-0.8891213389121339	0.5642701525054467
1045.928955078125	-2.403818498863108	-9.068718573179417	2.461919825746338	-1.038077949938762	0.715126318218255	0.3845097537482203	-0.2510288065843622	-0.8891213389121339	0.5642701525054467
1049.835205078125	-2.483089834282544	-8.915044034314937	2.519315889840418	-1.782949402879121	-0.4266228104445826	-0.3816247186704836	-0.2510288065843622	-0.8891213389121339	0.5642701525054467
1053.741455078125	-2.495518827934886	-9.147842389448115	2.446945621541175	-2.128978673643732	-0.06386936020931198	-0.3779971841681309	-0.2366255144032922	-0.8870292887029287	0.5620915032679739
1057.647705078125	-2.798292791180651	-9.12220841099434	2.384593520225346	-2.083707646047024	1.430026084051425	0.391658751406552	-0.2366255144032922	-0.8870292887029287	0.5620915032679739
1061.553955078125	-2.807389468674516	-9.021775150279833	2.308716135678051	-2.121436789829305	0.3094912246633298	-0.3742635783194045	-0.2366255144032922	-0.8870292887029287	0.5620915032679739
1065.460205078125	-2.883007179100304	-8.502738112050517	2.546033022606472	-1.384107220703374	1.077879768453526	0.388137288250573	-0.2489711934156379	-0.8933054393305438	0.5686274509803922
1069.366455078125	-2.635202286797417	-8.974774134287149	2.302687048195446	-1.737678375282413	1.067272633816155	0.3880312169041993	-0.2489711934156379	-0.8933054393305438	0.5686274509803922
1073.272705078125	-2.664484838219133	-8.872726246155651	2.347900657491845	-1.752781867621412	1.066819529045985	-0.3666902952755779	-0.2489711934156379	-0.8933054393305438	0.5686274509803922
1077.178955078125	-2.818666600464922	-9.139387319219452	2.64615709934751	-2.113894906014878	0.6828518095359716	-0.370529972470678	-0.2489711934156379	-0.8933054393305438	0.5686274509803922
1081.085205078125	-2.515701670647309	-9.145924640488506	2.598354832077183	-1.436979306244942	1.449427934245488	-2.62701515461981	-0.2613168724279836	-0.8912133891213389	0.5686274509803922
1084.991455078125	-2.52544197621666	-9.109854187322506	2.145515497134335	-1.745230121451912	1.06704608143107	0.01067046081431069	-0.2613168724279836	-0.8912133891213389	0.5686274509803922
1088.897705078125	-2.089343033667276	-8.934303366727528	2.39097725991281	-1.038077949938762	0.715126318218255	0.3845097537482203	-0.2613168724279836	-0.8912133891213389	0.5686274509803922
1092.803955078125	-2.672010335717112	-8.615174985852562	2.835450440279494	-1.376565336888947	1.451240353326168	0.3918708940992994	-0.2469135802469136	-0.8765690376569036	0.5773420479302833
1096.710205078125	-2.581575033883179	-8.66255389336837	2.318834332770528	-1.361481569260092	2.197961523071451	0.3993381057967523	-0.2469135802469136	-0.8765690376569036	0.5773420479302833
1100.616455078125	-2.514088053635458	-8.984562939303316	2.576136023003531	-1.000358668511553	2.208795210093907	0.7768049332330146	-0.2469135802469136	-0.8765690376569036	0.5773420479302833
1104.522705078125	-2.747667451943439	-9.110179537778247	2.678630510207816	-2.091269254571595	1.802933564153897	-0.3593291549244988	-0.2469135802469136	-0.8765690376569036	0.5773420479302833
1108.428955078125	-2.573283649287527	-8.843516443904162	2.420980230200806	-1.730146353823058	1.813767251176353	0.01813767251176353	-0.271604938271605	-0.8891213389121339	0.5664488017429194
1112.335205078125	-2.84550902346859	-8.793326589283174	2.855110903533479	-1.02300404466498	1.834981520451096	0.01834981520451096	-0.271604938271605	-0.8891213389121339	0.5664488017429194
1116.241455078125	-2.370773198692403	-8.794491586411956	2.67798183010662	-1.730136491467986	1.440633218688796	0.3917648227529257	-0.271604938271605	-0.8891213389121339	0.5664488017429194
1120.147705078125	-2.35140474252447	-8.877847989820697	2.46188648237665	-1.000358668511553	2.208795210093907	0.7768049332330146	-0.2592592592592593	-0.8849372384937237	0.5620915032679739
1124.053955078125	-2.496003822403069	-9.196341836266456	2.646536001275778	-1.000358668511553	2.208795210093907	0.7768049332330146	-0.2592592592592593	-0.8849372384937237	0.5620915032679739
1127.960205078125	-2.553679768721496	-8.903330407503166	2.539397692038637	-2.098811138386023	1.429572979281255	-0.3630627607732252	-0.2592592592592593	-0.8849372384937237	0.5620915032679739
1131.866455078125	-2.39268383419773	-8.965353116742687	2.719724697740081	-2.467475922948989	1.045378707386157	-0.744263194058214	-0.2592592592592593	-0.8849372384937237	0.5620915032679739
1135.772705078125	-2.536114885732121	-9.167044128767609	2.465781594199248	-1.384117083058446	1.451013800941082	0.01451013800941083	-0.2613168724279836	-0.8849372384937237	0.5816993464052288
1139.678955078125	-2.453709273562049	-9.007290992568564	2.444290276827871	-1.737688237637485	1.440406666303711	0.01440406666303711	-0.2613168724279836	-0.8849372384937237	0.5816993464052288
1143.585205078125	-2.524719536540095	-9.03761021966602	2.300650071429077	-1.36147170690502	1.824827490583894	0.7729652560379144	-0.2613168724279836	-0.8849372384937237	0.5816993464052288
1147.491455078125	-2.736498433503232	-9.003378703858552	2.269940827946788	-1.007900552325981	1.835434625221265	0.7730713273842882	-0.271604938271605	-0.8828451882845187	0.5773420479302833
1151.397705078125	-2.515088354726086	-9.084593048366145	2.672134615549584	-1.737678375282413	1.067272633816155	0.3880312169041993	-0.271604938271605	-0.8828451882845187	0.5773420479302833
1155.303955078125	-2.421885553208081	-8.855221987474797	2.56332307539721	-1.015442436140408	1.462074040348624	0.7693377215355618	-0.271604938271605	-0.8828451882845187	0.5773420479302833
1159.210205078125	-2.595900557987146	-9.085005293664102	2.469285679231874	-1.384107220703374	1.077879768453526	0.388137288250573	-0.271604938271605	-0.8828451882845187	0.5773420479302833
1163.116455078125	-2.646186401096629	-9.063084554107354	2.540585928485687	-2.475007944408344	0.2988840900259586	-0.3743696496657782	-0.2592592592592593	-0.8870292887029287	0.5599128540305012
1167.022705078125	-2.343442750005126	-9.091749747987276	2.299755862878363	-1.730136491467986	1.440633218688796	0.3917648227529257	-0.2592592592592593	-0.8870292887029287	0.5599128540305012
1170.928955078125	-2.475111675280926	-9.127329144254242	2.518882426034479	-2.459924176779489	1.045605259771242	-0.3669024379683253	-0.2592592592592593	-0.8870292887029287	0.5599128540305012
1174.835205078125	-2.434513596673407	-9.107925323906336	2.520258597837949	-1.384117083058446	1.451013800941082	0.01451013800941083	-0.2777777777777778	-0.8807531380753137	0.5490196078431373
1178.741455078125	-2.746795472305851	-9.02298157401944	2.309261754454758	-2.076165762232597	1.803386668924067	0.3953923572552784	-0.2777777777777778	-0.8807531380753137	0.5490196078431373
1182.647705078125	-2.484414475423769	-9.047508148437529	2.401568326611765	-2.091259392216524	1.42979953166634	0.0142979953166634	-0.2777777777777778	-0.8807531380753137	0.5490196078431373
1186.553955078125	-2.391981602624006	-8.895129959370298	2.672737827419387	-1.715042861484059	1.814220355946523	0.7728591846915408	-0.2777777777777778	-0.8807531380753137	0.5490196078431373
1190.460205078125	-2.606427969162152	-9.127645401063702	2.224624157325901	-1.722594607653558	1.813993803561438	0.3954984286016521	-0.2510288065843622	-0.8807531380753137	0.5599128540305012
1194.366455078125	-2.677094694391901	-9.123610853331503	2.486745480086476	-1.707500977669631	2.187580940819165	0.7765927905402672	-0.2510288065843622	-0.8807531380753137	0.5599128540305012
1198.272705078125	-2.363633675958686	-9.090640323141308	2.370316495568197	-2.076165762232597	1.803386668924067	0.3953923572552784	-0.2510288065843622	-0.8807531380753137	0.5599128540305012
1202.178955078125	-2.563863642148206	-8.911616740073109	2.700497698292035	-2.437288662981135	1.792552981901611	0.01792552981901611	-0.2736625514403292	-0.8786610878661087	0.5468409586056645
1206.085205078125	-2.564386021606645	-8.963854685917029	2.526163405488083	-1.715042861484059	1.814220355946523	0.7728591846915408	-0.2736625514403292	-0.8786610878661087	0.5468409586056645
1209.991455078125	-2.514319436412987	-9.007701217056235	2.282047502358816	-2.076175624587669	2.176520701411624	0.02176520701411624	-0.2736625514403292	-0.8786610878661087	0.5468409586056645
1213.897705078125	-2.734650402498425	-8.81857560337783	2.572128756210165	-2.798401701374602	1.408585262391598	0.01408585262391598	-0.2736625514403292	-0.8786610878661087	0.5468409586056645
1217.803955078125	-2.694841450306845	-8.878084424623935	2.761470596588968	-1.715042861484059	1.814220355946523	0.7728591846915408	-0.2839506172839507	-0.8786610878661087	0.5729847494553377
1221.710205078125	-2.635382138912702	-8.992759345815619	2.524008211320093	-2.452382292965062	1.418965844643884	-0.3631688321195989	-0.2839506172839507	-0.8786610878661087	0.5729847494553377
1225.616455078125	-2.544679079716127	-9.013362517067135	2.665299224763624	-2.083707646047024	1.430026084051425	0.391658751406552	-0.2839506172839507	-0.8786610878661087	0.5729847494553377
1229.522705078125	-2.472473507455037	-8.863512361665308	2.643210757953296	-2.44482068444049	1.046058364541412	0.3878190742114519	-0.271604938271605	-0.8807531380753137	0.5555555555555556
1233.428955078125	-2.446454564642139	-9.29192111067856	2.278616166496419	-2.45237243060999	1.045831812156327	0.01045831812156327	-0.271604938271605	-0.8807531380753137	0.5555555555555556
1237.335205078125	-2.53387077591163	-8.942633146718578	2.689145796521117	-2.091249529861452	1.056665499178783	0.3879251455578256	-0.271604938271605	-0.8807531380753137	0.5555555555555556
1241.241455078125	-2.52371115220833	-8.936771786489553	2.285500056729197	-2.467456198238845	0.2991106424110436	0.002991106424110436	-0.271604938271605	-0.8807531380753137	0.5555555555555556
1245.147705078125	-2.244064352258919	-9.254920074376733	2.343096181041403	-2.813485469003456	0.6618640926463142	0.006618640926463143	-0.2530864197530864	-0.8786610878661087	0.5620915032679739
1249.053955078125	-2.392596939355514	-8.956663632521067	2.578745899485443	-1.737668512927341	0.6941386013285977	0.7616583671453615	-0.2530864197530864	-0.8786610878661087	0.5620915032679739
1252.960205078125	-2.634999195363865	-8.954464990931969	2.313805546378551	-2.459914314424417	0.6724712272836855	0.006724712272836854	-0.2530864197530864	-0.8786610878661087	0.5620915032679739
1256.866455078125	-2.694268550591304	-8.82079445306977	2.431007490830498	-1.406742734501728	0.3309320463231571	0.003309320463231571	-0.2551440329218107	-0.8870292887029287	0.5599128540305012
1260.772705078125	-2.685810449147214	-8.985085318761756	2.180453286136097	-2.098791413675879	0.6833049143061415	0.3841915397090992	-0.2551440329218107	-0.8870292887029287	0.5599128540305012
1264.678955078125	-2.627517145286995	-9.216360993345868	2.401795667768726	-2.459914314424417	0.6724712272836855	0.006724712272836854	-0.2551440329218107	-0.8870292887029287	0.5599128540305012
1268.585205078125	-2.58378984195455	-8.884034700505461	2.388546225141041	-2.098811138386023	1.429572979281255	-0.3630627607732252	-0.2551440329218107	-0.8870292887029287	0.5599128540305012
1272.491455078125	-2.535693546787887	-9.124910234344176	2.639609674027034	-1.730146353823058	1.813767251176353	0.01813767251176353	-0.2674897119341564	-0.8974895397489538	0.5642701525054467
1276.397705078125	-2.473495027053648	-8.965664321526438	2.526981833653142	-2.061081994603742	2.550107838669351	0.4028595689527313	-0.2674897119341564	-0.8974895397489538	0.5642701525054467
1280.303955078125	-2.555207501296274	-9.05610366498094	2.41053163062688	-2.8135051937136	1.408132157621428	-0.7406356595558613	-0.2674897119341564	-0.8974895397489538	0.5642701525054467
1284.210205078125	-2.526233123442883	-9.188968909944926	2.313269021248123	-1.361491431615164	2.571095555559008	0.02571095555559008	-0.2613168724279836	-0.8870292887029287	0.5729847494553377
1288.116455078125	-2.724972742047882	-8.860910568424533	2.398391612845164	-1.353939685445664	2.571322107944093	0.4030717116454787	-0.2613168724279836	-0.8870292887029287	0.5729847494553377
1292.022705078125	-2.515205561722563	-9.096313748013911	2.509931246881069	-2.076175624587669	2.176520701411624	0.02176520701411624	-0.2613168724279836	-0.8870292887029287	0.5729847494553377
1295.928955078125	-2.608110293723664	-9.295877857214823	2.569731064808083	-2.098821000741095	1.802707011768812	-0.7366899110143874	-0.2613168724279836	-0.8870292887029287	0.5729847494553377
1299.835205078125	-2.35199683993771	-8.937057731144755	2.600334215750456	-1.699968956210276	2.934075558179363	0.4066992461478314	-0.257201646090535	-0.901673640167364	0.5599128540305012
1303.741455078125	-2.506615097204865	-9.247368306345059	2.573171494316759	-2.068633740773242	2.549881286284266	0.02549881286284265	-0.257201646090535	-0.901673640167364	0.5599128540305012
1307.647705078125	-2.635859050139749	-9.040450468520319	2.80444716890087	-2.798421426084746	2.154853327366711	-0.7331684478584084	-0.257201646090535	-0.901673640167364	0.5599128540305012
1311.553955078125	-2.796667049307095	-8.959634223638691	2.483647577920955	-2.068623878418169	2.176747253796709	0.3991259631040048	-0.2654320987654321	-0.899581589958159	0.5555555555555556
1315.460205078125	-2.463570827748446	-8.983345401107149	2.798924294394431	-2.821047077528028	1.034771572748786	-0.7443692654045877	-0.2654320987654321	-0.899581589958159	0.5555555555555556
1319.366455078125	-2.553246304915558	-8.859984026909276	2.834498638635684	-1.737688237637485	1.440406666303711	0.01440406666303711	-0.2654320987654321	-0.899581589958159	0.5555555555555556
1323.272705078125	-2.615360961023006	-9.010843577048007	2.775829464062623	-2.475007944408344	0.2988840900259586	-0.3743696496657782	-0.2654320987654321	-0.899581589958159	0.5555555555555556
1327.178955078125	-2.400161842654033	-8.703052952271969	2.672158865272993	-2.83612098280181	-0.08508362948405432	-0.3782093268608783	-0.2530864197530864	-0.907949790794979	0.5686274509803922
1331.085205078125	-2.596086472533283	-9.103596748277798	2.629970408971889	-1.760323751435839	0.6934589441733428	-0.3704239011243043	-0.2530864197530864	-0.907949790794979	0.5686274509803922
1334.991455078125	-2.374114608497158	-9.128632566887486	2.590534296277725	-2.843662866616238	-0.4584442143566961	-0.3819429327096047	-0.2530864197530864	-0.907949790794979	0.5686274509803922
1338.897705078125	-2.514699348746397	-9.045692450397269	2.522568383992673	-2.121417065119161	-0.4367768403117838	0.37299072216292	-0.257201646090535	-0.8891213389121339	0.5403050108932462
1342.803955078125	-2.372701051703432	-8.987276887514861	2.587515205713284	-3.219859672638559	-1.589133103611993	-0.3932498216021577	-0.257201646090535	-0.8891213389121339	0.5403050108932462
1346.710205078125	-2.431580390546039	-8.814604711169579	2.565256990839091	-3.234953302622486	-1.962720240869719	-0.7743441835407727	-0.257201646090535	-0.8891213389121339	0.5403050108932462
1350.616455078125	-2.434622720428748	-9.118837699440462	2.438903807015609	-2.497623733496554	-1.194331697079523	-0.01194331697079523	-0.257201646090535	-0.8891213389121339	0.5403050108932462
1354.522705078125	-2.514787253993755	-9.054482975133093	2.65344111001654	-2.490071987327055	-1.194105144694438	0.3654174391190934	-0.2530864197530864	-0.903765690376569	0.5577342047930284
1358.428955078125	-2.280698611494182	-8.877941957498907	2.593901976616174	-2.86628851805952	-1.578525968974622	-0.393143750255784	-0.2530864197530864	-0.903765690376569	0.5577342047930284
1362.335205078125	-2.606213763272038	-9.106224812052268	2.346909450047495	-2.144062441272587	-0.8105905299545956	-0.3854643958655837	-0.2530864197530864	-0.903765690376569	0.5577342047930284
1366.241455078125	-2.41328397423382	-9.005165100149693	2.73773011737139	-2.505175479666053	-1.194558249464609	-0.3893040730606839	-0.2530864197530864	-0.903765690376569	0.5577342047930284
1370.147705078125	-2.391882582920085	-8.885227988978221	2.65303189593401	-2.851204750430665	-0.8318047992293379	-0.3856765385583312	-0.2530864197530864	-0.903765690376569	0.5577342047930284
1374.053955078125	-2.594177817219953	-8.912731216944788	2.528421660980562	-1.767845910540123	-0.4261697056744126	0.3730967935092936	-0.2530864197530864	-0.903765690376569	0.5577342047930284
1377.960205078125	-2.456119089825836	-9.248272618947194	2.583732248861453	-2.113875181304734	-0.06341625543914202	0.3767243280116463	-0.2530864197530864	-0.903765690376569	0.5577342047930284
1381.866455078125	-2.454223569779353	-9.058720614298846	2.350804561870093	-1.752762142911268	0.320551464070871	0.3805640052067465	-0.2510288065843622	-0.8849372384937237	0.5511982570806101
1385.772705078125	-2.484415485828911	-9.047609188951736	2.391462254380993	-2.098791413675879	0.6833049143061415	0.3841915397090992	-0.2510288065843622	-0.8849372384937237	0.5511982570806101
1389.678955078125	-2.542042932700521	-8.749747815506613	2.769415412220897	-2.459914314424417	0.6724712272836855	0.006724712272836854	-0.2510288065843622	-0.8849372384937237	0.5511982570806101
1393.585205078125	-2.38373265504432	-9.080336211502695	2.350428691157251	-1.737678375282413	1.067272633816155	0.3880312169041993	-0.2510288065843622	-0.8849372384937237	0.5511982570806101
1397.491455078125	-2.430062762022682	-8.662841858833854	2.593062329943132	-1.376565336888947	1.451240353326168	0.3918708940992994	-0.2510288065843622	-0.8849372384937237	0.5511982570806101
1401.397705078125	-2.595895505961436	-9.084500091093078	2.519816040385732	-0.6618811439164415	1.845815207473552	0.3958166426407733	-0.2510288065843622	-0.8849372384937237	0.5511982570806101
1405.303955078125	-2.47390525154132	-9.006686770293618	2.464320548363846	-2.10635302220045	1.056212394408613	-0.3667963666219516	-0.2510288065843622	-0.8849372384937237	0.5511982570806101
1409.210205078125	-2.53509336613351	-9.064892168906479	2.582010518499402	-0.6467875139325145	2.219402344731279	0.7769110045793883	-0.271604938271605	-0.8891213389121339	0.5729847494553377
1413.116455078125	-2.5556935061696	-9.104704152313484	2.600015938130711	-0.6392456301180872	2.592762929603921	0.7806446104281147	-0.271604938271605	-0.8891213389121339	0.5729847494553377
1417.022705078125	-2.676077216413858	-9.02186305552719	2.562550115463543	-1.045629696108262	0.7148997658331701	0.007148997658331701	-0.271604938271605	-0.8891213389121339	0.5729847494553377
1420.928955078125	-2.333935848023589	-9.151160559934603	2.438294532714954	-1.02300404466498	1.834981520451096	0.01834981520451096	-0.271604938271605	-0.8891213389121339	0.5729847494553377
1424.835205078125	-2.777501684572713	-9.06329977040261	2.25643373200788	-0.6467875139325145	2.219402344731279	0.7769110045793883	-0.271604938271605	-0.8891213389121339	0.5729847494553377
1428.741455078125	-2.433386994940022	-8.995265150567899	2.677418024037357	-0.2932163593534757	2.23000947936865	0.7770170759257621	-0.271604938271605	-0.8891213389121339	0.5729847494553377
1432.647705078125	-2.230997792961944	-8.958365154780278	2.731791966351569	-1.730136491467986	1.440633218688796	0.3917648227529257	-0.271604938271605	-0.8891213389121339	0.5729847494553377
1436.553955078125	-2.506623180446001	-9.248176630458698	2.492322916470585	-0.6467875139325145	2.219402344731279	0.7769110045793883	-0.257201646090535	-0.8912133891213389	0.5620915032679739
1440.460205078125	-2.58677356833902	-9.182407338952462	2.84834523070232	-0.6467875139325145	2.219402344731279	0.7769110045793883	-0.257201646090535	-0.8912133891213389	0.5620915032679739
1444.366455078125	-2.524123397506286	-8.977996316285141	2.202626626978357	-0.6467776515774426	1.846268312243722	1.15053815482055	-0.257201646090535	-0.8912133891213389	0.5620915032679739
1448.272705078125	-2.313632767099261	-9.141054487703832	2.479406907539776	-1.022994182309908	1.461847487963539	0.3919769654456732	-0.257201646090535	-0.8912133891213389	0.5620915032679739
1452.178955078125	-2.646693624477938	-9.113806892238202	2.517842719143311	-1.038077949938762	0.715126318218255	0.3845097537482203	-0.257201646090535	-0.8912133891213389	0.5620915032679739
1456.085205078125	-2.675168862191156	-8.931027633257006	2.556999960018269	-0.6543195353918699	1.47290772737108	1.146804548971824	-0.257201646090535	-0.8912133891213389	0.5620915032679739
1459.991455078125	-2.615692373909598	-9.043984865707207	2.491340802672514	-1.038077949938762	0.715126318218255	0.3845097537482203	-0.257201646090535	-0.8912133891213389	0.5620915032679739
1463.897705078125	-2.827362147117394	-8.99884097436561	2.541986350012567	-0.6694033030207246	0.7261865576257962	1.139337337274371	-0.2613168724279836	-0.903765690376569	0.5490196078431373
1467.803955078125	-2.51632812183538	-9.208569759295528	2.393196109604749	-1.775407519064694	-0.05326222557194082	-0.3778911128217572	-0.2613168724279836	-0.903765690376569	0.5490196078431373
1471.710205078125	-2.594677967765267	-8.962746271476201	2.576420957253588	-1.030526203769263	0.7153528706033401	0.7618705098381089	-0.2613168724279836	-0.903765690376569	0.5490196078431373
1475.616455078125	-2.656906799653767	-9.125023399720087	2.385866630704327	-1.04561983375319	0.3417657333456133	0.3807761478994939	-0.2613168724279836	-0.903765690376569	0.5490196078431373
1479.522705078125	-2.525612734685666	-9.126930034223131	2.457791310335927	-1.053161717567617	-0.03159485152702852	0.3770425420507675	-0.2613168724279836	-0.903765690376569	0.5490196078431373
1483.428955078125	-2.595390303390412	-9.033979833990641	2.522347105266564	-1.414274755961084	-0.4155625710370415	0.3732028648556673	-0.2613168724279836	-0.903765690376569	0.5490196078431373
1487.335205078125	-2.513170605766477	-8.89281815240529	2.661540517635203	-0.692058541529223	0.7255069004705412	0.007255069004705413	-0.2613168724279836	-0.903765690376569	0.5490196078431373
1491.241455078125	-2.372409044617379	-8.958076178909652	2.477867050103294	-1.04561983375319	0.3417657333456133	0.3807761478994939	-0.2695473251028807	-0.8912133891213389	0.5533769063180829
1495.147705078125	-2.138918561961898	-8.841351145684751	2.496139216692104	-1.760313889080767	0.320324911685786	0.003203249116857859	-0.2695473251028807	-0.8912133891213389	0.5533769063180829
1499.053955078125	-2.503197907014456	-8.905649287304167	2.408473435352526	-0.3309356407806847	0.7363405874929974	0.3847218964409677	-0.2695473251028807	-0.8912133891213389	0.5533769063180829
1502.960205078125	-2.605778278655815	-9.062676350429966	2.662222541106086	-1.775417381419766	0.319871806915616	-0.7515182630629194	-0.2695473251028807	-0.8912133891213389	0.5533769063180829
1506.866455078125	-2.606419885921016	-9.126837076950064	2.305472735172075	-0.3158518731518299	1.483061757238281	0.3921891081384206	-0.2510288065843622	-0.8953974895397488	0.5490196078431373
1510.772705078125	-2.524501289029412	-9.015785468597766	2.463359653073757	-0.6769747739003683	1.472228070215825	0.01472228070215825	-0.2510288065843622	-0.8953974895397488	0.5490196078431373
1514.678955078125	-2.636496615784382	-9.104207032983597	2.488121651889946	-0.6996102876987225	0.7252803480854563	-0.3701056870851832	-0.2510288065843622	-0.8953974895397488	0.5490196078431373
1518.585205078125	-2.614676916741839	-8.942439148931305	2.546933293588037	-0.3083001269823305	1.483288309623366	0.7695498642283092	-0.2510288065843622	-0.8953974895397488	0.5511982570806101
1522.491455078125	-2.553182649391609	-8.853618474514366	2.461080179073295	0.02261578908820999	1.493215787105482	-0.3624263326949829	-0.2510288065843622	-0.8953974895397488	0.5511982570806101
1526.397705078125	-2.726377205195329	-9.001356883169311	2.492365353486552	-1.038087812293834	1.088260350705812	0.01088260350705812	-0.2510288065843622	-0.8953974895397488	0.5511982570806101
1530.303955078125	-2.56398388036011	-8.923640561263488	2.507976112931205	-0.3233937569662573	1.109701172365639	0.3884555022896942	-0.2510288065843622	-0.8953974895397488	0.5511982570806101
1534.210205078125	-2.617726319460542	-9.247379420801622	2.349837604149152	-1.060723326092188	0.3413126285754433	-0.3739453642802834	-0.271604938271605	-0.8891213389121339	0.5664488017429194
1538.116455078125	-2.803956112001834	-8.678439483011662	2.305715232406167	-0.6769649115452961	1.099094037728268	0.3883494309433204	-0.271604938271605	-0.8891213389121339	0.5664488017429194
1542.022705078125	-2.545804671044368	-9.125921649891369	2.518245870794988	-0.3158420107967578	1.109927724750724	0.7658162583795828	-0.271604938271605	-0.8891213389121339	0.5664488017429194
1545.928955078125	-2.574489062621991	-8.964057777350581	2.485648180102211	-1.053171579922689	0.3415391809605283	0.003415391809605283	-0.257201646090535	-0.8807531380753137	0.5533769063180829
1549.835205078125	-2.432516025707576	-8.908168227323296	2.297943196053528	-1.805555329612259	-2.292972630037622	0.3544287642656616	-0.257201646090535	-0.8807531380753137	0.5533769063180829
1553.741455078125	-2.554708361156102	-9.006189650963732	2.352426262123081	-1.406742734501728	0.3309320463231571	0.003309320463231571	-0.257201646090535	-0.8807531380753137	0.5533769063180829
1557.647705078125	-2.840633818658204	-9.315907118345654	2.121959922057752	-1.053171579922689	0.3415391809605283	0.003415391809605283	-0.257201646090535	-0.8807531380753137	0.5533769063180829
1561.553955078125	-2.815645489090196	-8.837276181746869	2.560282766324785	-1.767855772895194	-0.05303567318685583	-0.0005303567318685583	-0.2654320987654321	-0.8974895397489538	0.5620915032679739
1565.460205078125	-2.333746902262026	-9.132265983778291	2.307928019667254	-0.6844969330046514	0.3525994203680694	0.7582429753357562	-0.2654320987654321	-0.8974895397489538	0.5620915032679739
1569.366455078125	-2.628178960655037	-9.282542530150064	1.84292441721928	-1.04561983375319	0.3417657333456133	0.3807761478994939	-0.2654320987654321	-0.8974895397489538	0.5620915032679739
1573.272705078125	-2.56561164304395	-9.086416829647545	2.388709910774053	-1.406732872146656	-0.04220198616439969	0.3769364707043938	-0.2489711934156379	-0.907949790794979	0.5620915032679739
1577.178955078125	-2.475721959986724	-9.188357614833986	2.475420859254394	-1.414274755961084	-0.4155625710370415	0.3732028648556673	-0.2489711934156379	-0.907949790794979	0.5620915032679739
1581.085205078125	-2.576207761768616	-9.135927692013077	2.46693648727661	-1.391649104517801	0.7045191835808838	0.3844036824018466	-0.2489711934156379	-0.907949790794979	0.5620915032679739
1584.991455078125	-2.401589545119748	-8.84582319884346	2.53369294460663	-1.767845910540123	-0.4261697056744126	0.3730967935092936	-0.2489711934156379	-0.907949790794979	0.5620915032679739
1588.897705078125	-2.676715792463633	-9.085720660504672	2.236118526221848	-2.068604153708025	1.430479188821595	1.146380263586329	-0.2510288065843622	-0.8870292887029287	0.5577342047930284
1592.803955078125	-2.500978046917375	-8.683663277596052	2.389291904135872	-2.113875181304734	-0.06341625543914202	0.3767243280116463	-0.2510288065843622	-0.8870292887029287	0.5577342047930284
1596.710205078125	-2.315026115790146	-9.280389356792357	2.684547442719653	-1.406732872146656	-0.04220198616439969	0.3769364707043938	-0.2510288065843622	-0.8870292887029287	0.5577342047930284
1600.616455078125	-2.443917437330455	-9.038208379510113	2.402438285439069	-1.406732872146656	-0.04220198616439969	0.3769364707043938	-0.2448559670781893	-0.8912133891213389	0.5599128540305012
1604.522705078125	-2.535919877539706	-9.147543309526068	2.396051514536179	-1.760304026725695	-0.05280912080177085	0.37683039935802	-0.2448559670781893	-0.8912133891213389	0.5599128540305012
1608.428955078125	-2.554980160139313	-9.033369549284842	2.664195862348507	-1.767855772895194	-0.05303567318685583	-0.0005303567318685583	-0.2448559670781893	-0.8912133891213389	0.5599128540305012
1612.335205078125	-2.414118568881153	-9.08862456488292	2.470922535561992	-1.384107220703374	1.077879768453526	0.388137288250573	-0.2448559670781893	-0.8912133891213389	0.5599128540305012
1616.241455078125	-2.777082366438763	-9.021367957007588	2.410049667374123	-1.399190988332229	0.3311585987082421	0.3806700765531202	-0.2798353909465021	-0.8912133891213389	0.5664488017429194
1620.147705078125	-2.240806806080954	-8.929165456580211	2.601840729817251	-2.444810822085418	0.6729243320538555	0.7614462244526141	-0.2798353909465021	-0.8912133891213389	0.5664488017429194
1624.053955078125	-2.516210914838902	-9.196849059647763	2.555399478273264	-1.737678375282413	1.067272633816155	0.3880312169041993	-0.2798353909465021	-0.8912133891213389	0.5664488017429194
1627.960205078125	-2.525509673361177	-9.116623901774233	2.478509667773637	-1.022984319954835	1.088713455475982	0.7656041156868354	-0.2613168724279836	-0.903765690376569	0.5577342047930284
1631.866455078125	-2.574899287109663	-9.005080226117762	2.422986894812915	-1.022984319954835	1.088713455475982	0.7656041156868354	-0.2613168724279836	-0.903765690376569	0.5577342047930284
1635.772705078125	-2.72447865393342	-8.811501756978346	2.289755883187507	-1.707510840024703	2.560714973306721	0.402965640299105	-0.2613168724279836	-0.903765690376569	0.5577342047930284
1639.678955078125	-2.553274596259535	-8.862813161307011	2.551528616174075	-1.767855772895194	-0.05303567318685583	-0.0005303567318685583	-0.2613168724279836	-0.903765690376569	0.5577342047930284
1643.585205078125	-2.41090143890887	-8.766911567654594	2.32542419510697	-1.36147170690502	1.824827490583894	0.7729652560379144	-0.2613168724279836	-0.8891213389121339	0.5490196078431373
1647.491455078125	-2.43342033830971	-8.99859948753666	2.343917640421889	-1.391649104517801	0.7045191835808838	0.3844036824018466	-0.2613168724279836	-0.8891213389121339	0.5490196078431373
1651.397705078125	-2.493603099785561	-8.956269574515668	2.416139379165251	-1.391649104517801	0.7045191835808838	0.3844036824018466	-0.2613168724279836	-0.8891213389121339	0.5490196078431373
1655.303955078125	-2.644974925331313	-8.941936977575706	2.536554411968912	-1.022984319954835	1.088713455475982	0.7656041156868354	-0.2654320987654321	-0.8786610878661087	0.5533769063180829
1659.210205078125	-2.675482087785192	-8.962350192660518	2.454420598782052	-2.121426927474233	-0.063642807824227	-0.0006364280782422699	-0.2654320987654321	-0.8786610878661087	0.5533769063180829
1663.116455078125	-2.523817244748245	-8.947381040481064	2.234463482599172	-1.369003728364375	1.078332873223696	1.14285880043035	-0.2654320987654321	-0.8786610878661087	0.5533769063180829
1667.022705078125	-2.595508520792031	-9.045801574152611	2.350037664367278	-2.098791413675879	0.6833049143061415	0.3841915397090992	-0.2654320987654321	-0.8786610878661087	0.5533769063180829
1670.928955078125	-2.513387842872018	-8.914541862959338	2.508937008221293	-1.752762142911268	0.320551464070871	0.3805640052067465	-0.2469135802469136	-0.8891213389121339	0.5577342047930284
1674.835205078125	-2.624370743674654	-8.901720832111883	2.55897328126069	-1.707491115314559	1.814446908331608	1.150219940781429	-0.2469135802469136	-0.8891213389121339	0.5577342047930284
1678.741455078125	-2.47452159867797	-9.068321483958592	2.360222548199129	-2.459894589714273	-0.0737968376914282	0.7539790127551612	-0.2469135802469136	-0.8891213389121339	0.5577342047930284
1682.647705078125	-2.412517076731005	-8.928475349868192	2.327430859719079	-1.737668512927341	0.6941386013285977	0.7616583671453615	-0.2551440329218107	-0.8849372384937237	0.5664488017429194
1686.553955078125	-2.475235955113398	-9.139757127501442	2.285936551750562	-1.730116766757841	0.6943651537136827	1.13901912323525	-0.2551440329218107	-0.8849372384937237	0.5664488017429194
1690.460205078125	-2.210121812322075	-8.890969110995341	2.442441235417922	-1.730126629112913	1.06749918620124	0.7653919729940879	-0.2551440329218107	-0.8849372384937237	0.5664488017429194
1694.366455078125	-2.523587882781	-8.924444843756557	2.508339858782342	-2.083697783691952	1.056892051563868	0.7652859016477143	-0.2551440329218107	-0.8849372384937237	0.5664488017429194
1698.272705078125	-2.653853355314496	-8.819678965792948	2.623386609066299	-2.098791413675879	0.6833049143061415	0.3841915397090992	-0.2592592592592593	-0.8933054393305438	0.5577342047930284
1702.178955078125	-2.596215804391466	-9.116529934096024	2.346494173534113	-2.076146037522452	1.057118603948953	1.142646657737603	-0.2592592592592593	-0.8933054393305438	0.5577342047930284
1706.085205078125	-2.624369733269512	-8.901619791597676	2.569079353491462	-2.098791413675879	0.6833049143061415	0.3841915397090992	-0.2592592592592593	-0.8933054393305438	0.5577342047930284
1709.991455078125	-2.44361431578784	-9.007896225248651	2.403956924367568	-1.737658650572269	0.3210045688410409	1.135285517386524	-0.257201646090535	-0.8912133891213389	0.5686274509803922
1713.897705078125	-2.415013787837008	-9.178146460468442	2.607851630007299	-1.737668512927341	0.6941386013285977	0.7616583671453615	-0.257201646090535	-0.8912133891213389	0.5686274509803922
1717.803955078125	-2.657478688964166	-9.182212330760045	2.726435808693569	-2.813475606648384	0.2887300601587575	0.3802457911676254	-0.257201646090535	-0.8912133891213389	0.5686274509803922
1721.710205078125	-2.282418321045948	-9.049912912675605	2.565084211559801	-1.737658650572269	0.3210045688410409	1.135285517386524	-0.257201646090535	-0.8912133891213389	0.5686274509803922
1725.616455078125	-2.54206718242393	-8.752172787847529	2.526869678682375	-2.836111120446738	-0.4582176619716111	-0.004582176619716111	-0.2592592592592593	-0.901673640167364	0.5599128540305012
1729.522705078125	-2.514901429774807	-9.065900553238244	2.52155595804034	-1.752762142911268	0.320551464070871	0.3805640052067465	-0.2592592592592593	-0.901673640167364	0.5599128540305012
1733.428955078125	-2.423517357512491	-9.018402417915674	2.403632584316971	-2.467446335883773	-0.07402339007651318	0.3766182566652727	-0.2592592592592593	-0.901673640167364	0.5599128540305012
1737.335205078125	-2.535899669436864	-9.14552249924197	2.598172959151614	-1.384097358348302	0.7047457359659689	0.7617644384917353	-0.2674897119341564	-0.899581589958159	0.5555555555555556
1741.241455078125	-2.544083951087459	-8.953849654200463	2.557169708082133	-2.106333297490306	0.3099443294334998	0.3804579338603727	-0.2674897119341564	-0.899581589958159	0.5555555555555556
1745.147705078125	-2.452575598992671	-8.893923535630691	2.672192208642681	-2.467456198238845	0.2991106424110436	0.002991106424110436	-0.2674897119341564	-0.899581589958159	0.5555555555555556
1749.053955078125	-2.544201158083937	-8.965570353848229	2.394966339413618	-1.745210396741768	0.3207780164559559	0.7579247612966351	-0.2674897119341564	-0.899581589958159	0.5555555555555556
1752.960205078125	-2.394764258385209	-9.173395535490529	2.113342176601218	-1.737668512927341	0.6941386013285977	0.7616583671453615	-0.2366255144032922	-0.8849372384937237	0.5708061002178649
1756.866455078125	-2.444106383092018	-9.057102955666425	2.532804798486769	-1.384067771283086	-0.4146563614967015	1.882645889215222	-0.2366255144032922	-0.8849372384937237	0.5708061002178649
1760.772705078125	-2.664168581409671	-8.841100565209523	2.480798235420377	-2.113875181304734	-0.06341625543914202	0.3767243280116463	-0.2366255144032922	-0.8849372384937237	0.5708061002178649
1764.678955078125	-2.526811075184135	-9.246764084070113	2.593201765852734	-2.113885043659806	0.3097177770484148	0.003097177770484148	-0.2530864197530864	-0.8912133891213389	0.5511982570806101
1768.585205078125	-2.948977541229809	-9.039168264395061	2.306430599246737	-1.730126629112913	1.06749918620124	0.7653919729940879	-0.2530864197530864	-0.8912133891213389	0.5511982570806101
1772.491455078125	-2.514711473608102	-9.046904936567726	2.401295517223412	-1.75277200526634	0.6936854965584277	0.006936854965584278	-0.2530864197530864	-0.8912133891213389	0.5511982570806101
1776.397705078125	-2.706667232089385	-9.0505615927768	2.661819389454408	-2.490101574392271	-0.07470304723176813	-0.7554640116043932	-0.2530864197530864	-0.8912133891213389	0.5511982570806101
1780.303955078125	-2.553061400774562	-8.841493612809781	2.663707836664897	-2.83612098280181	-0.08508362948405432	-0.3782093268608783	-0.2592592592592593	-0.905857740585774	0.5533769063180829
1784.210205078125	-2.320395408714993	-8.807217639176059	2.516233143752027	-1.737658650572269	0.3210045688410409	1.135285517386524	-0.2592592592592593	-0.905857740585774	0.5533769063180829
1788.116455078125	-2.524915555137652	-9.057212079421765	2.360274078861374	-1.752752280556195	-0.05258256841668587	0.7541911554479087	-0.2592592592592593	-0.905857740585774	0.5533769063180829
1792.022705078125	-2.472686702940009	-8.884831910162537	2.531031537462474	-2.121426927474233	-0.063642807824227	-0.0006364280782422699	-0.2736625514403292	-0.8953974895397488	0.5511982570806101
1795.928955078125	-2.585086191751798	-9.013669680230318	2.553768684373997	-2.121426927474233	-0.063642807824227	-0.0006364280782422699	-0.2736625514403292	-0.8953974895397488	0.5511982570806101
1799.835205078125	-2.436430335227873	-9.299599179352988	2.540958767983103	-2.121426927474233	-0.063642807824227	-0.0006364280782422699	-0.2736625514403292	-0.8953974895397488	0.5511982570806101
1803.741455078125	-2.323031555730599	-9.070832340736583	2.412116956294754	-2.121426927474233	-0.063642807824227	-0.0006364280782422699	-0.2736625514403292	-0.8953974895397488	0.5511982570806101
1807.647705078125	-2.393516408034778	-9.048610500447506	2.473129260392227	-2.128988535998805	0.3092646722782448	-0.7516243344092931	-0.2489711934156379	-0.899581589958159	0.5620915032679739
1811.553955078125	-2.587312114279732	-9.236261933023661	2.51231378220602	-1.391649104517801	0.7045191835808838	0.3844036824018466	-0.2489711934156379	-0.899581589958159	0.5620915032679739
1815.460205078125	-2.425636177095367	-9.230284376203299	2.423320328509791	-1.391649104517801	0.7045191835808838	0.3844036824018466	-0.2489711934156379	-0.899581589958159	0.5620915032679739
1819.366455078125	-2.220103604720375	-8.879047340724309	2.604553667623652	-2.497643458206698	-0.4480636321044099	-0.7591976174531196	-0.2489711934156379	-0.899581589958159	0.5620915032679739
1823.272705078125	-2.627601008913785	-9.224747356024873	2.573092682715679	-1.399190988332229	0.3311585987082421	0.3806700765531202	-0.2489711934156379	-0.899581589958159	0.5620915032679739
1827.178955078125	-2.55611282430355	-9.14663596570851	2.446400002764469	-1.406742734501728	0.3309320463231571	0.003309320463231571	-0.2489711934156379	-0.899581589958159	0.5620915032679739
1831.085205078125	-2.363012276796326	-9.028500406905311	2.524944856886772	-1.384107220703374	1.077879768453526	0.388137288250573	-0.2489711934156379	-0.899581589958159	0.5620915032679739
1834.991455078125	-2.485328892077324	-9.138949813792944	2.346482048672408	-1.038087812293834	1.088260350705812	0.01088260350705812	-0.2674897119341564	-0.8912133891213389	0.5729847494553377
1838.897705078125	-2.58690694181777	-9.195744686827505	2.524444706341458	-1.01545229849548	1.835208072836181	0.3957105712943996	-0.2674897119341564	-0.8912133891213389	0.5729847494553377
1842.803955078125	-2.434836926318862	-9.140258288451898	2.316618514294015	-1.030545928479407	1.461620935578454	0.01461620935578454	-0.2674897119341564	-0.8912133891213389	0.5729847494553377
1846.710205078125	-2.686412650611875	-9.045305465227864	2.217840297202185	-1.384117083058446	1.451013800941082	0.01451013800941083	-0.2674897119341564	-0.8912133891213389	0.5729847494553377
1850.616455078125	-2.726470162468398	-9.010652610476159	2.572707718356559	-1.022994182309908	1.461847487963539	0.3919769654456732	-0.2674897119341564	-0.8912133891213389	0.5729847494553377
1854.522705078125	-2.535610693566239	-9.116624912179374	2.458206586849309	-1.038087812293834	1.088260350705812	0.01088260350705812	-0.2674897119341564	-0.8912133891213389	0.5729847494553377
1858.428955078125	-2.594988162143876	-8.993765709337099	2.504159812709687	-1.4067525968568	0.7040660788107139	-0.3703178297779307	-0.2674897119341564	-0.8912133891213389	0.5729847494553377
1862.335205078125	-2.494006251437238	-8.996584739683415	2.424220599491357	-0.6694230277308688	1.47245462260091	0.3920830367920469	-0.271604938271605	-0.905857740585774	0.5664488017429194
1866.241455078125	-2.464828782150296	-9.10914084129222	2.338076488295705	-1.053181442277761	0.7146732134480851	-0.3702117584315569	-0.271604938271605	-0.905857740585774	0.5664488017429194
1870.147705078125	-2.474821689005158	-9.098330516677441	2.389022125962946	-0.3988323198206752	-1.877636611385665	-0.3961348566798944	-0.271604938271605	-0.905857740585774	0.5664488017429194
1874.053955078125	-2.635586240751396	-9.013169529685003	2.502783640906216	-1.045629696108262	0.7148997658331701	0.007148997658331701	-0.271604938271605	-0.905857740585774	0.5664488017429194
1877.960205078125	-2.576693766641942	-9.184528179345621	2.656420794780442	-0.6845166577147956	1.098867485343183	0.01098867485343183	-0.271604938271605	-0.905857740585774	0.5664488017429194
1881.866455078125	-2.34419954345652	-9.16742909312673	2.811115842838392	-0.353581016934111	0.3625268978501856	-0.3737332215875359	-0.271604938271605	-0.905857740585774	0.5664488017429194
1885.772705078125	-2.555396447057837	-9.074998241137251	2.54089814367458	-1.053181442277761	0.7146732134480851	-0.3702117584315569	-0.271604938271605	-0.905857740585774	0.5664488017429194
1889.678955078125	-2.535304540808198	-9.086009636375298	2.490043442470123	-1.053181442277761	0.7146732134480851	-0.3702117584315569	-0.2654320987654321	-0.8891213389121339	0.5490196078431373
1893.585205078125	-2.836854903426942	-8.938015595219415	2.54493269140678	-0.3384873869501842	0.7361140351079124	0.007361140351079124	-0.2654320987654321	-0.8891213389121339	0.5490196078431373
1897.491455078125	-2.576919086988619	-9.207060214013309	2.422968707520358	-0.6996102876987225	0.7252803480854563	-0.3701056870851832	-0.2654320987654321	-0.8891213389121339	0.5490196078431373
1901.397705078125	-2.415331055051611	-9.209873181928772	2.464847979847995	-0.6996102876987225	0.7252803480854563	-0.3701056870851832	-0.2654320987654321	-0.8891213389121339	0.5490196078431373
1905.303955078125	-2.45312728020023	-8.949091656386553	2.204781821146347	-0.6845067953597235	0.7257334528556262	0.384615825094594	-0.2654320987654321	-0.8891213389121339	0.5490196078431373
1909.210205078125	-2.504378060220369	-9.023664607895464	2.725793191023226	-0.6845166577147956	1.098867485343183	0.01098867485343183	-0.2654320987654321	-0.8891213389121339	0.5490196078431373
1913.116455078125	-2.715376924413845	-8.911429815121828	2.416163628888659	-0.692058541529223	0.7255069004705412	0.007255069004705413	-0.2654320987654321	-0.8891213389121339	0.5490196078431373
1917.022705078125	-2.606388563361612	-9.123704821009714	2.618760974326	-0.6845166577147956	1.098867485343183	0.01098867485343183	-0.271604938271605	-0.8682008368200836	0.5620915032679739
1920.928955078125	-2.644883988868528	-8.932843331297267	2.435999902637361	-0.707162033868222	0.7250537957003712	-0.7474664431750718	-0.271604938271605	-0.8682008368200836	0.5620915032679739
1924.835205078125	-2.41199166605714	-8.875934282481657	2.532083369215346	-0.3384972493052563	1.109248067595469	-0.3662660098900831	-0.271604938271605	-0.8682008368200836	0.5620915032679739
1928.741455078125	-2.472685692534867	-8.884730869648331	2.541137609693245	-1.068275072261688	0.3410860761903583	-0.751306120370172	-0.271604938271605	-0.8682008368200836	0.5620915032679739
1932.647705078125	-2.495638055741648	-9.15976517012429	2.264530108411117	-0.3384873869501842	0.7361140351079124	0.007361140351079124	-0.271604938271605	-0.8682008368200836	0.5620915032679739
1936.553955078125	-2.584609280524752	-8.965978557525615	2.27332972679322	-0.3384972493052563	1.109248067595469	-0.3662660098900831	-0.271604938271605	-0.8682008368200836	0.5620915032679739
1940.460205078125	-2.59610465982584	-9.105415477533487	2.448061108817997	-0.6996102876987225	0.7252803480854563	-0.3701056870851832	-0.271604938271605	-0.8682008368200836	0.5620915032679739
1944.366455078125	-2.452189624228408	-8.855326059204428	2.492307760393455	-0.3234036193213294	1.482835204853196	0.01482835204853196	-0.2633744855967078	-0.8933054393305438	0.5729847494553377
1948.272705078125	-2.636592604272876	-9.113805881833059	2.538145800067639	-0.707162033868222	0.7250537957003712	-0.7474664431750718	-0.2633744855967078	-0.8933054393305438	0.5729847494553377
1952.178955078125	-2.574063682057189	-8.921519720870329	2.699900548853084	-0.7147039176826494	0.3516932108277295	-0.7512000490237982	-0.2633744855967078	-0.8933054393305438	0.5729847494553377
1956.085205078125	-2.423901311466469	-9.056797813313526	2.60372917702774	-0.353581016934111	0.3625268978501856	-0.3737332215875359	-0.2633744855967078	-0.8933054393305438	0.5729847494553377
1959.991455078125	-2.556102720252129	-9.145625560566462	2.547460725072187	-0.3460391331196837	0.7358874827228274	-0.3699996157388095	-0.257201646090535	-0.8744769874476986	0.5729847494553377
1963.897705078125	-2.623754396538005	-8.840086118446907	2.663071281425407	-0.3233937569662573	1.109701172365639	0.3884555022896942	-0.257201646090535	-0.8744769874476986	0.5729847494553377
1967.803955078125	-2.616179389188065	-9.092686393553956	2.670719037945573	-0.6920684038842951	1.098640932958098	-0.3663720812364568	-0.257201646090535	-0.8744769874476986	0.5729847494553377
1971.710205078125	-2.637320095975151	-9.186555052060571	2.332480864619038	-0.3309553654908289	1.482608652468111	-0.3625324040413567	-0.257201646090535	-0.8870292887029287	0.5533769063180829
1975.616455078125	-2.68739678522023	-9.143718926063414	2.475536045440587	0.03016753525770946	1.493442339490567	0.01493442339490567	-0.257201646090535	-0.8870292887029287	0.5533769063180829
1979.522705078125	-2.353492239547943	-9.086597692167972	2.794862465723395	-0.6845265200698678	1.47200151783074	-0.3626384753877304	-0.257201646090535	-0.8870292887029287	0.5533769063180829
1983.428955078125	-2.594577937656204	-8.952743260569918	2.566821097998983	-1.068275072261688	0.3410860761903583	-0.751306120370172	-0.257201646090535	-0.8870292887029287	0.5533769063180829
1987.335205078125	-2.483490965123937	-8.955157118454272	2.547609254628068	0.03016753525770946	1.493442339490567	0.01493442339490567	-0.2613168724279836	-0.9142259414225941	0.5555555555555556
1991.241455078125	-2.634596043712188	-8.914149825764223	2.305724326052445	-0.6996102876987225	0.7252803480854563	-0.3701056870851832	-0.2613168724279836	-0.9142259414225941	0.5555555555555556
1995.147705078125	-2.706283278135406	-9.012166197378948	2.461722796743639	-0.7222655262072208	0.7246006909302013	-1.502187955354849	-0.2613168724279836	-0.9142259414225941	0.5555555555555556
1999.053955078125	-2.674877865510246	-8.901927965166001	2.437245732177507	-0.3233937569662573	1.109701172365639	0.3884555022896942	-0.2551440329218107	-0.8953974895397488	0.5642701525054467
2002.960205078125	-2.507239527582652	-9.309811344123673	2.388224916305869	-0.3083099893374026	1.856422342110923	0.395922713987147	-0.2551440329218107	-0.8953974895397488	0.5642701525054467
2006.866455078125	-2.505396548603554	-9.125513446213979	2.639882483415387	-0.3158715978619742	2.229329822213395	-0.3550651923439038	-0.2551440329218107	-0.8953974895397488	0.5642701525054467
2010.772705078125	-2.474184123360526	-9.034573952214163	2.705347642973869	-0.7071521715131499	0.3519197632128144	-0.3738392929339096	-0.2551440329218107	-0.8953974895397488	0.5642701525054467
2014.678955078125	-2.575880390502592	-9.103190565410696	2.711000859743632	-1.060723326092188	0.3413126285754433	-0.3739453642802834	-0.2613168724279836	-0.8912133891213389	0.5577342047930284
2018.585205078125	-2.655062810269528	-8.940624461296185	2.647630270044617	-0.338477524595112	0.3629800026203556	0.3809882905922413	-0.2613168724279836	-0.8912133891213389	0.5577342047930284
2022.491455078125	-2.655495263670325	-8.983869801375871	2.362635395678342	-0.7222458014970767	-0.0216673740449123	-0.7549336548725246	-0.2613168724279836	-0.8912133891213389	0.5577342047930284
2026.397705078125	-2.623552315509595	-8.819878015605932	2.664083707377739	0.3460095460544673	0.383514614739843	-0.7508818349846771	-0.2633744855967078	-0.8849372384937237	0.5729847494553377
2030.303955078125	-2.598168917531046	-9.311841248054051	2.003375743371482	-1.045629696108262	0.7148997658331701	0.007148997658331701	-0.2633744855967078	-0.8849372384937237	0.5729847494553377
2034.210205078125	-2.577910294432968	-9.306180958448294	2.609921950143357	-1.068265209906616	-0.03204795629719848	-0.3776789701290098	-0.2633744855967078	-0.8849372384937237	0.5729847494553377
2038.116455078125	-2.446886007637795	-9.335065410244042	2.003727364360915	-0.338477524595112	0.3629800026203556	0.3809882905922413	-0.2633744855967078	-0.8849372384937237	0.5729847494553377
2042.022705078125	-2.445522971101171	-9.198761756581662	2.505505672358896	0.0226355137983542	0.7469477221303685	0.3848279677873415	-0.271604938271605	-0.8765690376569036	0.5664488017429194
2045.928955078125	-2.434013446128092	-9.057910269374922	2.472259301564923	-0.6996004253436504	0.3521463155978994	0.003521463155978994	-0.271604938271605	-0.8765690376569036	0.5664488017429194
2049.835205078125	-2.473484923002228	-8.964653916384389	2.62804255596086	-0.04532033937206895	0.3717747181770469	-2.637791686780494	-0.271604938271605	-0.8765690376569036	0.5664488017429194
2053.741455078125	-2.585421646258959	-9.047215130946336	2.228855734060801	-0.692058541529223	0.7255069004705412	0.007255069004705413	-0.271604938271605	-0.901673640167364	0.5686274509803922
2057.647705078125	-2.533596956118136	-8.915251167369057	2.397588340757235	0.007522159104283147	1.119628649847755	-0.7435206946335979	-0.271604938271605	-0.901673640167364	0.5686274509803922
2061.553955078125	-2.533589883282141	-8.914543883769621	2.468330846372637	0.3837485521918205	1.130915441640381	0.3886676449824416	-0.271604938271605	-0.901673640167364	0.5686274509803922
2065.460205078125	-2.473292946025238	-8.945456218685463	2.527994259605475	0.376196806022321	1.130688889255296	0.01130688889255296	-0.271604938271605	-0.901673640167364	0.5686274509803922
2069.366455078125	-2.644584908946482	-8.902935339092625	2.397094252642773	-0.7147039176826494	0.3516932108277295	-0.7512000490237982	-0.2469135802469136	-0.8807531380753137	0.5620915032679739
2073.272705078125	-2.60307342409055	-8.792190893903511	2.443450630154829	0.01508376762885473	0.7467211697452836	0.007467211697452836	-0.2469135802469136	-0.8807531380753137	0.5620915032679739
2077.178955078125	-2.563972765903547	-8.922529115607235	2.619142907469694	-0.7146940553275772	-0.02144082165982732	-0.3775728987826361	-0.2469135802469136	-0.8807531380753137	0.5620915032679739
2081.085205078125	-2.654196893062792	-8.854032740622605	2.217625080906929	0.7297876853115041	0.3950279589175541	0.7586672607212511	-0.2510288065843622	-0.8933054393305438	0.5468409586056645
2084.991455078125	-2.413607303879276	-9.037498064695253	2.534090033827455	0.03018725996785367	0.7471742745154536	0.76218872387723	-0.2510288065843622	-0.8933054393305438	0.5468409586056645
2088.897705078125	-2.614472814903145	-8.922028965061919	2.568157864001913	-0.007561608524571581	0.3729074801024718	-0.7509879063310508	-0.2510288065843622	-0.8933054393305438	0.5468409586056645
2092.803955078125	-2.60570653989073	-9.05550247392142	2.369652659389871	-0.3460194084095394	-0.01038058225228618	0.3772546847435149	-0.2510288065843622	-0.8933054393305438	0.5468409586056645
2096.710205078125	-2.774838256618272	-8.796956974958556	2.633413869695991	-0.3158420107967578	1.109927724750724	0.7658162583795828	-0.257201646090535	-0.8807531380753137	0.5620915032679739
2100.616455078125	-2.526412975558169	-9.206954121473393	2.53459018437277	0.01510349233899894	0.0004531047701699683	0.7547215121797772	-0.257201646090535	-0.8807531380753137	0.5620915032679739
2104.522705078125	-2.472782691428504	-8.894430759012	2.581055685640166	-0.7071225844479335	-0.7674823342498559	0.7470421577895769	-0.257201646090535	-0.8807531380753137	0.5620915032679739
2108.428955078125	-2.675690231244453	-8.983164538586722	2.392771739445088	-1.060703601382045	-0.4049554363996703	0.3733089362020411	-0.2613168724279836	-0.8870292887029287	0.5490196078431373
2112.335205078125	-2.627710132669125	-9.235659731558998	2.491737891893339	0.3686746469180378	0.01106023940754114	0.754827583526151	-0.2613168724279836	-0.8870292887029287	0.5490196078431373
2116.241455078125	-2.655975206112798	-9.031864045623189	2.612756136566804	-0.3233740322561131	0.3634331073905256	1.135709802772018	-0.2613168724279836	-0.8870292887029287	0.5490196078431373
2120.147705078125	-2.433005061796328	-8.957071836198455	2.457109286865044	-0.3384676622400399	-0.0101540298672012	0.7546154408334035	-0.2613168724279836	-0.8870292887029287	0.5490196078431373
2124.053955078125	-2.595392324200696	-9.034181915019049	2.502134960805021	0.03019712232292578	0.3740402420278968	1.135815874118392	-0.2386831275720165	-0.901673640167364	0.579520697167756
2127.960205078125	-2.381997789415422	-8.906849648612923	2.5308375396752	-0.7146841929725051	-0.3945748541473841	-0.003945748541473841	-0.2386831275720165	-0.901673640167364	0.579520697167756
2131.866455078125	-2.645984320068219	-9.042876451266379	2.54159835443802	-0.3233740322561131	0.3634331073905256	1.135709802772018	-0.2386831275720165	-0.901673640167364	0.579520697167756
2135.772705078125	-2.626500677714093	-9.114714236055761	2.467494230915021	-0.3384676622400399	-0.0101540298672012	0.7546154408334035	-0.257201646090535	-0.8723849372384936	0.5381263616557734
2139.678955078125	-2.303330676270932	-9.120946414971918	2.490616342185665	-0.6844969330046514	0.3525994203680694	0.7582429753357562	-0.257201646090535	-0.8723849372384936	0.5381263616557734
2143.585205078125	-2.674959708326752	-8.910112246816597	2.628754891586004	0.03773900613735315	0.7474008269005386	1.139549479967119	-0.257201646090535	-0.8723849372384936	0.5381263616557734
2147.491455078125	-2.63537607648185	-8.99215310273039	2.584644644704723	-0.6995905629885782	-0.02098771688965735	0.3771486133971412	-0.257201646090535	-0.8723849372384936	0.5381263616557734
2151.397705078125	-2.514415424901482	-9.017300065905697	2.332071650536509	-0.3233740322561131	0.3634331073905256	1.135709802772018	-0.2777777777777778	-0.903765690376569	0.5533769063180829
2155.303955078125	-2.445001602047873	-9.146624851251946	2.669733892932076	-0.7297580982462877	-1.514430056380224	0.3622141900022355	-0.2777777777777778	-0.903765690376569	0.5533769063180829
2159.210205078125	-2.693656245075223	-8.759563901461615	2.494681202072127	-0.3233740322561131	0.3634331073905256	1.135709802772018	-0.2777777777777778	-0.903765690376569	0.5533769063180829
2163.116455078125	-2.472262332780349	-8.842394894196488	2.735177833982575	0.02265523850849842	0.0006796571552549525	1.132082268269666	-0.2551440329218107	-0.8912133891213389	0.5686274509803922
2167.022705078125	-2.532556238821825	-8.811179437738033	2.705832637442052	-0.3384577998849678	-0.383288062354758	1.128242591074566	-0.2551440329218107	-0.8912133891213389	0.5686274509803922
2170.928955078125	-2.604998245886153	-8.984673073463801	2.383302222453807	-1.053151855212545	-0.4047288840145853	0.7506696922919297	-0.2551440329218107	-0.8912133891213389	0.5686274509803922
2174.835205078125	-2.554190023318231	-8.954355867176629	2.486336266003947	-0.6920289544640067	-0.3938951969921292	1.128136519728192	-0.2551440329218107	-0.8912133891213389	0.5686274509803922
2178.741455078125	-2.395341199721318	-9.231089669101513	2.4033809934366	-0.6920388168190788	-0.02076116450457237	0.7545093694870298	-0.2633744855967078	-0.903765690376569	0.5533769063180829
2182.647705078125	-2.496023020100768	-9.198261606036347	2.454520628891115	-0.3158222860866136	0.3636596597756105	1.513070558861907	-0.2633744855967078	-0.903765690376569	0.5533769063180829
2186.553955078125	-2.574783090518327	-8.993460566984201	2.575084191250658	-0.3158222860866136	0.3636596597756105	1.513070558861907	-0.2633744855967078	-0.903765690376569	0.5533769063180829
2190.460205078125	-2.514206271037077	-8.996384679465288	2.403826582104244	-0.3082804022721863	0.7370202446482523	1.516804164710634	-0.2530864197530864	-0.8974895397489538	0.5729847494553377
2194.366455078125	-2.565392385128126	-9.064491038065086	2.561525564649505	-0.3082804022721863	0.7370202446482523	1.516804164710634	-0.2530864197530864	-0.8974895397489538	0.5729847494553377
2198.272705078125	-2.444399400583212	-9.086404704785839	2.632346881865987	-0.6694033030207246	0.7261865576257962	1.139337337274371	-0.2530864197530864	-0.8974895397489538	0.5729847494553377
2202.178955078125	-2.411773418546457	-8.854109531413402	2.694792950860028	-0.3007385184577589	1.110380829520894	1.52053777055936	-0.2530864197530864	-0.8974895397489538	0.5729847494553377
2206.085205078125	-2.536617057087719	-9.217261264327432	2.493568746010732	0.3988619068858915	0.7582345139229947	1.517016307403381	-0.2489711934156379	-0.8974895397489538	0.5620915032679739
2209.991455078125	-2.62528111870764	-8.992758335410477	2.544311292244421	-0.3082902646272583	1.110154277135809	1.143177014469471	-0.2489711934156379	-0.8974895397489538	0.5620915032679739
2213.897705078125	-2.627002849069692	-9.164931371615586	2.495281382726504	-0.300748380812831	1.483514862008451	1.146910620318198	-0.2489711934156379	-0.8974895397489538	0.5620915032679739
2217.803955078125	-2.647507000617287	-9.195144506173127	2.463262654180121	-0.7146644682623609	-1.140842919122498	0.7433085519408505	-0.2757201646090535	-0.907949790794979	0.5751633986928105
2221.710205078125	-2.606597717226016	-9.144620207450123	2.547006042758265	-0.3007385184577589	1.110380829520894	1.52053777055936	-0.2757201646090535	-0.907949790794979	0.5751633986928105
2225.616455078125	-2.637884912449556	-9.243036699501097	2.743792548223682	-0.6543096730367978	1.099773694883523	1.520431699212986	-0.2757201646090535	-0.907949790794979	0.5751633986928105
2229.522705078125	-2.436251493517731	-9.281715008338725	2.309531532627685	-1.03806808758369	0.3419922857306982	0.7581369039893825	-0.2757201646090535	-0.907949790794979	0.5751633986928105
2233.428955078125	-2.515492516782905	-9.125009254048097	2.670109763644918	-1.030526203769263	0.7153528706033401	0.7618705098381089	-0.2530864197530864	-0.901673640167364	0.5751633986928105
2237.335205078125	-2.585088212562083	-9.013871761258727	2.533556539912453	0.04528088995178051	1.12076141177318	1.143283085815845	-0.2530864197530864	-0.901673640167364	0.5751633986928105
2241.241455078125	-2.705769992323245	-8.96083761616287	2.545102439470645	-1.030516341414191	0.3422188381157832	1.135497660079271	-0.2530864197530864	-0.901673640167364	0.5751633986928105
2245.147705078125	-2.847544989829818	-8.996923225406002	2.693395560548574	-0.676945186835152	0.3528259727531544	1.135603731425645	-0.2736625514403292	-0.8765690376569036	0.5555555555555556
2249.053955078125	-2.837861266948423	-9.038651947367473	2.580294850568203	-0.3233740322561131	0.3634331073905256	1.135709802772018	-0.2736625514403292	-0.8765690376569036	0.5555555555555556
2252.960205078125	-2.575505530194892	-9.065704534640687	2.419949616955916	-0.6769353244800799	-0.0203080597344024	1.509230881666807	-0.2736625514403292	-0.8765690376569036	0.5555555555555556
2256.866455078125	-2.63571658301472	-9.026203756017432	2.209201333237668	-1.376545612178802	0.7049722883510539	1.139125194581624	-0.2736625514403292	-0.8765690376569036	0.5555555555555556
2260.772705078125	-2.59601069214763	-9.096018709712434	2.377824816178761	-0.6995708382784341	-0.7672557818647709	1.124402913879466	-0.2469135802469136	-0.899581589958159	0.5620915032679739
2264.678955078125	-2.564988223071306	-9.024074832383135	2.563550416554171	-1.406713147436512	-0.7884700511395133	1.124190771186718	-0.2469135802469136	-0.899581589958159	0.5620915032679739
2268.585205078125	-2.603764541207712	-8.861302605619649	2.601604295014012	0.007571470879643689	-0.7460415125900286	1.124615056572213	-0.2469135802469136	-0.899581589958159	0.5620915032679739
2272.491455078125	-2.634169652742243	-8.871510728769767	2.53008276703409	-1.053141992857473	-0.7778629165021421	1.124296842533092	-0.2469135802469136	-0.899581589958159	0.5620915032679739
2276.397705078125	-2.514675099022988	-9.04326747805635	2.765114117531196	-1.421816639775511	-0.7889231559096833	0.3694692590069409	-0.2469135802469136	-0.899581589958159	0.5620915032679739
2280.303955078125	-2.514202229416509	-8.995980517408469	2.444250871027331	-0.6920289544640067	-0.3938951969921292	1.128136519728192	-0.2469135802469136	-0.899581589958159	0.5620915032679739
2284.210205078125	-2.613368442082886	-8.81159168303599	2.502983701124342	-1.0606838766719	-1.151223501374784	1.120563236684365	-0.2469135802469136	-0.899581589958159	0.5620915032679739
2288.116455078125	-2.543274616568679	-8.872916202322356	2.571325484122236	-0.6920190921089346	-0.767029229479686	1.501763669969354	-0.2427983539094651	-0.8828451882845187	0.5620915032679739
2292.022705078125	-2.587027180029674	-9.207768508017885	2.331923120980628	-0.330876466650252	-1.502463607432343	2.626484797887941	-0.2427983539094651	-0.8828451882845187	0.5620915032679739
2295.928955078125	-2.451469205362128	-8.783284172576352	2.627230190226653	-1.429348661234866	-1.535417773269882	0.7393628033993768	-0.2427983539094651	-0.8828451882845187	0.5620915032679739
2299.835205078125	-2.483483892287942	-8.954449834854838	2.61835176024347	1.972471014421648e-05	-0.7462680649751136	0.7472543004823244	-0.2427983539094651	-0.8828451882845187	0.5620915032679739
2303.741455078125	-2.573978808025257	-8.913032317677118	2.538709606136902	-0.6920190921089346	-0.767029229479686	1.501763669969354	-0.2427983539094651	-0.8828451882845187	0.5620915032679739
2307.647705078125	-2.855044216794103	-8.736744911733586	2.433602211235279	1.045639558463334	-1.088033798320727	0.3664781525828305	-0.2427983539094651	-0.8828451882845187	0.5620915032679739
2311.553955078125	-2.784260284567877	-8.729058759818022	2.333684257143219	-1.053151855212545	-0.4047288840145853	0.7506696922919297	-0.2427983539094651	-0.8828451882845187	0.5620915032679739
2315.460205078125	-2.64367150269807	-8.811594714251415	2.442074458351358	-1.429358523589938	-1.162283740782325	0.3657356531582145	-0.2510288065843622	-0.8953974895397488	0.5555555555555556
2319.366455078125	-2.391976550598296	-8.894624756799274	2.723268188573246	-0.6844772082945072	-0.3936686446070442	1.505497275818081	-0.2510288065843622	-0.8953974895397488	0.5555555555555556
2323.272705078125	-2.564387032011787	-8.963955726431234	2.516057333257311	-1.053151855212545	-0.4047288840145853	0.7506696922919297	-0.2510288065843622	-0.8953974895397488	0.5555555555555556
2327.178955078125	-2.595494375120043	-9.044387006953743	2.491522675598083	-1.060693739026972	-0.7780894688872271	0.7469360864432033	-0.2510288065843622	-0.8953974895397488	0.5555555555555556
2331.085205078125	-2.613256287112118	-8.800376185959248	2.614656708638998	0.03020698467799789	0.0009062095403399367	1.509443024359554	-0.2510288065843622	-0.8953974895397488	0.5555555555555556
2334.991455078125	-2.513893045443042	-8.965062120061775	2.506405943340461	-0.3309060537154684	-0.383061509969673	1.505603347164454	-0.2510288065843622	-0.8953974895397488	0.5555555555555556
2338.897705078125	-2.322973962637502	-9.065073031426905	2.988163073448745	0.6845265200698678	-1.47200151783074	0.3626384753877304	-0.2510288065843622	-0.8953974895397488	0.5555555555555556
2342.803955078125	-2.584592103637337	-8.964260868784132	2.44513295471634	-0.3988125951105309	-2.623904676360779	0.35111944380243	-0.2695473251028807	-0.8807531380753137	0.5686274509803922
2346.710205078125	-2.373794310067129	-9.096602723884537	2.763856163129345	-1.075787369010899	-1.151676606144954	0.3658417245045882	-0.2695473251028807	-0.8807531380753137	0.5686274509803922
2350.616455078125	-2.573251316322981	-8.840283147449606	2.744374541585502	0.03020698467799789	0.0009062095403399367	1.509443024359554	-0.2695473251028807	-0.8807531380753137	0.5686274509803922
2354.522705078125	-2.635985350782505	-9.05308053279593	2.551289150155409	-0.7071225844479335	-0.7674823342498559	0.7470421577895769	-0.2695473251028807	-0.8807531380753137	0.5686274509803922
2358.428955078125	-2.695467901494915	-8.940729543430958	2.556311874116534	-0.6995807006335061	-0.3941217493772142	0.7507757636383033	-0.2695473251028807	-0.8807531380753137	0.5686274509803922
2362.335205078125	-2.536314945950247	-9.187050150580175	2.484981312708459	0.01510349233899894	0.0004531047701699683	0.7547215121797772	-0.2695473251028807	-0.8807531380753137	0.5686274509803922
2366.241455078125	-2.634374764986079	-8.892021953153357	2.498752124389441	-0.3535612922239668	-0.383741167124928	0.3735210788947885	-0.2695473251028807	-0.8807531380753137	0.5686274509803922
2370.147705078125	-2.565995596997929	-9.1248122250454	2.588806503484822	0.3686746469180378	0.01106023940754114	0.754827583526151	-0.2674897119341564	-0.8682008368200836	0.5599128540305012
2374.053955078125	-2.523776828542563	-8.943339419912869	2.638706371830042	0.01510349233899894	0.0004531047701699683	0.7547215121797772	-0.2674897119341564	-0.8682008368200836	0.5599128540305012
2377.960205078125	-2.494071927771472	-9.003152373106731	2.777426914592202	0.3762263930875373	0.01128679179262612	1.132188339616039	-0.2674897119341564	-0.8682008368200836	0.5599128540305012
2381.866455078125	-2.315831408688359	-9.360918646613642	2.710815955602637	-0.7373197067708593	-1.141522576277753	-0.3887737163288153	-0.2674897119341564	-0.8682008368200836	0.5599128540305012
2385.772705078125	-2.768551515824445	-9.178383905676824	2.887132663295289	-0.01508376762885473	-0.7467211697452836	-0.007467211697452836	-0.2674897119341564	-0.8682008368200836	0.5599128540305012
2389.678955078125	-2.545894597102011	-9.134914255655602	2.628906452357311	0.3309455031357568	-1.109474619980554	-0.01109474619980554	-0.2674897119341564	-0.8682008368200836	0.5599128540305012
2393.585205078125	-2.767369341808248	-9.060166504057118	2.590025052086133	-0.01508376762885473	-0.7467211697452836	-0.007467211697452836	-0.2674897119341564	-0.8682008368200836	0.5599128540305012
2397.491455078125	-2.657890934262122	-9.223436860555635	2.643562378942729	0.692058541529223	-0.7255069004705412	-0.007255069004705413	-0.2551440329218107	-0.8912133891213389	0.5642701525054467
2401.397705078125	-2.553256408966978	-8.860994432051324	2.733437916327967	0.3158518731518299	-1.483061757238281	-0.3921891081384206	-0.2551440329218107	-0.8912133891213389	0.5642701525054467
2405.303955078125	-2.686471254110114	-9.051165815051746	2.641789117918433	1.01545229849548	-1.835208072836181	-0.3957105712943996	-0.2551440329218107	-0.8912133891213389	0.5642701525054467
2409.210205078125	-2.628818547109953	-9.346501175641748	2.516487765847824	1.316200679308311	-3.318722934844631	-1.542621191612597	-0.2551440329218107	-0.8912133891213389	0.5642701525054467
2413.116455078125	-2.667088652270192	-9.133107651261618	2.567178781419268	1.692407347685704	-2.561168078076892	-1.157687152478882	-0.2551440329218107	-0.8912133891213389	0.5642701525054467
2417.022705078125	-2.707165361824414	-9.100374566279804	2.730030830188978	2.369372259231	-3.66026211580516	-1.546036583422203	-0.2551440329218107	-0.8912133891213389	0.5642701525054467
2420.928955078125	-2.71788980200212	-9.162717573949356	2.534887243484532	2.692756153842186	-4.396829255683242	-2.308119235953059	-0.2551440329218107	-0.8912133891213389	0.5642701525054467
2424.835205078125	-2.476410045888459	-9.257166205007506	2.663892740805892	4.137218169771122	-3.234092410130747	-1.919133376931496	-0.2427983539094651	-0.8744769874476986	0.5599128540305012
2428.741455078125	-2.88916054641538	-9.118074843558217	2.616214753368037	4.829276711300346	-3.959599310601289	-1.926388445936202	-0.2427983539094651	-0.8744769874476986	0.5599128540305012
2432.647705078125	-2.677682750184573	-9.182416432598739	2.665617502383369	5.559044671901706	-2.818303286708621	-1.914975485697275	-0.2427983539094651	-0.8744769874476986	0.5599128540305012
2436.553955078125	-2.617298918085456	-9.204639283292961	2.584302117361569	5.859812777424681	-5.048086213692185	-2.314631805533149	-0.2427983539094651	-0.8744769874476986	0.5599128540305012
2440.460205078125	-2.737379506787098	-9.091486032245204	2.5483549336229	5.460960732893862	-6.179454760102736	-3.458020962695367	-0.2510288065843622	-0.8891213389121339	0.579520697167756
2444.366455078125	-2.595286231660781	-9.023572661027538	2.553171534935046	5.814522025117828	-5.795713592977809	-3.831542041590156	-0.2510288065843622	-0.8891213389121339	0.579520697167756
2448.272705078125	-2.767854336276432	-9.108665950875459	2.789615431820736	6.190728693495222	-5.038158736210068	-3.446608002456441	-0.2510288065843622	-0.8891213389121339	0.579520697167756
2452.178955078125	-2.635753968004976	-9.029942255043013	2.845377670800123	6.190728693495222	-5.038158736210068	-3.446608002456441	-0.2448559670781893	-0.8891213389121339	0.5490196078431373
2456.085205078125	-2.696261069531424	-9.020046347081786	2.703853253768779	6.905412886467727	-4.643583882062685	-3.442662253914967	-0.2448559670781893	-0.8891213389121339	0.5490196078431373
2459.991455078125	-2.653344111122903	-8.768754546633691	2.666341962870218	6.882797097379517	-6.136799669168167	-3.080235921219984	-0.2448559670781893	-0.8891213389121339	0.5490196078431373
2463.897705078125	-2.433319297795505	-8.988495436116171	2.344423853398055	7.213732738160201	-6.873140256661164	-3.464957817660951	-0.2448559670781893	-0.8891213389121339	0.5490196078431373
2467.803955078125	-2.473483912597086	-8.964552875870183	2.638148628191632	7.582397522723166	-6.488945984766066	-3.083757384375963	-0.2674897119341564	-0.8849372384937237	0.5816993464052288
2471.710205078125	-2.573663561620937	-8.881507677245198	2.661501111834663	7.236378114313627	-6.499326567018352	-2.706502699632448	-0.2674897119341564	-0.8849372384937237	0.5816993464052288
2475.616455078125	-2.281080544637876	-8.916135271868349	2.814210713788487	6.875255213565089	-6.510160254040809	-3.08396952706871	-0.2674897119341564	-0.8849372384937237	0.5816993464052288
2479.522705078125	-2.472145125783871	-8.830674194548722	2.897381202651089	7.236378114313627	-6.499326567018352	-2.706502699632448	-0.2427983539094651	-0.8786610878661087	0.5620915032679739
2483.428955078125	-2.240994741437375	-8.947958992222317	2.742313315095723	6.882797097379517	-6.136799669168167	-3.080235921219984	-0.2427983539094651	-0.8786610878661087	0.5620915032679739
2487.335205078125	-2.394708686102396	-9.16783830720926	2.669176149293665	7.988791451068413	-4.984216853482874	-1.936634621365018	-0.2427983539094651	-0.8786610878661087	0.5620915032679739
2491.241455078125	-2.191297964525706	-9.028786351560509	2.839779015908031	7.620116804150376	-4.995277092890414	-2.691462204891168	-0.2427983539094651	-0.8786610878661087	0.5620915032679739
2495.147705078125	-2.171724396113937	-9.091631530585659	2.65501431082271	8.718559411669775	-3.842920829590206	-1.925221661126091	-0.2386831275720165	-0.903765690376569	0.5751633986928105
2499.053955078125	-2.373896360986476	-9.106807815819231	2.753243877922407	9.019317654837677	-5.699569724086213	-2.698505131203127	-0.2386831275720165	-0.903765690376569	0.5751633986928105
2502.960205078125	-2.051938845713772	-9.234288611781238	2.770291433479053	10.84751836060336	-3.03278340440578	-2.294478777440284	-0.2386831275720165	-0.903765690376569	0.5751633986928105
2506.866455078125	-2.091322417340549	-9.132241734054883	2.795201961851124	12.27689660890344	-2.616767728598568	-1.912960130116174	-0.2283950617283951	-0.903765690376569	0.5599128540305012
2510.772705078125	-2.111816464836724	-9.161444463470374	2.864243955612458	12.97648717189202	-2.595780011708911	-2.290108743513316	-0.2283950617283951	-0.903765690376569	0.5599128540305012
2514.678955078125	-1.940530564346333	-9.204571586148441	2.934507529190529	14.05981642471735	-1.070742820691315	-2.652216862169178	-0.2283950617283951	-0.903765690376569	0.5599128540305012
2518.585205078125	-2.070714194063322	-9.091621426534237	2.858045120065989	14.78958438531871	0.07055320320135235	-2.640803901930251	-0.2283950617283951	-0.903765690376569	0.5599128540305012
2522.491455078125	-2.122324678314031	-9.202164801100082	2.811597806091149	15.88801713048303	1.596043498989118	-2.248190508406335	-0.2592592592592593	-0.8765690376569036	0.579520697167756
2526.397705078125	-2.294103656513742	-9.208345449353994	2.860076034401507	16.94872073186508	2.000998935388788	-2.621499444608376	-0.2592592592592593	-0.8765690376569036	0.579520697167756
2530.303955078125	-2.275621325655386	-9.38031438372041	2.87186443119379	17.3249175378874	3.131687824644085	-2.610192555715824	-0.2592592592592593	-0.8765690376569036	0.579520697167756
2534.210205078125	-2.190267351280817	-8.925725027071534	3.046962590285131	18.05469536084383	3.899849816049196	-2.225152445235735	-0.2592592592592593	-0.8640167364016735	0.579520697167756
2538.116455078125	-2.032609795346379	-9.321585595243969	3.170160278849995	18.0396017308599	3.526262678791469	-2.60624680717435	-0.2592592592592593	-0.8640167364016735	0.579520697167756
2542.022705078125	-2.386176825082936	-9.324753215364291	3.156365217445603	19.46142823299049	3.942051802213595	-2.602088915940128	-0.2592592592592593	-0.8640167364016735	0.579520697167756
2545.928955078125	-2.084710326090982	-9.481133619199179	3.2727729834559	20.87572271366171	3.611346308275523	-2.228037480313471	-0.2592592592592593	-0.8640167364016735	0.579520697167756
2549.835205078125	-2.445160235655175	-9.162488211982112	3.103282572902929	21.59795865280372	4.006147714807992	-1.846730975682109	-0.2386831275720165	-0.8723849372384936	0.5904139433551199
2553.741455078125	-2.124599100288783	-9.42960699857526	3.295152446947138	23.01222354640973	4.794844318332591	-2.593560990778939	-0.2386831275720165	-0.8723849372384936	0.5904139433551199
2557.647705078125	-2.458887599915049	-9.525123627868558	3.175922619375099	22.66619427564512	5.157597768567862	-2.589933456276586	-0.2386831275720165	-0.8723849372384936	0.5904139433551199
2561.553955078125	-2.405158296081465	-9.202698295015084	3.202682189157119	24.45668556233867	5.957581163885085	-2.204575131757376	-0.2386831275720165	-0.8661087866108785	0.6013071895424837
2565.460205078125	-2.283564120477032	-9.164492855783937	3.226010423076741	25.13363074917382	5.604755191131932	-3.34017886318302	-0.2386831275720165	-0.8661087866108785	0.6013071895424837
2569.366455078125	-2.444832864389151	-9.129751085379732	3.347346945369951	27.29278682043033	6.788932858344253	-2.573620105378822	-0.2386831275720165	-0.8661087866108785	0.6013071895424837
2573.272705078125	-2.466848582029252	-9.31112082918777	3.348159311104158	27.60862883122709	5.67900513359353	-3.339436363758405	-0.2386831275720165	-0.8661087866108785	0.6013071895424837
2577.178955078125	-2.416454625569569	-9.322230233724596	3.348107780441913	28.34594853799796	6.820527709871282	-2.950662647429589	-0.2366255144032922	-0.8640167364016735	0.5947712418300655
2581.085205078125	-2.072686504900602	-9.288852510262156	3.333012327619705	29.76777504012853	7.236316833293409	-2.946504756195368	-0.2366255144032922	-0.8640167364016735	0.5947712418300655
2584.991455078125	-2.464633773957881	-9.089640022050679	3.278447418733645	30.10625256472365	6.873336830673053	-3.327493046787609	-0.2366255144032922	-0.8640167364016735	0.5947712418300655
2588.897705078125	-2.203251057356143	-9.21399462450319	3.48696472789825	31.21223705605747	8.399053678845902	-2.557518897173805	-0.2427983539094651	-0.8535564853556484	0.6013071895424837
2592.803955078125	-2.029845326877734	-9.045138748379426	3.547646629514272	30.81339487388173	6.894551099947796	-3.327280904094862	-0.2427983539094651	-0.8535564853556484	0.6013071895424837
2596.710205078125	-2.336172885008085	-9.374864258384198	3.295773846109498	31.88918224289263	8.046227706092749	-3.69312262859945	-0.2427983539094651	-0.8535564853556484	0.6013071895424837
2600.616455078125	-2.000264705939114	-9.117379684820486	3.453421297992514	33.7098706519091	9.220251343437871	-2.171948429961848	-0.2427983539094651	-0.8535564853556484	0.6013071895424837
2604.522705078125	-2.536237144754309	-9.179270030986398	3.263148874477885	34.42454498252653	9.98796023007281	-2.541629831661536	-0.2448559670781893	-0.8535564853556484	0.5904139433551199
2608.428955078125	-2.315752597087279	-9.353037486505661	3.499089589602835	35.1543129431279	11.12925625396548	-2.530216871422609	-0.2448559670781893	-0.8535564853556484	0.5904139433551199
2612.335205078125	-2.274237070610779	-9.241888879259729	3.585870256037977	36.5987848214119	11.91885906703042	-1.767603862159885	-0.2448559670781893	-0.8535564853556484	0.5904139433551199
2616.241455078125	-2.388769524677433	-9.584023174814005	3.486810135911516	39.08885680873896	13.11296421172486	-2.133021301278978	-0.2407407407407408	-0.8493723849372384	0.6296296296296297
2620.147705078125	-2.355436259041244	-9.280999641498155	3.552799695738721	40.13446678013707	13.1443325108668	-2.887424599419634	-0.2407407407407408	-0.8493723849372384	0.6296296296296297
2624.053955078125	-2.092854191535895	-9.285419153589475	3.636012621617289	42.27852922140966	13.95492304082139	-2.50196020355405	-0.2407407407407408	-0.8493723849372384	0.6296296296296297
2627.960205078125	-2.143450229023987	-9.294517851893623	3.635051726327201	44.05392687811928	14.38131929888089	-2.497696240973455	-0.2407407407407408	-0.8493723849372384	0.6296296296296297
2631.866455078125	-2.132754080190259	-9.235003978621808	3.547225290570038	46.18290555176301	14.4451886590902	-2.119699056805325	-0.2469135802469136	-0.8368200836820083	0.6187363834422659
2635.772705078125	-2.012366328325432	-9.317440913351286	3.625115402160293	47.55946102629689	13.36708233825159	-2.885197101145786	-0.2469135802469136	-0.8368200836820083	0.6187363834422659
2639.678955078125	-1.969940426815947	-9.115254802806758	3.726558057611705	49.02655855602418	15.27676690593446	-2.111383274336882	-0.2469135802469136	-0.8368200836820083	0.6187363834422659
2643.585205078125	-2.07062426800568	-9.082628820770003	3.757485548604676	50.47102057195311	16.43950375148695	-1.722397415315319	-0.257201646090535	-0.8242677824267781	0.6339869281045752
2647.491455078125	-2.072239905827816	-9.244192602983601	3.759492213216785	51.93810823932534	18.72232235165737	-1.322210738747577	-0.257201646090535	-0.8242677824267781	0.6339869281045752
2651.397705078125	-2.151914392898929	-9.130833229286868	3.824969497636971	52.69050185136998	20.98370013016797	-1.299596960962471	-0.257201646090535	-0.8242677824267781	0.6339869281045752
2655.303955078125	-2.150274505353384	-8.966844474732351	4.065508566563385	53.74366356893759	21.01529498169499	-1.676639503013239	-0.257201646090535	-0.8242677824267781	0.6339869281045752
2659.210205078125	-2.191774875752754	-9.076477474265211	4.130318983589818	54.84209631410192	22.54078527748276	-1.284026109489323	-0.2469135802469136	-0.8451882845188283	0.6405228758169935
2663.116455078125	-2.351742217841914	-8.911595521565125	4.136963407803932	55.57939629616263	24.42857591873562	-1.642506693642833	-0.2469135802469136	-0.8451882845188283	0.6405228758169935
2667.022705078125	-2.331856434241252	-8.943219181700966	4.044671991724055	56.59483873230305	22.966501878387	-2.411844415178394	-0.2469135802469136	-0.8451882845188283	0.6405228758169935
2670.928955078125	-2.116530004824382	-8.622697452135114	4.204265483910658	58.04683276969134	24.87573334129969	-2.392752100549267	-0.2530864197530864	-0.809623430962343	0.6535947712418301
2674.835205078125	-2.281977784404015	-9.005859248482281	3.941028673873261	59.49886625649992	25.29242867426216	-0.8791511849554916	-0.2530864197530864	-0.809623430962343	0.6535947712418301
2678.741455078125	-2.198957845907578	-8.784673479646669	4.003423212205056	61.28178607231382	26.83845358216941	-1.618407917008495	-0.2530864197530864	-0.809623430962343	0.6535947712418301
2682.647705078125	-2.410309341495629	-8.707701826330535	4.207178481935184	62.33493792752637	27.243182466184	-2.369077609300424	-0.2530864197530864	-0.809623430962343	0.6535947712418301
2686.553955078125	-2.270331854736761	-8.851367291857882	4.262001044132466	63.76431617582644	27.65919814199122	-1.987558961976315	-0.2633744855967078	-0.7824267782426778	0.6666666666666667
2690.460205078125	-2.363066838673997	-9.033956594672373	3.999418976627117	64.85521689953141	28.43819382041878	-1.225052024059963	-0.2633744855967078	-0.7824267782426778	0.6666666666666667
2694.366455078125	-2.369284871918165	-8.645658908988173	4.432913094720299	65.91592050091346	28.84314925681845	-1.598360960262004	-0.2633744855967078	-0.7824267782426778	0.6666666666666667
2698.272705078125	-2.430700327667315	-8.726598423297132	4.296938833134229	66.27703353930693	29.22711697632846	-1.594521283066904	-0.257201646090535	-0.7907949790794978	0.6644880174291939
2702.178955078125	-2.623481587149652	-8.81280517961159	4.381609773632773	68.05997307983098	30.0268738192606	-1.586523714637583	-0.257201646090535	-0.7907949790794978	0.6644880174291939
2706.085205078125	-2.732461864960747	-8.599721849610068	4.259861006041607	69.51201642899464	30.07043511973551	0.3007043511973551	-0.257201646090535	-0.7907949790794978	0.6644880174291939
2709.991455078125	-2.540076684294094	-8.553122974863921	4.254013791484571	70.55007465422327	30.10157686649237	-0.8310597030331897	-0.257201646090535	-0.7907949790794978	0.6644880174291939
2713.897705078125	-2.681563716335183	-8.56041203755866	4.252234468029423	71.29494610716361	31.2433259951552	-0.06492523061448568	-0.2736625514403292	-0.7656903765690376	0.69281045751634
2717.803955078125	-2.854418776011175	-8.674200833440766	4.648856881678962	73.09298914002665	32.04353594285752	0.6977938499946129	-0.2736625514403292	-0.7656903765690376	0.69281045751634
2721.710205078125	-2.769906469119932	-8.303778225124553	4.486404953345503	73.41638289699291	30.93383477049188	0.3093383477049188	-0.2736625514403292	-0.7656903765690376	0.69281045751634
2725.616455078125	-2.832748616929656	-8.527386945490797	4.222070843323841	73.8001413115398	31.6916161796447	1.071633142928523	-0.2695473251028807	-0.7803347280334727	0.6862745098039217
2729.522705078125	-2.783330711837193	-8.636101486749535	4.560563638746173	74.845761145293	31.34985044629909	0.6908569950290286	-0.2695473251028807	-0.7803347280334727	0.6862745098039217
2733.428955078125	-2.653668451173501	-8.801188551693455	4.472797827297533	76.28268127740749	32.13922670697895	1.076109248201865	-0.2695473251028807	-0.7803347280334727	0.6862745098039217
2737.335205078125	-2.701939546429738	-8.577793026812184	4.493585902690044	76.65135592432554	32.15028694638648	1.830936831728016	-0.2695473251028807	-0.7803347280334727	0.6862745098039217
2741.241455078125	-2.712840807507302	-8.657818124467587	4.550081695802558	77.72714329333644	33.30196355253143	1.465095107223428	-0.2777777777777778	-0.7405857740585774	0.7058823529411765
2745.147705078125	-2.692639777502321	-8.657917144171508	4.580581785420443	78.44937923247846	33.69676495906391	1.84640161185479	-0.2777777777777778	-0.7405857740585774	0.7058823529411765
2749.053955078125	-2.631244529856012	-8.578998440146648	4.514434602391078	79.14897965782211	33.34461864346601	1.842880148698811	-0.2777777777777778	-0.7405857740585774	0.7058823529411765
2752.960205078125	-2.592260068260344	-8.720956320983932	4.538029583268201	79.84857022081067	33.36560636035566	1.46573153530167	-0.2777777777777778	-0.7405857740585774	0.7058823529411765
2756.866455078125	-2.683642119712377	-8.768252375278092	4.676165101453114	80.57835790612219	33.76063431927322	2.224398796022921	-0.2777777777777778	-0.7405857740585774	0.7058823529411765
2760.772705078125	-2.943831547841355	-8.524568925549623	4.281706975617843	81.6541748621983	33.7929088279555	2.97943852224182	-0.2777777777777778	-0.7405857740585774	0.7058823529411765
2764.678955078125	-2.669426729768893	-8.356814391030692	4.434252891938656	80.92436745217664	34.14414893401306	1.473516961038244	-0.2777777777777778	-0.7405857740585774	0.7058823529411765
2768.585205078125	-2.88491381360335	-8.693401562355119	4.687995935261362	82.39904631513865	34.93465795661834	3.745572994660523	-0.2880658436213992	-0.7217573221757322	0.7342047930283225
2772.491455078125	-2.398949356483575	-8.581804335226119	4.698435441189011	83.113710783401	36.07550087574084	3.002264442719673	-0.2880658436213992	-0.7217573221757322	0.7342047930283225
2776.397705078125	-2.779568973493345	-8.259927652364778	4.811733180172081	83.49747906030298	36.46014825240611	4.138186388184439	-0.2880658436213992	-0.7217573221757322	0.7342047930283225
2780.303955078125	-2.671119158381825	-8.526057252323859	4.678299077113121	82.79031702643476	37.18520204810648	3.390719945009367	-0.2880658436213992	-0.7217573221757322	0.7342047930283225
2784.210205078125	-2.740524897994297	-8.395924142863974	4.421485412563728	86.02527032905725	39.1479222889762	4.16506412855014	-0.2880658436213992	-0.7217573221757322	0.7342047930283225
2788.116455078125	-2.991244809131993	-8.215390004108411	4.801742294127503	87.45464857735733	39.56393796478341	4.546582775874249	-0.2880658436213992	-0.7217573221757322	0.7342047930283225
2792.022705078125	-2.85963347694929	-8.185569917151126	5.016670623918406	86.38637350509562	39.90502404097377	3.795276655504078	-0.2880658436213992	-0.7217573221757322	0.7342047930283225
2795.928955078125	-2.810588411354242	-8.331568408151462	4.656325796488987	87.10106756042322	39.9264648626336	4.172849554286714	-0.3209876543209877	-0.6820083682008368	0.7559912854030502
2799.835205078125	-2.951766259421864	-8.30793907349951	4.716701545346968	87.49237772113962	40.6844728241715	5.312505105600206	-0.3209876543209877	-0.6820083682008368	0.7559912854030502
2803.741455078125	-2.74088157100944	-8.431591444378297	4.894445955505335	87.4923481340744	41.80387492163418	4.19162365487672	-0.3209876543209877	-0.6820083682008368	0.7559912854030502
2807.647705078125	-2.830752056368967	-8.327730889421961	4.999750379409658	87.17652584798778	42.16753458140979	5.704694213738627	-0.3209876543209877	-0.6820083682008368	0.7559912854030502
2811.553955078125	-2.567463715669326	-8.261523082084073	5.076400723890619	88.2447516084741	43.6921186676572	4.587864582902988	-0.3209876543209877	-0.6820083682008368	0.7559912854030502
2815.460205078125	-2.72763010757147	-8.116546110682346	5.112350938844714	89.00473641610854	44.46118686860266	6.482347717742631	-0.3209876543209877	-0.6820083682008368	0.7559912854030502
2819.366455078125	-2.82749349978586	-8.001875231111232	5.268601000416278	89.38847510594529	45.9652363427306	6.49738821248391	-0.3209876543209877	-0.6820083682008368	0.7559912854030502
2823.272705078125	-3.231075584053831	-7.9560432538679	5.004230515809502	90.11825292890171	46.73339833413571	6.882428322964	-0.3333333333333334	-0.6234309623430961	0.7799564270152506
2827.178955078125	-3.219252833486718	-7.783869207257649	5.073563506251746	90.80276958661652	45.63453084879253	6.871439648110568	-0.3333333333333334	-0.6234309623430961	0.7799564270152506
2831.085205078125	-3.094706254057219	-7.450423385519851	5.333905505557174	91.53256713428308	45.65642477522253	8.003734059072981	-0.3333333333333334	-0.6234309623430961	0.7799564270152506
2834.991455078125	-2.945656339527895	-7.696947084102619	5.222059718763227	91.17900584205911	45.27268360809759	8.377255137967769	-0.3333333333333334	-0.6234309623430961	0.7799564270152506
2838.897705078125	-2.995447084117774	-7.625516492585482	5.194830310590155	91.57784802423487	46.77718618699571	9.147017144888826	-0.3333333333333334	-0.6234309623430961	0.7799564270152506
2842.803955078125	-3.007659851069718	-7.836692177678816	5.26495747947405	89.84773125747702	47.47155134070939	10.28603626812408	-0.3333333333333334	-0.6234309623430961	0.7799564270152506
2846.710205078125	-3.145634714837045	-7.492764412997404	5.038349876646205	92.00688732873355	48.65572900792171	11.05259502592827	-0.3333333333333334	-0.6234309623430961	0.7799564270152506
2850.616455078125	-3.348998957777201	-7.627168504992731	5.33262633264734	92.7064877540772	48.30358269232381	11.0490735627723	-0.345679012345679	-0.608786610878661	0.7973856209150327
2854.522705078125	-3.227146118456403	-7.563096694125135	4.912806027341503	91.28467111430167	47.51465953641412	11.41854282177924	-0.345679012345679	-0.608786610878661	0.7973856209150327
2858.428955078125	-3.236102349635523	-7.448618801936152	5.231571672770475	95.21168295845339	48.75187287681331	12.1856319363153	-0.345679012345679	-0.608786610878661	0.7973856209150327
2862.335205078125	-3.700573468573638	-7.431084231101037	5.045985508304668	93.76726039194475	46.09659990131058	13.29115467825839	-0.345679012345679	-0.608786610878661	0.7973856209150327
2866.241455078125	-3.607559612817196	-7.220607746366001	5.067540481199994	93.40614735355128	45.71263218180057	13.28731500106329	-0.345679012345679	-0.608786610878661	0.7973856209150327
2870.147705078125	-3.242248644114606	-7.053147239743407	5.372495909147442	93.44388635968862	46.4600330087011	14.42686448103041	-0.345679012345679	-0.608786610878661	0.7973856209150327
2874.053955078125	-3.302569831094917	-7.024659877168483	5.070286762376082	91.33001117838388	46.39661675326196	14.80358880904205	-0.345679012345679	-0.608786610878661	0.7973856209150327
2877.960205078125	-3.194272587159847	-7.306046594772504	5.431037772672606	92.77448305666789	47.1862195663269	15.56620181830478	-0.3662551440329219	-0.5794979079497907	0.8300653594771242
2881.866455078125	-3.323038618462542	-7.051336593728855	5.391980561906711	93.53445800194726	48.32842179975992	17.08705780290326	-0.3662551440329219	-0.5794979079497907	0.8300653594771242
2885.772705078125	-3.102983492980882	-7.268046267785191	5.3732446193577	93.58728077571347	49.82254379640573	18.23407449456783	-0.3662551440329219	-0.5794979079497907	0.8300653594771242
2889.678955078125	-3.506232143551977	-7.188870920854249	5.413574940602577	92.85752267746719	48.30811374002551	18.59628868457007	-0.3662551440329219	-0.5794979079497907	0.8300653594771242
2893.585205078125	-3.483553600138693	-6.941218599727812	5.981739897648587	93.62505923127111	49.07740849335605	20.8681325754996	-0.3847736625514404	-0.5292887029288702	0.8496732026143792
2897.491455078125	-3.300597520257639	-6.827428793440564	5.605420564923376	94.35483705422754	49.84557048476115	21.25317268597969	-0.3847736625514404	-0.5292887029288702	0.8496732026143792
2901.397705078125	-3.747662389813678	-7.08947130460006	5.779766982589033	95.06954097191019	49.49387727393343	22.00437273500349	-0.3847736625514404	-0.5292887029288702	0.8496732026143792
2905.303955078125	-3.465783604905481	-7.184421096608667	5.939454442453846	94.34731489512326	48.72594183491341	21.99669338061329	-0.3950617283950618	-0.502092050209205	0.8562091503267975
2909.210205078125	-3.69817779798184	-7.191517171921275	5.775159535141291	96.52913606724334	49.53766512679341	24.26896155692831	-0.3950617283950618	-0.502092050209205	0.8562091503267975
2913.116455078125	-3.445768489446637	-7.203111570926284	6.130639261811746	96.88269735946731	49.92140629391835	23.89544047803352	-0.3950617283950618	-0.502092050209205	0.8562091503267975
2917.022705078125	-3.625128537427139	-6.957298187158377	6.110833300217306	98.37245999005818	51.45863648626891	26.17496372335326	-0.3950617283950618	-0.502092050209205	0.8562091503267975
2920.928955078125	-3.888253192493769	-7.007137431195074	5.651164636919351	99.47844448139199	52.98435333444176	26.94493787296706	-0.4074074074074074	-0.4958158995815899	0.8540305010893247
2924.835205078125	-4.311470479887174	-6.90462374629309	5.965189461421828	100.9078523167573	52.2809669127863	28.44733797101466	-0.4074074074074074	-0.4958158995815899	0.8540305010893247
2928.741455078125	-4.196930952984525	-6.561782167139381	6.134992087163692	100.8927784114835	51.16111171055346	28.81349790955837	-0.4074074074074074	-0.4958158995815899	0.8540305010893247
2932.647705078125	-4.036052225457237	-6.635525576026668	6.153115724196621	100.9078917661776	50.78843078283607	29.9418465719793	-0.425925925925926	-0.4748953974895397	0.8496732026143792
2936.553955078125	-4.055143830616248	-6.524484071725793	6.107971832855024	100.5694339662926	50.40514272048132	31.07008916305387	-0.425925925925926	-0.4748953974895397	0.8496732026143792
2940.460205078125	-4.357197374995733	-6.426808206643939	6.180542161372392	99.86230151948961	50.01079441871902	31.44350417060229	-0.425925925925926	-0.4748953974895397	0.8496732026143792
2944.366455078125	-4.143183461858383	-6.237538105030222	6.343660957099603	99.14763705122726	48.86995149959652	32.18681272254314	-0.425925925925926	-0.4748953974895397	0.8496732026143792
2948.272705078125	-4.405744310855749	-6.230996742140597	6.472675548067242	98.77899199137443	47.73948916272631	32.55286658974047	-0.425925925925926	-0.4393305439330544	0.8562091503267975
2952.178955078125	-4.48805595534761	-6.381353110518591	6.423930572799383	98.3801793962639	45.11558448636553	32.9039860335429	-0.425925925925926	-0.4393305439330544	0.8562091503267975
2956.085205078125	-4.375629185596986	-6.249787246567278	6.674057376118697	98.01910580729073	43.23908063690529	34.39465495731245	-0.425925925925926	-0.4393305439330544	0.8562091503267975
2959.991455078125	-4.052462215369251	-6.25632254702605	6.666861270697026	98.05684481342807	43.98648146380583	35.53420443727957	-0.4547325102880659	-0.4142259414225941	0.8758169934640524
2963.897705078125	-4.326381028568387	-6.375476594212435	6.324831046872382	97.71082540501853	43.97610088155353	35.91145912202308	-0.4547325102880659	-0.4142259414225941	0.8758169934640524
2967.803955078125	-4.555718746090049	-6.076925114055292	6.428374334614114	98.0644261466628	42.86730591872825	37.03244664409294	-0.4547325102880659	-0.4142259414225941	0.8758169934640524
2971.710205078125	-4.140665532244398	-5.985745143631669	6.27546770365759	98.02674631465587	39.88110089690237	38.1346600655728	-0.4547325102880659	-0.4142259414225941	0.8758169934640524
2975.616455078125	-4.282857827074637	-6.063560485241412	6.29035703383082	97.66564313861747	39.12399914490479	38.50444753861886	-0.462962962962963	-0.3912133891213389	0.888888888888889
2979.522705078125	-4.171762771301233	-6.065166019012127	6.351993768306079	96.57476213962265	37.59873540150211	38.48919490118484	-0.462962962962963	-0.3912133891213389	0.888888888888889
2983.428955078125	-4.273250894984037	-6.112968286282455	6.419295844412805	95.48388114062782	36.07347165809944	38.47394226375081	-0.462962962962963	-0.3912133891213389	0.888888888888889
2987.335205078125	-4.169626774830942	-5.851566371983019	6.504109252036379	95.51408812530582	36.07437786763978	39.98338528811036	-0.4670781893004116	-0.3640167364016736	0.8801742919389979
2991.241455078125	-4.302840609568936	-6.041636714469238	6.422566525857618	94.09226162317523	35.65858874421765	39.97922739687614	-0.4670781893004116	-0.3640167364016736	0.8801742919389979
2995.147705078125	-4.100146265237958	-5.974222483391745	6.498671251561873	94.09981336934473	35.65881529660273	40.35658815296603	-0.4670781893004116	-0.3640167364016736	0.8801742919389979
2999.053955078125	-4.228494999216987	-5.677782749981484	6.593017831700676	93.75380382329027	35.27530068186289	41.10746998795071	-0.4670781893004116	-0.3640167364016736	0.8801742919389979
3002.960205078125	-4.322615248603971	-5.99889859777086	6.616424877221378	94.48359150860178	35.67032864078045	41.86613724867196	-0.4794238683127572	-0.3326359832635983	0.8845315904139435
3006.866455078125	-3.916003969720139	-5.741811113427971	6.875769606651604	93.76890731562926	35.27575378663306	41.86219150013049	-0.4794238683127572	-0.3326359832635983	0.8845315904139435
3010.772705078125	-3.88499867753123	-5.671584924840157	6.889691979103893	94.16019775163551	36.78002981314608	42.25459275096166	-0.4794238683127572	-0.3326359832635983	0.8845315904139435
3014.678955078125	-4.259968108986664	-5.794790696646157	6.950489066906109	94.88998543694701	37.17505777206363	43.0132600116829	-0.5	-0.3368200836820083	0.917211328976035
3018.585205078125	-4.219490268591048	-5.787410697488632	6.75934365334875	96.32690556906154	37.96443403274349	43.39851226485574	-0.5	-0.3368200836820083	0.917211328976035
3022.491455078125	-4.398623985819732	-5.518964238538832	6.983095851245166	96.34953122050482	39.08451578736142	43.40971308240192	-0.5	-0.3368200836820083	0.917211328976035
3026.397705078125	-4.733012515555062	-5.624483878738411	6.873465882927732	96.71065412125336	39.09534947438387	43.78717990983818	-0.5	-0.3368200836820083	0.917211328976035
3030.303955078125	-4.580941489651011	-5.568896439848597	6.675745763111061	95.22844323683199	37.5583458344184	41.88501742060834	-0.5082304526748972	-0.2866108786610879	0.9063180827886711
3034.210205078125	-4.476796000444619	-5.255357620219445	6.924787391307815	96.65784120984222	37.22809344525049	43.01379036841477	-0.5082304526748972	-0.2866108786610879	0.9063180827886711
3038.116455078125	-4.728450536338712	-5.168285957103392	7.047836550316798	96.30427991761825	36.84435227812557	43.38731144730956	-0.5082304526748972	-0.2866108786610879	0.9063180827886711
3042.022705078125	-4.657863633115184	-5.180302705457779	6.997436531426263	96.3118119390776	37.59084689548576	43.01741790291712	-0.5164609053497943	-0.2531380753138075	0.9215686274509804
3045.928955078125	-4.494530631497859	-5.008618705341419	7.320785374579568	96.65030918838286	36.48159882789029	43.38368391280721	-0.5164609053497943	-0.2531380753138075	0.9215686274509804
3049.835205078125	-4.959001750435973	-4.991084134506306	7.13519921011376	96.23638323857826	34.2303750792469	42.6064546941887	-0.5164609053497943	-0.2531380753138075	0.9215686274509804
3053.741455078125	-4.403047539531622	-4.951218599626771	7.183156069370821	95.86017657020086	33.47282022247916	42.22152065505498	-0.5164609053497943	-0.2531380753138075	0.9215686274509804
3057.647705078125	-4.968491475530096	-4.929955633817497	7.16846376820029	95.12286672578507	31.95816361371385	42.20637408896733	-0.5267489711934157	-0.2405857740585774	0.9106753812636167
3061.553955078125	-4.897814646248926	-4.932979776407649	7.007403167747433	95.09269919052737	30.46472127422329	42.19143966557242	-0.5267489711934157	-0.2405857740585774	0.9106753812636167
3065.460205078125	-4.787119710911773	-4.974597353803496	7.107439339241113	93.58788237937287	27.06136781466477	41.02533065927873	-0.5267489711934157	-0.2405857740585774	0.9106753812636167
3069.366455078125	-4.553132108926404	-4.808160387589797	7.04739399286458	93.25700591272262	25.55890420723243	43.65181545716667	-0.5390946502057614	-0.202928870292887	0.9346405228758171
3073.272705078125	-4.703924972325761	-4.735931576010441	6.897982353294403	92.90340517107836	26.66769917005772	42.53082793509681	-0.5390946502057614	-0.202928870292887	0.9346405228758171
3077.178955078125	-4.794207702983245	-4.673295550849695	6.920413347447886	92.54983401649932	26.65709203542035	42.53072186375044	-0.5390946502057614	-0.202928870292887	0.9346405228758171
3081.085205078125	-4.598773119597888	-4.321756404233231	7.111661822329735	91.8577754749701	27.3825989358909	42.53797693275514	-0.5390946502057614	-0.202928870292887	0.9346405228758171
3084.991455078125	-4.932350294004153	-4.346140511526293	7.036399774513948	90.76689447597526	25.85733519248821	42.52272429532111	-0.54320987654321	-0.1841004184100418	0.8997821350762528
3088.897705078125	-4.91216340967116	-4.347654098429083	6.925414852901027	90.04467826154341	24.71626572098063	42.88867209117208	-0.54320987654321	-0.1841004184100418	0.8997821350762528
3092.803955078125	-4.729784271126215	-4.291558425752819	6.839134337011199	88.6153098755984	23.92711601268586	42.88078059408912	-0.54320987654321	-0.1841004184100418	0.8997821350762528
3096.710205078125	-4.831666452814419	-4.378766493563049	7.005472283520978	87.91571931260984	23.90612829579621	43.25792920748627	-0.565843621399177	-0.1401673640167364	0.9128540305010894
3100.616455078125	-4.831306748583849	-4.342796070506112	6.562829957271686	87.23874453870945	25.37835636601204	43.27265148818842	-0.565843621399177	-0.1401673640167364	0.9128540305010894
3104.522705078125	-5.193422816227281	-4.190766471212887	6.900143609893246	86.1553856988189	24.9727212724571	42.5138781561208	-0.565843621399177	-0.1401673640167364	0.9128540305010894
3108.428955078125	-5.001753002401198	-4.215704280523792	6.80990432665687	85.37280482680642	21.96416921943106	41.72907565445846	-0.565843621399177	-0.1401673640167364	0.9128540305010894
3112.335205078125	-4.908234954478874	-3.954808579200522	6.823884292202257	86.06487323069071	20.86552828647296	42.09544773569492	-0.5596707818930041	-0.1338912133891213	0.917211328976035
3116.241455078125	-4.849871932663854	-4.179112458304497	6.732444647657128	84.68829803144669	22.68990267228669	42.11369147955306	-0.5596707818930041	-0.1338912133891213	0.917211328976035
3120.147705078125	-4.725331415665207	-3.846272879651928	6.932150213577924	84.3120913630693	21.93234781551894	41.72875744041934	-0.5596707818930041	-0.1338912133891213	0.917211328976035
3124.053955078125	-4.999129990652439	-3.953403105647932	6.78264157511411	83.60495891626628	21.53799951375665	42.10217244796776	-0.5576131687242799	-0.102510460251046	0.9128540305010894
3127.960205078125	-5.188999262515392	-3.748411100023937	6.70008339176759	83.22121036407448	20.40708407211626	41.71350480298532	-0.5576131687242799	-0.102510460251046	0.9128540305010894
3131.866455078125	-5.13736250773099	-3.635240672088764	7.009288583742496	82.13031950272459	19.25495436120114	41.32462501531013	-0.5576131687242799	-0.102510460251046	0.9128540305010894
3135.772705078125	-5.087090810293495	-3.658575978844381	6.796503323257878	80.33226660750645	18.82787844598639	40.18827878445987	-0.5576131687242799	-0.102510460251046	0.9128540305010894
3139.678955078125	-5.106385506886059	-3.567843617898685	6.740240933733176	79.63266618216281	19.18002476158429	40.19180024761584	-0.5720164609053499	-0.06903765690376569	0.9128540305010894
3143.585205078125	-4.805432293706265	-3.77555260294965	6.773269057016466	78.97079490060145	20.65270593657028	40.96124404049778	-0.5720164609053499	-0.06903765690376569	0.9128540305010894
3147.491455078125	-4.725561788037593	-3.86931011689064	6.648167765163982	77.87989417689646	19.87371025814272	40.19873710258143	-0.5720164609053499	-0.06903765690376569	0.9128540305010894
3151.397705078125	-4.965106618304231	-3.58136890113015	6.680371397851361	77.87234243072696	19.87348370575763	39.82137634649154	-0.5617283950617284	-0.05439330543933054	0.9324618736383443
3155.303955078125	-5.246522637657369	-3.44014255361571	7.108860979275975	78.24854909910435	20.63103856252537	40.20631038562526	-0.5617283950617284	-0.05439330543933054	0.9324618736383443
3159.210205078125	-5.206852110970251	-3.513493925307882	6.923771934140056	78.21082981767715	19.13736967064972	39.81401520614046	-0.5617283950617284	-0.05439330543933054	0.9324618736383443
3163.116455078125	-5.067470763245192	-3.716773294216106	7.076617940788057	78.18820416623386	18.01728791603179	39.80281438859429	-0.5617283950617284	-0.05439330543933054	0.9324618736383443
3167.022705078125	-5.298047237471005	-3.54209748447414	6.911328794815725	75.71320608418058	17.9430379735702	39.80207188916967	-0.5884773662551441	-0.03138075313807531	0.9302832244008715
3170.928955078125	-5.224850457765565	-3.29312658463733	6.702287085382398	76.0516836087757	17.58005797094984	39.42108359857743	-0.5884773662551441	-0.03138075313807531	0.9302832244008715
3174.835205078125	-5.183097486080684	-3.158233456553251	7.143792705846885	76.05169347113078	17.20692393846228	39.79471074881859	-0.5884773662551441	-0.03138075313807531	0.9302832244008715
3178.741455078125	-5.415185526399002	-3.134714256061783	7.011334654155144	74.96834449359531	16.4281548124198	39.40956456699212	-0.5637860082304528	-0.0104602510460251	0.9150326797385622
3182.647705078125	-5.573938361507421	-2.848381605287434	7.044265778544798	74.62232508518576	16.41777423016752	39.78681925173564	-0.5637860082304528	-0.0104602510460251	0.9150326797385622
3186.553955078125	-5.315399935380551	-3.257165255226672	7.087018040915165	73.1929468368857	16.0017585543603	39.40530060441153	-0.5637860082304528	-0.0104602510460251	0.9150326797385622
3190.460205078125	-5.292475863517748	-2.98496008914845	7.080655519735684	70.98850987567739	13.6968194753748	37.49545876079149	-0.5637860082304528	-0.0104602510460251	0.9150326797385622
3194.366455078125	-5.424296349564856	-3.035695562546145	6.793972258377045	71.39491366637772	14.82841457417044	39.0162086740436	-0.5740740740740741	0.02092050209205021	0.917211328976035
3198.272705078125	-5.584433439717881	-2.887788416232478	7.122998568023521	69.957963947198	15.15844041095325	37.51007497014727	-0.5740740740740741	0.02092050209205021	0.917211328976035
3202.178955078125	-5.421745076581183	-2.780568264178831	7.0592793885505	69.55913162737731	13.28080379956759	37.11394011346738	-0.5740740740740741	0.02092050209205021	0.917211328976035
3206.085205078125	-5.197943368832807	-2.622619711563484	7.140121903965822	69.18292495899992	12.52324894279985	36.72900607433366	-0.5740740740740741	0.02092050209205021	0.917211328976035
3209.991455078125	-5.180901875707012	-2.938672419186055	6.882065441091709	68.87462483201757	14.00653725242321	37.49855593856197	-0.5740740740740741	0.02092050209205021	0.917211328976035
3213.897705078125	-5.421318685611239	-2.737929167184374	7.283637829532145	68.83687596352515	13.63227045801023	35.98537930835369	-0.5740740740740741	0.02092050209205021	0.917211328976035
3217.803955078125	-5.521311409683811	-2.636191473431483	7.156411655665933	67.75353684834475	12.48036729948019	35.97386027676839	-0.5740740740740741	0.02092050209205021	0.917211328976035
3221.710205078125	-5.430613402512945	-2.657299847254024	7.247172307955605	66.68529136314829	11.70205127820788	36.34343560712171	-0.5617283950617284	0.0711297071129707	0.9128540305010894
3225.616455078125	-5.600190707908132	-2.44331321505551	7.094559704895417	64.88723846793017	11.27497536299313	35.20708937627144	-0.5617283950617284	0.0711297071129707	0.9128540305010894
3229.522705078125	-5.50998779925687	-2.51393144083844	7.283850014611975	64.16500252878816	10.88017395646066	34.82578287164008	-0.5617283950617284	0.0711297071129707	0.9128540305010894
3233.428955078125	-5.712375990829806	-2.550730396111857	7.239582144528534	63.05148601599499	8.60796249092761	34.42570226641871	-0.5617283950617284	0.0711297071129707	0.9128540305010894
3237.335205078125	-5.380535702862724	-2.700034932736977	7.114223199364828	63.01379632163299	5.994891501589289	35.15428853765741	-0.5617283950617284	0.0711297071129707	0.9128540305010894
3241.241455078125	-5.538195279607446	-2.304376445592952	6.970813366338421	63.02888995161692	6.368478638847015	35.53538289959602	-0.5617283950617284	0.0711297071129707	0.9128540305010894
3245.147705078125	-5.39720334608596	-2.346597234858602	7.071122347220454	61.95308285789587	5.963070097677176	35.15397032361828	-0.5617283950617284	0.0711297071129707	0.9128540305010894
3249.053955078125	-5.426908246857052	-2.286784281664741	6.932401804458294	61.62215707947026	6.326276652682616	35.91231937030042	-0.5802469135802469	0.0899581589958159	0.9193899782135078
3252.960205078125	-5.599184344386651	-2.342676862907453	7.059197545733994	60.90748274885283	5.558567766047674	36.2820007720001	-0.5802469135802469	0.0899581589958159	0.9193899782135078
3256.866455078125	-5.294914981530654	-2.218770880338012	6.927021397076885	59.83922740130129	5.153385777262919	36.27794895211225	-0.5802469135802469	0.0899581589958159	0.9193899782135078
3260.772705078125	-5.333503364310639	-2.037205117932417	6.824602690258254	57.34159380544966	4.332188112670953	35.8923784849003	-0.5802469135802469	0.0899581589958159	0.9193899782135078
3264.678955078125	-5.515676380206605	-2.072688525710886	6.952319921023502	56.25071280645484	2.806924369268272	35.87712584746627	-0.5802469135802469	0.0899581589958159	0.9193899782135078
3268.585205078125	-5.475082343219653	-2.053688867419801	6.913271803903886	54.46023138211636	1.633806941463491	35.86539467318822	-0.5802469135802469	0.0899581589958159	0.9193899782135078
3272.491455078125	-5.678371816179298	-2.180615961363967	6.945296594881121	53.35424689078253	0.1080900932906403	35.09542052357442	-0.5802469135802469	0.0899581589958159	0.9193899782135078
3276.397705078125	-5.426286847694691	-2.224644365428742	7.08703016577687	52.6471243063346	-0.6593922409592157	35.842462681364	-0.5884773662551441	0.1276150627615063	0.9193899782135078
3280.303955078125	-5.453876970503476	-1.953353616004074	6.888197589898803	51.15736167574374	-2.196622433309777	33.56293943604426	-0.5884773662551441	0.1276150627615063	0.9193899782135078
3284.210205078125	-5.414107424112437	-2.016803017304169	6.683402613277507	51.54113981500078	-2.185109089132066	35.07248853175019	-0.5884773662551441	0.1276150627615063	0.9193899782135078
3288.116455078125	-5.282662808778171	-2.003654615190688	7.251031045193089	50.45779083746531	-2.963878215174548	34.68734234992373	-0.5884773662551441	0.1276150627615063	0.9193899782135078
3292.022705078125	-4.897781302879237	-1.899342409135858	7.340903551362901	49.03595447297965	-3.006533306109118	34.30955730844835	-0.5884773662551441	0.1276150627615063	0.9193899782135078
3295.928955078125	-5.279133463616994	-1.650720099073054	7.198005993743512	48.32883188853172	-3.774015640358974	35.05659946623792	-0.5884773662551441	0.1276150627615063	0.9193899782135078
3299.835205078125	-5.188574892355732	-1.685772063855868	6.904229688287691	46.31303078387975	-0.1031463899164432	36.6027421210065	-0.5884773662551441	0.1276150627615063	0.9193899782135078
3303.741455078125	-5.368923116565157	-1.538776302980329	7.101695186008565	47.66693101990514	-1.181932367910309	34.70516180839637	-0.5864197530864198	0.1631799163179916	0.8932461873638345
3307.647705078125	-5.107445421880067	-1.65363309709758	7.250082274764705	47.61415755791429	-4.541724526993915	35.42628086793761	-0.5864197530864198	0.1631799163179916	0.8932461873638345
3311.553955078125	-5.238948640712572	-1.672641849034944	7.106402663565371	46.13948855730735	-5.70536758208675	33.52785198455649	-0.5864197530864198	0.1631799163179916	0.8932461873638345
3315.460205078125	-5.149094321835318	-1.778119052218556	6.8394010839687	45.07125293446595	-6.856817635846619	34.27105446515097	-0.5864197530864198	0.1631799163179916	0.8932461873638345
3319.366455078125	-4.918215736472033	-1.922583748213263	6.996102796638759	44.73276554751577	-6.120703600738707	34.27841560550205	-0.5864197530864198	0.1631799163179916	0.8932461873638345
3323.272705078125	-4.914557059452673	-1.556716046277405	7.226553980626957	44.06333265742983	-4.27511494565024	34.29687149205294	-0.5864197530864198	0.1631799163179916	0.8932461873638345
3327.178955078125	-5.0945112256567	-1.370314484861964	7.32498360794478	44.39425843585544	-4.63832150065568	33.5385224453708	-0.5864197530864198	0.1631799163179916	0.8932461873638345
3331.085205078125	-5.116864418614247	-1.585431760414431	6.980670878904248	44.40182004438001	-5.011228980758153	34.28951035170186	-0.5781893004115227	0.1945606694560669	0.9041394335511983
3334.991455078125	-4.66086453638707	-1.439988992242221	7.285432309064423	44.7704749665879	-4.253900676375498	34.29708363474568	-0.5781893004115227	0.1945606694560669	0.9041394335511983
