Time Stamp	Accelerometer X	Accelerometer Y	Accelerometer Z	Gyroscope X	Gyroscope Y	Gyroscope Z	Magnetometer X	Magnetometer Y	Magnetometer Z
1844.757080078125	-2.198757327773816	-8.695184143893979	2.528794001871412	-50.24278686482106	-29.21754563033524	-21.93570186372688	0.03004291845493562	-1.033482142857143	0.3968253968253969
1848.663330078125	-2.098047220317954	-8.665888214665509	2.661864888938252	-51.96472878754248	24.42247163606309	-0.2043826014639984	-0.0536480686695279	-0.9776785714285714	0.5374149659863946
1852.569580078125	-2.350831585921282	-8.824976532625636	2.430097367638422	2.738434626296079	59.27607784695837	-2.336553237022799	-0.0536480686695279	-0.9776785714285714	0.5374149659863946
1856.475830078125	-1.962363041958091	-8.667245056449108	2.358753175400933	32.74844619824012	84.86171749623198	0.8854884396499644	-0.0536480686695279	-0.9776785714285714	0.5374149659863946
1860.382080078125	-2.157328631458905	-8.70569944095814	2.467557023441502	37.5012299303272	108.6095917043714	5.779036595231895	-0.0536480686695279	-0.9776785714285714	0.5374149659863946
1864.288330078125	-2.338467834146523	-8.552372897416113	2.214130353427761	33.68730521377505	128.034944627702	9.465339104041647	-0.09012875536480687	-0.96875	0.5283446712018141
1868.194580078125	-2.320049459360867	-8.603062131669018	2.413109201392789	29.17040384021267	140.840281549447	11.04550885843209	-0.09012875536480687	-0.96875	0.5283446712018141
1872.100830078125	-2.258002375060221	-8.795601794431219	2.330849750919986	21.65858121410431	3.621685448400785	11.54803390648873	-0.09012875536480687	-0.96875	0.5283446712018141
1876.007080078125	-2.443313319950008	-8.591728482962118	2.494597301123284	21.01450274994901	-0.3560362309589495	11.57492955399922	-0.08583690987124463	-0.984375	0.546485260770975
1879.913330078125	-2.093241130875357	-8.595229204852863	2.181255944678526	19.55467251036962	5.415346775947592	10.76859465870691	-0.08583690987124463	-0.984375	0.546485260770975
1883.819580078125	-2.290020872675226	-8.472049286222743	2.471475022624616	16.72257702916129	7.161628639691188	8.895928779366171	-0.08583690987124463	-0.984375	0.546485260770975
1887.725830078125	-2.095099727885525	-8.191170214842359	2.367115645695318	14.59400945958845	8.55742076802885	7.400550585828028	-0.08583690987124463	-0.984375	0.546485260770975
1891.632080078125	-2.174961142943522	-8.28128069160087	2.189991845372635	13.17941443398772	9.98274360113996	6.638580996553247	-0.07939914163090128	-0.9821428571428571	0.5351473922902494
1895.538330078125	-2.318390863550706	-8.67378578833419	2.247249620376717	12.45499725767896	9.573192456187131	5.549051473829119	-0.07939914163090128	-0.9821428571428571	0.5351473922902494
1899.444580078125	-2.469982290518356	-8.429845631640273	2.10026986816219	11.72681048020532	9.525812992383921	4.455824842270196	-0.07939914163090128	-0.9821428571428571	0.5351473922902494
1903.350830078125	-2.584231914379323	-8.28728899398752	2.300742458340547	10.99194867155994	8.736241407251708	3.010174401085301	-0.0815450643776824	-0.9754464285714285	0.5532879818594104
1907.257080078125	-2.438121369606387	-7.985719796404947	1.975402266761158	11.31673687537806	9.077480922728528	2.653545539791067	-0.0815450643776824	-0.9754464285714285	0.5532879818594104
1911.163330078125	-2.367183281640197	-8.1783483692038	2.024450612999288	11.63108044685954	9.038699998025963	1.940795760036068	-0.0815450643776824	-0.9754464285714285	0.5532879818594104
1915.069580078125	-2.368312581345288	-8.148034045903719	2.137380583508404	10.54967699856473	8.614383500686408	0.4845619351802579	-0.0815450643776824	-0.9754464285714285	0.5532879818594104
1918.975830078125	-2.60223008462355	-8.095189820365887	2.059743156232593	10.85648136771644	9.299945938283082	-0.2355820622443295	-0.08798283261802575	-0.9642857142857142	0.5374149659863946
1922.882080078125	-2.36703782622201	-7.915723561131721	2.009905071180582	10.14541425375118	10.37477903598826	-0.6202639657165137	-0.08798283261802575	-0.9642857142857142	0.5374149659863946
1926.788330078125	-2.256064989698534	-7.815823188486855	2.137111214751395	10.46352742639755	9.973826430136072	-1.329316636636719	-0.08798283261802575	-0.9642857142857142	0.5374149659863946
1930.694580078125	-2.336522367928271	-7.754412554098496	2.019583731602576	9.388799009274493	10.29170205412552	-2.433126651866557	-0.07081545064377683	-0.9553571428571428	0.5510204081632654
1934.600830078125	-2.603664436664006	-7.89315527482528	2.20317836027816	9.003384270285387	10.24123918367927	-3.519467008589359	-0.07081545064377683	-0.9553571428571428	0.5510204081632654
1938.507080078125	-2.583209686023732	-7.802450731422592	2.198519622781312	8.97409163212431	11.67207714924799	-3.894073471224095	-0.07081545064377683	-0.9553571428571428	0.5510204081632654
1942.413330078125	-2.63284049298194	-7.761550382948969	2.059559502275587	7.910672018495913	10.90343772978858	-4.986792159949551	-0.07081545064377683	-0.9553571428571428	0.5510204081632654
1946.319580078125	-2.50868369774226	-7.914307102416519	1.888777937491373	8.238365652320894	12.34904104774402	-4.994694320452606	-0.09227467811158799	-0.9754464285714285	0.5555555555555556
1950.225830078125	-2.436357722660869	-7.894828341965312	1.799037572209355	6.835079430214825	12.68784883740627	-5.745572583223004	-0.09227467811158799	-0.9754464285714285	0.5555555555555556
1954.132080078125	-2.02009292863838	-7.757576848491395	2.009292863837992	5.770795645428402	13.3857449015751	-6.493261679992075	-0.09227467811158799	-0.9754464285714285	0.5555555555555556
1958.038330078125	-2.611793819598209	-7.983983071905029	1.995708490433173	5.756581411926877	13.36789614254534	-6.853079707287636	-0.08583690987124463	-0.9732142857142857	0.5532879818594104
1961.944580078125	-2.744211311691288	-7.871547785872988	1.972151577292066	4.681852994803816	13.68577176653478	-7.956889722517474	-0.08583690987124463	-0.9732142857142857	0.5532879818594104
1965.850830078125	-2.650901289864552	-7.801773815384185	1.824822864006242	3.961205419659952	12.91404894043234	-9.042722136406809	-0.08583690987124463	-0.9732142857142857	0.5532879818594104
1969.757080078125	-2.671867154682623	-7.882372237544084	1.880593019282709	3.264352539196222	14.00673079716727	-9.067586012583432	-0.08583690987124463	-0.9732142857142857	0.5532879818594104
1973.663330078125	-2.794379495611131	-7.608419841407527	1.886929152949892	2.92158050071169	14.00981420381031	-9.074472287419553	-0.08369098712446352	-0.9732142857142857	0.564625850340136
1977.569580078125	-2.782062208761626	-7.931775337508345	1.675608631264651	2.182949090901413	13.58241429982772	-10.52381983743924	-0.08369098712446352	-0.9732142857142857	0.564625850340136
1981.475830078125	-3.030680851576348	-7.959592181383227	2.047676994369532	0.4377550014688389	12.45777001250477	-11.62661396700215	-0.08369098712446352	-0.9732142857142857	0.564625850340136
1985.382080078125	-3.274236837752505	-8.007661672026517	1.913479693617803	0.4235407679673142	12.43992125347501	-11.98643199429771	-0.08583690987124463	-0.9642857142857142	0.5600907029478458
1989.288330078125	-3.121495908938348	-7.978886051011628	1.945509261181727	-0.9788812829807273	11.31219355950902	-13.08233984902449	-0.08583690987124463	-0.9642857142857142	0.5600907029478458
1993.194580078125	-3.346795137460167	-7.97663305872641	2.026452521526921	-2.017642030770962	10.94142333925875	-13.45911959199362	-0.08583690987124463	-0.9642857142857142	0.5600907029478458
1997.100830078125	-3.232092985631507	-8.200002302466919	1.780727134579258	-2.734520004749939	9.807528832006687	-14.54125489704816	-0.08583690987124463	-0.9642857142857142	0.5600907029478458
2001.007080078125	-3.273188346613073	-8.239995389261143	1.808630579674635	-3.779955783711923	8.69456649042742	-15.27045844964326	-0.09442060085836909	-0.9598214285714285	0.5555555555555556
2004.913330078125	-3.193132990997493	-7.968068670090028	1.966360324239043	-4.486389125354261	7.940692423354734	-15.99647283623704	-0.09442060085836909	-0.9598214285714285	0.5555555555555556
2008.819580078125	-3.23372733887197	-8.169682928631483	1.944162458625546	-6.270456314126522	6.400330177792878	-18.17502393885183	-0.09442060085836909	-0.9598214285714285	0.5555555555555556
2012.725830078125	-3.374413608675014	-8.420801318458706	1.72707515321571	-7.312122491923618	4.925196155063992	-18.90053038261214	-0.07725321888412018	-0.9888392857142857	0.5600907029478458
2016.632080078125	-3.538310201207321	-8.378758312129342	1.790203794201533	-7.651124929243263	4.566107880557412	-18.90371954861346	-0.07725321888412018	-0.9888392857142857	0.5600907029478458
2020.538330078125	-3.191421869619654	-8.463035276253299	1.795248186455106	-9.063991612527943	3.058359746412041	-20.35574832180101	-0.07725321888412018	-0.9888392857142857	0.5600907029478458
2024.444580078125	-3.54112031907813	-8.409033241253665	2.071215581282356	-9.780869586506919	1.924465239159973	-21.43788362685555	-0.07725321888412018	-0.9888392857142857	0.5600907029478458
2028.350830078125	-3.661376080810598	-8.52904280484846	1.851893795345457	-11.53650830827613	0.4198005116576407	-22.89679867487922	-0.07939914163090128	-0.984375	0.5487528344671202
2032.257080078125	-3.610266477100821	-8.509351880683539	1.842974240694342	-11.87928034676066	0.4228839183006801	-22.90368494971534	-0.07939914163090128	-0.984375	0.5487528344671202
2036.163330078125	-3.559078085039526	-8.620974875715262	1.826175850891428	-12.56772985373659	-0.6753130708918622	-23.26618420017876	-0.07939914163090128	-0.984375	0.5487528344671202
2040.069580078125	-3.559102327609224	-8.580570592885525	1.828600107861212	-13.6273798662001	-1.806124171500891	-24.35520578006943	-0.06652360515021459	-0.9821428571428571	0.54421768707483
2043.975830078125	-3.711758407429438	-8.750761203804496	1.788085640903044	-14.33004360667755	-2.922169919723196	-25.07752305782841	-0.06652360515021459	-0.9821428571428571	0.54421768707483
2047.882080078125	-3.499416873639976	-8.540763407021178	1.982503690528225	-15.02226271481836	-3.658195227766119	-25.44371941712662	-0.06652360515021459	-0.9821428571428571	0.54421768707483
2051.788330078125	-3.487861207521811	-8.773202196005592	1.847345241977039	-16.41047053226488	-4.768074162702345	-26.17980924455784	-0.06652360515021459	-0.9821428571428571	0.54421768707483
2055.694580078125	-3.101542171405162	-8.736661345962718	1.990951834393752	-16.38204206526183	-4.732376644642819	-25.46017318996672	-0.03862660944206009	-0.9776785714285714	0.5283446712018141
2059.600830078125	-3.284265221979705	-8.805541186164044	1.895909953072582	-17.09601460923394	-4.761907349416266	-26.19358179423008	-0.03862660944206009	-0.9776785714285714	0.5283446712018141
2063.507080078125	-3.356144729735828	-8.895731481995574	1.941003585827741	-17.7635748515366	-5.100063458250045	-25.84383920777197	-0.03862660944206009	-0.9776785714285714	0.5283446712018141
2067.413330078125	-3.784102564438104	-8.739936752133399	1.879644198912401	-17.74936061803507	-5.082214699220282	-25.48402118047641	-0.07296137339055794	-0.9888392857142857	0.546485260770975
2071.319580078125	-3.559587179003181	-8.782585946391789	1.877085247256897	-18.09880768769136	-5.821323413906244	-25.84333126493851	-0.07296137339055794	-0.9888392857142857	0.546485260770975
2075.225830078125	-3.066917597547639	-8.858219712913415	1.589718938437317	-19.11290956964343	-5.794224434947363	-25.50417206215131	-0.07296137339055794	-0.9888392857142857	0.546485260770975
2079.132080078125	-3.394593610192047	-8.632720730564747	1.704258978388338	-19.44523697579132	-5.411120588124941	-25.15493741852666	-0.07296137339055794	-0.9888392857142857	0.546485260770975
2083.038330078125	-3.63102628007646	-8.933386706896206	1.878138211727642	-19.40259427528675	-5.357574311035653	-24.07548333663998	-0.0536480686695279	-0.984375	0.5396825396825397
2086.944580078125	-3.539669805324542	-8.974704312047766	1.926164205923599	-19.73869128259953	-4.612298783063613	-23.72994580185013	-0.0536480686695279	-0.984375	0.5396825396825397
2090.850830078125	-3.429159597839467	-8.945506383819586	2.099633253334462	-20.07769371991917	-4.971387057570193	-23.73313496785146	-0.0536480686695279	-0.984375	0.5396825396825397
2094.757080078125	-3.396302711355744	-8.814521821371292	1.875169094758127	-20.03968479173751	-3.089133615703045	-22.31234840284319	-0.04721030042918455	-0.9888392857142857	0.5419501133786848
2098.663330078125	-3.355348765364083	-8.87553742143727	1.861407148653158	-19.30105338192724	-2.661733711720454	-20.8630008528235	-0.04721030042918455	-0.9888392857142857	0.5419501133786848
2102.569580078125	-3.641286988929932	-8.670657837181411	1.88380093380952	-19.64382542041178	-2.658650305077414	-20.86988712765962	-0.04721030042918455	-0.9888392857142857	0.5419501133786848
2106.475830078125	-3.488560201614765	-8.955013387882845	1.917244651272484	-20.64371306886232	-2.613702567088771	-20.17090989757686	-0.04721030042918455	-0.9888392857142857	0.5419501133786848
2110.382080078125	-3.447078979732176	-8.884721129394599	1.850755116074708	-19.89463702671541	-1.806282222926797	-18.36544142909641	-0.0536480686695279	-1.006696428571429	0.54421768707483
2114.288330078125	-3.619985768564374	-8.812284990799206	1.794495223784371	-19.48746885189501	-2.462313955750024	-16.91188882740846	-0.0536480686695279	-1.006696428571429	0.54421768707483
2118.194580078125	-3.702041136180027	-8.781161406820019	1.836766679227163	-19.14469681341047	-2.465397362393063	-16.90500255257234	-0.0536480686695279	-1.006696428571429	0.54421768707483
2122.100830078125	-3.303301782292656	-8.734643749853843	1.758749657837053	-20.50447616385394	-3.539578779269764	-16.92145632541244	-0.01931330472103004	-1.002232142857143	0.5170068027210885
2126.007080078125	-3.549471925567896	-8.80288911912816	1.885968066993725	-19.41262808322249	-2.735241841750829	-15.10910158209586	-0.01931330472103004	-1.002232142857143	0.5170068027210885
2129.913330078125	-3.562296286166915	-8.81286188562318	2.147995963630287	-19.02721334423338	-2.68477897130458	-14.02276122537306	-0.01931330472103004	-1.002232142857143	0.5170068027210885
2133.819580078125	-3.419290810529444	-8.723382849470465	2.133162685597429	-19.36621578155303	-3.04386724581116	-14.02595039137439	-0.01931330472103004	-1.002232142857143	0.5170068027210885
2137.725830078125	-3.347855749884448	-8.734198210177924	2.132513763954982	-19.99867252568088	-2.604133715256411	-12.60414794069918	-0.04291845493562232	-0.9955357142857142	0.5124716553287982
2141.632080078125	-3.334253606840957	-8.673728171002301	1.792707622871176	-19.29977838636832	-1.125916285884487	-11.885527771775	-0.04291845493562232	-0.9955357142857142	0.5124716553287982
2145.538330078125	-3.265499370361714	-8.593607632559008	2.060141117804036	-19.26758031820038	-1.452390448974581	-11.16219460834908	-0.04291845493562232	-0.9955357142857142	0.5124716553287982
2149.444580078125	-3.406577561708207	-8.864924123372818	1.882245966739045	-19.22203218768895	-0.2944803694066717	-9.734013825671223	-0.02789699570815451	-0.9933035714285714	0.5215419501133787
2153.350830078125	-3.246575942040686	-8.644301917347271	2.208614612231892	-18.85460128336625	0.1003054231594339	-9.011188605078775	-0.02789699570815451	-0.9933035714285714	0.5215419501133787
2157.257080078125	-3.632133357425995	-8.771759474506549	1.988845946681123	-19.89713163232137	0.09170688405878891	-9.3916654568827	-0.02789699570815451	-0.9933035714285714	0.5215419501133787
2161.163330078125	-3.354981086390332	-8.814935037620947	1.824639251278097	-19.17648405717751	0.8634297101612374	-8.305833042993365	-0.02789699570815451	-0.9933035714285714	0.5215419501133787
2165.069580078125	-3.479970209856303	-8.621765954467095	2.078653638691571	-19.17648405717751	0.8634297101612374	-8.305833042993365	-0.0128755364806867	-1.002232142857143	0.5079365079365079
2168.975830078125	-3.468279189390659	-8.743094985883875	1.929959755392423	-19.14805559017446	0.899127228220763	-7.586196988402244	-0.0128755364806867	-1.002232142857143	0.5079365079365079
2172.882080078125	-3.393724918111207	-8.733739518495657	1.617389770304402	-19.1233967243363	1.296996427429908	-6.870258042645918	-0.0128755364806867	-1.002232142857143	0.5079365079365079
2176.788330078125	-3.559944756906224	-8.691673279703666	1.912843037561215	-18.73798198534719	1.347459297876157	-5.783917685923116	-0.01931330472103004	-1	0.5102040816326531
2180.694580078125	-3.736603083399165	-8.932330938862979	2.231736911344989	-18.43117761619549	2.03302173547283	-6.504061683347703	-0.01931330472103004	-1	0.5102040816326531
2184.600830078125	-3.58333487869408	-8.772247459293869	2.211038889816106	-19.11962712317141	0.9348247462802884	-6.866560933811123	-0.01931330472103004	-1	0.5102040816326531
2188.507080078125	-3.60483003961722	-8.812436548088677	2.319738655599529	-19.11585752200653	0.572653065130669	-6.86286382497633	-0.01931330472103004	-1	0.5102040816326531
2192.413330078125	-3.561700322995176	-8.96438299677005	2.088399646456424	-18.07042174304454	1.685615406709935	-6.133660272381228	-0.02360515021459227	-1.006696428571429	0.5147392290249433
2196.319580078125	-3.509818997483352	-8.884093729217087	2.002307911600511	-18.08463597654606	1.667766647680172	-6.493478299676788	-0.02360515021459227	-1.006696428571429	0.5147392290249433
2200.225830078125	-3.592987503090964	-8.681241842140809	2.155893166239229	-18.08086637538118	1.305594966530553	-6.489781190841994	-0.02360515021459227	-1.006696428571429	0.5147392290249433
2204.132080078125	-3.480782335941181	-8.783373994822409	2.159866247179343	-17.71720507222337	2.062552440246277	-5.77065307908434	-0.0128755364806867	-1.017857142857143	0.5056689342403629
2208.038330078125	-3.644917313742184	-8.680722544034296	2.24683341503471	-17.40286150074189	2.023771515543713	-6.48340285883934	-0.0128755364806867	-1.017857142857143	0.5056689342403629
2211.944580078125	-3.395898668527447	-8.814525861799574	1.83476481192839	-17.38864726724036	2.041620274573476	-6.12358483154378	-0.0128755364806867	-1.017857142857143	0.5056689342403629
2215.850830078125	-3.520778700429778	-8.803176051379543	2.077870042977834	-17.0534144310856	2.762880230229675	-6.124092774377247	-0.0128755364806867	-1.017857142857143	0.5056689342403629
2219.757080078125	-3.490166271857247	-8.803482175665268	2.07785167552069	-16.70396736142932	3.501988944915637	-5.764782689915153	-0.03218884120171674	-0.9955357142857142	0.4920634920634921
2223.663330078125	-3.5107806194147	-8.964892193805856	2.098470104735286	-16.01174825328851	4.23801425295856	-5.398586330616939	-0.03218884120171674	-0.9955357142857142	0.4920634920634921
2227.569580078125	-3.765516511878704	-8.901738774275154	2.061855269503087	-16.3791791576112	3.843228460392454	-6.121411551209387	-0.03218884120171674	-0.9955357142857142	0.4920634920634921
2231.475830078125	-3.448493129631216	-8.884706987895608	1.992170105978789	-16.37250412643946	4.585420581721456	-5.768987741583414	-0.02145922746781116	-1.033482142857143	0.4648526077097506
2235.382080078125	-3.450357787283809	-8.975597432228174	2.178635871238027	-15.669840385962	5.701466329943761	-5.046670463824434	-0.02145922746781116	-1.033482142857143	0.4648526077097506
2239.288330078125	-3.437256657347406	-8.753506221305315	1.888931040863096	-15.35926641564541	6.024857086390815	-5.763117352414227	-0.02145922746781116	-1.033482142857143	0.4648526077097506
2243.194580078125	-3.317297867093737	-8.64359469809674	2.137949974679853	-15.00981934598913	6.763965801076777	-5.403807267952134	-0.02145922746781116	-1.033482142857143	0.4648526077097506
2247.100830078125	-3.254388151354676	-8.927052078082413	1.969427380365561	-14.64992764399621	7.883094955942122	-4.688376265029274	-0.01502145922746781	-1.004464285714286	0.4988662131519275
2251.007080078125	-3.376660086800348	-8.885425318323916	1.95172296574905	-14.31092520667656	8.242183230448703	-4.685187099027947	-0.01502145922746781	-1.004464285714286	0.4988662131519275
2254.913330078125	-3.275554017372754	-8.674315166896982	2.045197655642747	-14.66123644749087	8.969609999390981	-4.699467591533655	-0.01502145922746781	-1.004464285714286	0.4988662131519275
2258.819580078125	-3.22497775019633	-8.775831030578846	2.089611754326886	-14.31846440900634	8.966526592747941	-4.692581316697535	-0.02575107296137339	-1.024553571428571	0.4784580498866213
2262.725830078125	-3.746708235763741	-8.760512715622163	2.221843984537418	-13.63668993320216	9.322531460611481	-4.682505875860087	-0.02575107296137339	-1.024553571428571	0.4784580498866213
2266.632080078125	-3.378052014343832	-8.754098267735351	2.090915720097496	-13.63001490203041	10.06472358194048	-4.330082066234114	-0.02575107296137339	-1.024553571428571	0.4784580498866213
2270.538330078125	-3.561775070918411	-8.671452956361525	2.095874438779925	-13.61580066852889	10.08257234097024	-3.970264038938554	-0.02575107296137339	-1.024553571428571	0.4784580498866213
2274.444580078125	-3.366736753708504	-8.754211420341704	1.979797819830003	-13.26925902887947	9.717317253177587	-3.959680655267639	-0.03648068669527897	-1.002232142857143	0.4988662131519275
2278.350830078125	-3.470008492695772	-8.722875672648801	2.102890085903699	-13.23792513186956	10.85737857371573	-2.89131789988534	-0.03648068669527897	-1.002232142857143	0.4988662131519275
2282.257080078125	-3.510493749006609	-8.601258698873572	2.069783063926172	-13.60158643502736	10.10042110000001	-3.610446011642994	-0.03648068669527897	-1.002232142857143	0.4988662131519275
2286.163330078125	-3.439800106951539	-8.723177756506244	2.143276001276293	-12.54570602372874	11.59340388175866	-2.525121540587126	0.008583690987124463	-1.037946428571429	0.4807256235827664
2290.069580078125	-3.591791536319203	-8.822667943222669	2.036296489063206	-12.54193642256385	11.23123220060904	-2.521424431752332	0.008583690987124463	-1.037946428571429	0.4807256235827664
2293.975830078125	-3.581757091449578	-8.539940004843082	2.053260165365981	-12.87049422754686	11.25216436628184	-2.168492679292893	0.008583690987124463	-1.037946428571429	0.4807256235827664
2297.882080078125	-3.571235774971855	-8.731964409927052	2.021536680858923	-12.17450551824116	11.62601799317514	-1.798599211159884	0.008583690987124463	-1.037946428571429	0.4807256235827664
2301.788330078125	-3.398322925497231	-8.814501619229876	2.077190508906814	-12.16029128473964	11.6438667522049	-1.438781183864324	-0.02145922746781116	-1.013392857142857	0.4761904761904762
2305.694580078125	-3.520716073791392	-8.570853445322694	2.071607379139225	-11.80707461391847	12.02080378574125	-1.075773990567437	-0.02145922746781116	-1.013392857142857	0.4761904761904762
2309.600830078125	-3.551886081466973	-8.65134982605402	2.127383656901406	-12.85251039288045	10.90784144416198	-1.804977543162538	-0.02145922746781116	-1.013392857142857	0.4761904761904762
2313.507080078125	-3.471693351289772	-8.945081046285084	2.271375945303704	-12.83452655821404	10.56351852204213	-1.441462407032184	-0.03648068669527897	-1.020089285714286	0.4852607709750567
2317.413330078125	-3.419575660723393	-8.753683031271557	2.161647704992394	-11.77110694458564	11.33215794150153	-0.3487437183067282	-0.03648068669527897	-1.020089285714286	0.4852607709750567
2321.319580078125	-3.427676760659616	-8.723298989969162	1.951349535349326	-11.76733734342075	10.96998626035191	-0.3450466094719342	-0.03648068669527897	-1.020089285714286	0.4852607709750567
2325.225830078125	-3.398573432050776	-8.73369103335626	2.102241164261251	-12.11678441307703	10.23087754566595	-0.7043566939340276	-0.03648068669527897	-1.020089285714286	0.4852607709750567
2329.132080078125	-3.581118703780868	-8.762168610941991	1.989421398494996	-10.73525162680227	10.59856435927318	-0.3206906761287772	-0.03648068669527897	-1.020089285714286	0.4852607709750567
2333.038330078125	-3.650561833282358	-8.872585290758087	1.790877205786839	-11.42747073494308	9.862539051230256	-0.6868870354269916	-0.03648068669527897	-1.020089285714286	0.4852607709750567
2336.944580078125	-3.397153221509311	-8.743806245562686	1.960220110114724	-11.38105843327362	9.553913647169923	0.3962641552944831	-0.03648068669527897	-1.020089285714286	0.4852607709750567
2340.850830078125	-3.459438691078652	-8.995708643392245	2.066318087457072	-11.74471973643142	8.796956173454198	-0.3228639564631705	-0.03648068669527897	-1.024553571428571	0.4784580498866213
2344.757080078125	-3.632563663038131	-8.559633959329217	2.031876507894793	-10.69174475513966	9.185575152734227	0.4137338138015191	-0.03648068669527897	-1.024553571428571	0.4784580498866213
2348.663330078125	-3.399779499893243	-8.743779982778847	2.222847948508017	-10.69174475513966	9.185575152734227	0.4137338138015191	-0.03648068669527897	-1.024553571428571	0.4784580498866213
2352.569580078125	-3.551611332343731	-8.772564694757371	2.099908744577184	-11.03742222363106	8.084294756898645	0.0581208381742197	-0.03648068669527897	-1.024553571428571	0.4784580498866213
2356.475830078125	-3.4814065821109	-8.75306472205768	2.222290864151287	-11.05540605829747	8.428617679018503	-0.3053942979561345	-0.03648068669527897	-1.024553571428571	0.4784580498866213
2360.382080078125	-3.553669930553906	-8.540220876452038	2.305768565594696	-10.01664531050723	8.799387899268766	0.07138544501299493	-0.03648068669527897	-1.024553571428571	0.4784580498866213
2364.288330078125	-3.368292318597449	-8.855205965702918	2.135354308724492	-11.38773346444537	8.811721525840921	0.04384034566851075	-0.03648068669527897	-1.024553571428571	0.4784580498866213
2368.194580078125	-3.409543236067909	-8.804288406023161	2.178813402709318	-10.69174475513966	9.185575152734227	0.4137338138015191	-0.03648068669527897	-1.013392857142857	0.4557823129251701
2372.100830078125	-3.366136750108483	-8.744116410276696	1.919797459827843	-9.995756045833961	9.559428779627531	0.7836272819345275	-0.03648068669527897	-1.013392857142857	0.4557823129251701
2376.007080078125	-3.386401600619457	-8.814620832478655	1.905466184394716	-9.985311413497325	9.939449219806914	1.139748200395294	-0.03648068669527897	-1.013392857142857	0.4557823129251701
2379.913330078125	-3.335904121794552	-8.784822776963875	1.957759118230653	-10.69928395746944	9.909918515033466	0.4063395961319312	-0.03648068669527897	-1.013392857142857	0.4557823129251701
2383.819580078125	-3.203054303875195	-8.776050265042057	1.938083448743942	-10.34229768548338	9.924683867420191	0.7730438982636125	-0.03648068669527897	-1.013392857142857	0.4557823129251701
2387.725830078125	-3.407327061154699	-8.794209557671282	1.957195911388208	-10.00997027933549	9.541580020597767	0.4238092546389672	-0.03648068669527897	-1.013392857142857	0.4557823129251701
2391.632080078125	-3.621898911356362	-8.822366869472297	1.985809502983178	-10.69551435630455	9.547746833883846	0.4100367049667252	-0.03648068669527897	-1.013392857142857	0.4557823129251701
2395.538330078125	-3.583518718180955	-8.802548651202031	2.229422838503636	-10.35651191898491	9.906835108390426	0.4132258709680522	-0.02789699570815451	-1.026785714285714	0.4716553287981859
2399.444580078125	-3.408830100475964	-8.81439654748009	2.107499843514832	-9.999525646998849	9.921600460777151	0.7799301730997336	-0.02789699570815451	-1.026785714285714	0.4716553287981859
2403.350830078125	-3.480188392983584	-8.763177914049963	2.100471951419629	-9.313981570029785	9.915433647491072	0.7937027227719756	-0.02789699570815451	-1.026785714285714	0.4716553287981859
2407.257080078125	-3.59400165058999	-8.842847862281982	2.25730791614187	-10.02041491167212	9.161559580418386	0.06768833617820097	-0.02789699570815451	-1.026785714285714	0.4716553287981859
2411.163330078125	-3.481651028022021	-8.682355206891497	2.246735455263278	-8.992098796218526	9.152309360489268	0.08834716068656412	-0.02789699570815451	-1.026785714285714	0.4716553287981859
2415.069580078125	-3.305513916777584	-9.088156982044348	1.979963106329865	-9.684317904359339	8.416284052446345	-0.2778491986116503	-0.02789699570815451	-1.026785714285714	0.4716553287981859
2418.975830078125	-3.77556509824732	-8.992547379320559	2.046305743099353	-9.676778702029564	7.691940690147106	-0.2704549809420624	-0.02789699570815451	-1.026785714285714	0.4716553287981859
2422.882080078125	-3.960215433112842	-8.879589764860791	2.14399229087603	-9.076520026069648	7.578681322682451	-2.415590595043182	-0.03433476394849785	-1.029017857142857	0.4603174603174603
2426.788330078125	-3.653963873896622	-9.094773492574166	2.131081267213228	-8.669351851249239	6.922649589859224	-0.9620379933552318	-0.03433476394849785	-1.029017857142857	0.4603174603174603
2430.694580078125	-3.748354710289054	-9.215041705422363	2.386491437068598	-9.033877325565074	7.632227599771739	-1.336136513156501	-0.03433476394849785	-1.029017857142857	0.4603174603174603
2434.600830078125	-3.551667898339693	-9.014988371521655	2.105565344173348	-8.686471514757626	5.80043702835084	-1.67058272144197	-0.03433476394849785	-1.029017857142857	0.4603174603174603
2438.507080078125	-3.625104991198902	-9.034456020795083	2.306417487237144	-7.990482805451922	6.174290655244143	-1.300689253308962	-0.03433476394849785	-1.029017857142857	0.4603174603174603
2442.413330078125	-3.580369204334377	-9.337933681694032	1.914471453845833	-8.004697038953447	6.156441896214381	-1.660507280604522	-0.03433476394849785	-1.029017857142857	0.4603174603174603
2446.319580078125	-3.56226194252651	-9.206801622998979	2.144561599589759	-8.011372070125196	5.414249774885379	-2.012931090230495	-0.03433476394849785	-1.029017857142857	0.4603174603174603
2450.225830078125	-3.520158494688342	-9.500151950406654	2.015849468834187	-7.668600031640663	5.41116636824234	-2.006044815394374	-0.02575107296137339	-1.026785714285714	0.4671201814058957
2454.132080078125	-3.744702163121245	-9.073664089479902	2.021236720287772	-6.67625158551989	6.090561992552936	-2.712416263146719	-0.02575107296137339	-1.026785714285714	0.4671201814058957
2458.038330078125	-3.469396367810901	-9.238033309049166	2.041677597416646	-6.65449814968859	5.38406738928346	-2.345204018181571	-0.02575107296137339	-1.026785714285714	0.4671201814058957
2461.944580078125	-3.543310231207501	-9.136284069405098	2.290206794219533	-6.659131922011505	7.212774554061319	-2.00387153505998	-0.02575107296137339	-1.026785714285714	0.4671201814058957
2465.850830078125	-3.846622378847858	-9.274665089342836	2.009176660295996	-5.966048642712663	6.482264378476001	-1.98270476771815	-0.02575107296137339	-1.026785714285714	0.4671201814058957
2469.757080078125	-3.548415353571899	-9.217041098989535	1.780310867393962	-5.280504565743597	6.476097565189924	-1.968932218045908	-0.02575107296137339	-1.026785714285714	0.4671201814058957
2473.663330078125	-3.478966163427984	-9.116725489880874	1.978248995859673	-5.284274166908486	6.838269246339543	-1.972629326880702	-0.02575107296137339	-1.026785714285714	0.4671201814058957
2477.569580078125	-3.5237160917915	-9.126379000698249	2.371609179150025	-4.255958051454888	6.829019026410425	-1.951970502372339	-0.0407725321888412	-1.022321428571429	0.4625850340136055
2481.475830078125	-3.295002701370568	-9.431696437632761	1.94924972889355	-4.584515856437896	6.849951192083227	-1.5990387499129	-0.0407725321888412	-1.022321428571429	0.4625850340136055
2485.382080078125	-3.374791388719472	-9.13796925782998	1.764853157661515	-3.963367915804705	7.496732704977336	-3.031932527092486	-0.0407725321888412	-1.022321428571429	0.4625850340136055
2489.288330078125	-3.183825823218802	-8.998464772070845	2.056051709635346	-3.224736505994429	7.924132608959929	-1.582584977072797	-0.0407725321888412	-1.022321428571429	0.4625850340136055
2493.194580078125	-3.569451925884922	-9.348143864579537	1.843151772165633	-2.881964467509896	7.921049202316889	-1.575698702236676	-0.0407725321888412	-1.022321428571429	0.4625850340136055
2497.100830078125	-3.286144021131288	-9.209562802212933	2.083789868230861	-2.896178701011421	7.903200443287126	-1.935516729532236	-0.0407725321888412	-1.022321428571429	0.4625850340136055
2501.007080078125	-3.693685489261977	-9.235790417834654	2.021610150687497	-1.500431681235128	8.288736015924114	-1.192032684431426	-0.0407725321888412	-1.022321428571429	0.4625850340136055
2504.913330078125	-3.67276608936916	-9.246100621934595	1.97048648793645	-1.461558581895442	8.704453974163021	-0.1162757113795391	-0.04506437768240344	-1.024553571428571	0.4580498866213152
2508.819580078125	-3.602175478235306	-9.19630147754088	2.054282517408154	-0.4654405346097811	9.021677917323998	-0.8189500502970903	-0.04506437768240344	-1.024553571428571	0.4580498866213152
2512.725830078125	-3.408440199146658	-9.127531759624697	2.068509710584135	-0.1226684961252484	9.018594510680959	-0.8120637754609693	-0.04506437768240344	-1.024553571428571	0.4580498866213152
2516.632080078125	-3.590605670618151	-9.115609094808972	1.917709918957927	0.9189976816718477	10.49372853340984	-0.0865573317006615	-0.03218884120171674	-1.029017857142857	0.4603174603174603
2520.538330078125	-3.427296960401016	-9.187949252618214	1.913369509489372	0.9227672828367356	10.13155685226022	-0.08286022286586754	-0.03218884120171674	-1.029017857142857	0.4603174603174603
2524.444580078125	-3.378383329463036	-9.380357580846786	2.12404723201788	1.26176972015638	10.4906451267668	-0.07967105686454046	-0.03218884120171674	-1.029017857142857	0.4603174603174603
2528.350830078125	-3.397767366608322	-9.067032427344019	2.021634620015925	1.975742264128495	10.52017583154025	0.6537375473988221	-0.03218884120171674	-1.029017857142857	0.4603174603174603
2532.257080078125	-3.477135849415797	-9.136945813223015	1.795217594640963	2.996519177252318	11.23526897391037	0.6670021542375973	-0.02575107296137339	-1.013392857142857	0.4421768707482993
2536.163330078125	-3.672374167825712	-9.225902520948008	1.931294333591605	3.328846583400214	10.85216512708795	0.3177675106129521	-0.02575107296137339	-1.013392857142857	0.4421768707482993
2540.069580078125	-3.60314518102322	-9.0952816795029	2.151252796199524	4.035279925042553	11.60603919416064	1.043781897206727	-0.02575107296137339	-1.013392857142857	0.4421768707482993
2543.975830078125	-3.63261618860581	-9.145492019932124	2.037129064662659	4.363837730025561	11.58510702848783	0.6908501447472876	-0.04506437768240344	-1.008928571428571	0.453514739229025
2547.882080078125	-3.407419991005207	-8.976026810190959	1.966488896439048	5.752045547472077	12.69498596342406	1.42693997217851	-0.04506437768240344	-1.008928571428571	0.453514739229025
2551.788330078125	-3.293275418279597	-9.280198558948518	1.776521419796423	6.451803857942667	12.70666790916774	1.800530549146313	-0.04506437768240344	-1.008928571428571	0.453514739229025
2555.694580078125	-3.377215645689256	-9.13794501526028	2.007278854639939	5.737831313970553	12.6771372043943	1.06712194488295	-0.04506437768240344	-1.008928571428571	0.453514739229025
2559.600830078125	-3.550896176537644	-9.45944053318412	2.028393163968549	6.766147429424151	12.66788698446518	1.087780769391313	-0.03433476394849785	-1.017857142857143	0.4716553287981859
2563.507080078125	-3.281457124323039	-9.108599570170913	1.615100187405907	7.807813607221247	14.14302100719406	1.813287213151621	-0.03433476394849785	-1.017857142857143	0.4716553287981859
2567.413330078125	-3.438816262664635	-9.016116887878406	2.044891572585882	8.836129722674846	14.13377078726495	1.833946037659984	-0.03433476394849785	-1.017857142857143	0.4716553287981859
2571.319580078125	-3.510059402966189	-9.156818597889531	2.026348459884205	8.836129722674846	14.13377078726495	1.833946037659984	-0.04506437768240344	-1.013392857142857	0.4625850340136055
2575.225830078125	-3.467127667330011	-9.147146905144883	1.814807549327671	8.836129722674846	14.13377078726495	1.833946037659984	-0.04506437768240344	-1.013392857142857	0.4625850340136055
2579.132080078125	-3.58003384878689	-9.055108752421223	1.880935899097151	9.867351268135303	15.22888436981445	2.203331562959526	-0.04506437768240344	-1.013392857142857	0.4625850340136055
2583.038330078125	-3.49654210891664	-9.45998407386033	1.695027218194643	10.55289534510437	15.22271755652837	2.217104112631768	-0.04506437768240344	-1.013392857142857	0.4625850340136055
2586.944580078125	-3.621983760350305	-9.186002384618723	1.994294402377423	10.88812818125913	15.94397751218457	2.216596169798301	-0.04291845493562232	-1.033482142857143	0.453514739229025
2590.850830078125	-3.316823116770488	-9.098144900145428	2.090474942354911	11.23090021974366	15.94089410554153	2.223482444634422	-0.04291845493562232	-1.033482142857143	0.453514739229025
2594.757080078125	-3.498047168452048	-9.308453871749824	1.845533171735415	11.54147419006025	16.26428486198859	1.507035556044629	-0.04291845493562232	-1.033482142857143	0.453514739229025
2598.663330078125	-3.346484024482379	-9.168555361775379	1.995341223748023	12.25167713286748	16.65598724791165	2.236747051473197	-0.03862660944206009	-1.020089285714286	0.4625850340136055
2602.569580078125	-3.631941437082554	-9.428327050275641	1.969653912336997	11.54147419006025	16.26428486198859	1.507035556044629	-0.03862660944206009	-1.020089285714286	0.4625850340136055
2606.475830078125	-3.352251777085184	-9.491730007481676	1.551708320763221	11.87003199504326	16.24335269631579	1.15410380358519	-0.03862660944206009	-1.020089285714286	0.4625850340136055
2610.382080078125	-3.702194672454779	-9.367018457315856	1.852120306702463	12.88326970583731	17.68278920098514	1.159974192754377	-0.03862660944206009	-1.020089285714286	0.4625850340136055
2614.288330078125	-3.816577630449085	-9.507288769150056	2.065926310214634	13.2155971119852	17.29968535416272	0.8107395491297316	-0.03648068669527897	-1.020089285714286	0.4739229024943311
2618.194580078125	-3.404918965898046	-9.440698285088496	1.716386385722974	12.89748393933883	17.7006379600149	1.519792220049937	-0.03648068669527897	-1.020089285714286	0.4739229024943311
2622.100830078125	-3.702069419178008	-9.407423750252667	1.839594979025245	13.56881378280637	17.67662238769907	1.173746742426619	-0.03648068669527897	-1.020089285714286	0.4739229024943311
2626.007080078125	-3.519922129633788	-9.389043202946088	1.992212963378791	13.92203045362754	18.05355942123541	1.536753935723506	-0.06008583690987124	-1.026785714285714	0.4580498866213152
2629.913330078125	-3.435598061537246	-9.329280383020993	1.723071459847024	13.91449125129777	18.77790278353465	1.529359718053918	-0.06008583690987124	-1.026785714285714	0.4580498866213152
2633.819580078125	-3.486410693768224	-9.338873266799695	1.702293866618282	13.5612745804766	18.40096574999831	1.166352524757031	-0.06008583690987124	-1.026785714285714	0.4580498866213152
2637.725830078125	-3.446426450564475	-9.29886906882769	1.785502199304682	12.8652858711709	18.027112123105	0.7964590566240226	-0.06008583690987124	-1.026785714285714	0.4580498866213152
2641.632080078125	-3.598430001216989	-9.378157114129246	1.679734815576488	13.9031824478031	19.86441782698351	1.518268391549537	-0.06866952789699571	-1.022321428571429	0.4671201814058957
2645.538330078125	-3.640442539418791	-9.236322847333087	1.799355982695369	13.21096333966229	19.12839251894058	1.152072032251322	-0.06866952789699571	-1.022321428571429	0.4671201814058957
2649.444580078125	-3.364383204233672	-9.309790511392009	1.744442872346783	13.54996577698194	19.48748079344717	1.155261198252649	-0.06866952789699571	-1.022321428571429	0.4671201814058957
2653.350830078125	-3.385611696890136	-9.289376206263425	1.826475811462579	12.51497463035659	18.75453889204728	0.7821785641183137	-0.04721030042918455	-1.017857142857143	0.4784580498866213
2657.257080078125	-3.560158899605222	-9.176519623125161	1.934257307460976	13.57839424398498	19.52317831150669	1.87489725284377	-0.04721030042918455	-1.017857142857143	0.4784580498866213
2661.163330078125	-3.355696242196418	-9.13816020929521	1.896154831886732	13.57839424398498	19.52317831150669	1.87489725284377	-0.04721030042918455	-1.017857142857143	0.4784580498866213
2665.069580078125	-3.295014822655417	-8.906443791167385	1.950461857378442	12.88240553467928	19.14932468461338	1.505003784710761	-0.04721030042918455	-1.017857142857143	0.4784580498866213
2668.975830078125	-3.439084951145452	-8.905003089882486	2.071760420667657	12.89661976818081	19.16717344364314	1.864821812006321	-0.04721030042918455	-1.011160714285714	0.4625850340136055
2672.882080078125	-3.315144318818912	-8.865838455801711	1.922595147197352	13.22431340200579	20.61277676159858	1.856919651503267	-0.04721030042918455	-1.011160714285714	0.4625850340136055
2676.788330078125	-3.357807365974272	-8.986623946542281	2.10726720967211	12.91083400168233	19.18502220267291	2.224639839301882	-0.04721030042918455	-1.011160714285714	0.4625850340136055
2680.694580078125	-3.293938048518005	-9.017565670019872	1.842784443637192	11.86830365272721	19.17642366357226	1.844162987497958	-0.05150214592274678	-1.029017857142857	0.4739229024943311
2684.600830078125	-3.672226692193383	-8.629944399744735	1.916546770358751	12.92881783634874	18.84069928055305	2.588154975432236	-0.05150214592274678	-1.029017857142857	0.4739229024943311
2688.507080078125	-3.477281304833984	-8.894520116244591	1.809763136459668	11.86916782388524	17.70988817994402	1.499133395541574	-0.05150214592274678	-1.029017857142857	0.4739229024943311
2692.413330078125	-3.538774850459864	-8.782794069677221	1.836668719455731	12.58314036785735	17.73941888471747	2.232541999804937	-0.05150214592274678	-1.029017857142857	0.4739229024943311
2696.319580078125	-3.572522651379982	-8.439022248233677	2.150224321671637	11.90513549321806	17.02124233570431	2.226163667802282	-0.04506437768240344	-1.013392857142857	0.4829931972789116
2700.225830078125	-3.396888573456776	-8.511485659719979	1.933755304861246	11.92311932788447	16.67691941358445	2.589678803932637	-0.04506437768240344	-1.013392857142857	0.4829931972789116
2704.132080078125	-3.519495864449934	-8.247633324183786	1.949586444993418	11.58121146055797	15.21346733659925	2.237762937140131	-0.04506437768240344	-1.013392857142857	0.4829931972789116
2708.038330078125	-3.51896050770244	-8.298143728256312	1.896050770244016	11.2497482255681	14.13003569979344	2.241967988808392	-0.06437768240343347	-0.9977678571428571	0.4920634920634921
2711.944580078125	-3.620240315546202	-8.388040021086963	1.819949921967106	11.2497482255681	14.13003569979344	2.241967988808392	-0.06437768240343347	-0.9977678571428571	0.4920634920634921
2715.850830078125	-3.581361129477847	-8.358125782644617	2.013663968192839	10.19763741543437	12.27488123688517	1.160340626587318	-0.06437768240343347	-0.9977678571428571	0.4920634920634921
2719.757080078125	-3.436666754818092	-8.389875756694245	1.829940787931679	10.55839328858531	11.92747490812227	1.530742037553793	-0.06437768240343347	-0.9977678571428571	0.4920634920634921
2723.663330078125	-3.722899929648599	-8.36681140474392	1.881829699553749	10.22316045243056	11.20621495246607	1.53124998038726	-0.07081545064377683	-1.03125	0.4829931972789116
2727.569580078125	-3.529609097671078	-8.399047343366725	1.940501603842441	9.524266313117991	9.727997523094148	0.8126298114630731	-0.07081545064377683	-1.03125	0.4829931972789116
2731.475830078125	-3.54186779831048	-8.510035867471442	2.145963504517371	8.843356008471842	7.905457171602367	0.4575247786692405	-0.07081545064377683	-1.03125	0.4829931972789116
2735.382080078125	-3.620379710321964	-8.66076589986648	1.833889399543365	9.518455453104268	7.519269918136906	0.1151764098807164	-0.06437768240343347	-1.011160714285714	0.4829931972789116
2739.288330078125	-3.518728183076169	-8.348651102007624	1.872818307616917	8.830005946128344	6.421072928944365	-0.2473228405827041	-0.06437768240343347	-1.011160714285714	0.4829931972789116
2743.194580078125	-3.568278181468718	-8.105731359599456	1.725777330545245	8.480558876472061	5.681964214258402	-0.6066329250447975	-0.06437768240343347	-1.011160714285714	0.4829931972789116
2747.100830078125	-3.762504372593748	-8.366415360314468	1.760641341007395	7.05347795968586	4.156367321083268	-2.418479725527907	-0.06437768240343347	-1.011160714285714	0.4829931972789116
2751.007080078125	-3.672341844399448	-8.438024056303481	1.928061990965226	7.043033327349223	3.776346880903886	-2.774600643988673	-0.07939914163090128	-0.9955357142857142	0.4897959183673469
2754.913330078125	-3.516861505209435	-8.429477849594374	1.68615052094353	7.410464231671916	4.171132673469991	-2.051775423396226	-0.07939914163090128	-0.9955357142857142	0.4897959183673469
2758.819580078125	-3.486251096851046	-8.258066781960784	1.686334174900535	7.011699430339311	2.63628556036574	-3.842963399370972	-0.07939914163090128	-0.9955357142857142	0.4897959183673469
2762.725830078125	-3.489374347913785	-8.439853731268338	1.998659281174405	6.319480322198497	1.900260252322817	-4.209159758669187	-0.07725321888412018	-1.011160714285714	0.5079365079365079
2766.632080078125	-3.510572537358127	-8.469944779676926	2.077661899077971	6.654713158353253	2.621520207979016	-4.209667701502654	-0.07725321888412018	-1.011160714285714	0.5079365079365079
2770.538330078125	-3.365488261369065	-8.81482996587116	1.854948585886115	6.28060722285881	1.484542294083909	-5.284916731721073	-0.07725321888412018	-1.011160714285714	0.5079365079365079
2774.444580078125	-3.445856750176576	-8.733218200175003	1.728532160514753	6.266392989357286	1.466693535054146	-5.644734759016633	-0.07725321888412018	-1.011160714285714	0.5079365079365079
2778.350830078125	-3.415036239547473	-8.743627415382306	1.707705587400294	5.535300781876786	0.3149502687723157	-7.086688091366734	-0.05150214592274678	-0.9977678571428571	0.5056689342403629
2782.257080078125	-3.580746984378835	-8.539950105913789	1.952249458291638	6.237964522354236	1.430996016994621	-6.364370813607754	-0.05150214592274678	-0.9977678571428571	0.5056689342403629
2786.163330078125	-3.416547359725305	-8.581996142564366	1.858817605183512	5.184989541062476	1.042377037714594	-7.100968583872444	-0.05150214592274678	-0.9977678571428571	0.5056689342403629
2790.069580078125	-3.437541507541356	-8.783806403106407	1.917416060258061	5.156561074059427	1.006679519655068	-7.820604638463564	-0.05793991416309013	-0.9977678571428571	0.4920634920634921
2793.975830078125	-3.781682347896602	-8.901577115914975	1.637622544762274	5.131902208221265	0.6088103204459233	-8.53654358421989	-0.05793991416309013	-0.9977678571428571	0.4920634920634921
2797.882080078125	-3.602181538877731	-8.681149901782939	2.0548885816506	5.125227177049517	-0.1333818008830782	-8.888967393845864	-0.05793991416309013	-0.9977678571428571	0.4920634920634921
2801.788330078125	-3.661355878669183	-8.731063208890077	1.849873581203969	4.075157625764617	0.5823630223155155	-9.276838463319374	-0.05793991416309013	-0.9977678571428571	0.4920634920634921
2805.694580078125	-3.660725571857039	-8.77147355236224	1.786842899989579	5.106379171225077	1.677476604865018	-8.907452938019834	-0.05579399141630902	-1.013392857142857	0.5147392290249433
2809.600830078125	-3.641339514497611	-8.751465392733813	1.889053490577386	4.04295955759668	0.9088371854056094	-10.00017162674529	-0.05579399141630902	-1.013392857142857	0.5147392290249433
2813.507080078125	-3.632365682052265	-9.226302605805742	2.012078409308222	4.731409064572606	2.007034174598152	-9.637672376281868	-0.05579399141630902	-1.013392857142857	0.5147392290249433
2817.413330078125	-3.672056994205498	-8.912774379552896	1.899576971570261	4.045864987603541	2.01320098788423	-9.65144492595411	-0.06652360515021459	-1.017857142857143	0.5034013605442177
2821.319580078125	-3.589565260335285	-9.16612454941685	1.813668890671353	4.035420355266904	1.633180547704848	-10.00756584441488	-0.06652360515021459	-1.017857142857143	0.5034013605442177
2825.225830078125	-3.957447739739005	-8.778607340784429	1.867222953492329	3.357415480627614	0.915003998691688	-10.01394417641753	-0.06652360515021459	-1.017857142857143	0.5034013605442177
2829.132080078125	-3.924996916297721	-8.980952051039045	1.68336509915988	3.697282089105287	-0.1924432104299721	-10.35578460237259	-0.06652360515021459	-1.017857142857143	0.5034013605442177
2833.038330078125	-3.69116224179926	-9.064098478592111	1.769285404415787	4.039189956431792	1.271008866555229	-10.00386873558008	-0.05150214592274678	-1	0.4988662131519275
2836.944580078125	-3.743269831294931	-9.103981443101194	1.878003537656353	4.078063055771479	1.686726824794136	-8.928111762528196	-0.05150214592274678	-1	0.4988662131519275
2840.850830078125	-3.783363166062319	-8.962166368339378	1.805704361333981	3.724846384950309	1.309789791257794	-9.291118955825084	-0.05150214592274678	-1	0.4988662131519275
2844.757080078125	-3.661980124838902	-8.700753936125349	1.912298198175914	3.063961173819405	1.713825803753017	-8.588952559740999	-0.06437768240343347	-0.9955357142857142	0.5011337868480725
2848.663330078125	-3.590240011858542	-8.883289519073335	1.881144042997015	3.417177844640574	2.090762837289359	-8.225945366444112	-0.06437768240343347	-0.9955357142857142	0.5011337868480725
2852.569580078125	-3.592480429341451	-8.852964084595477	2.105185791287908	2.396400931516752	1.375669694919239	-8.239209973282886	-0.06437768240343347	-0.9955357142857142	0.5011337868480725
2856.475830078125	-3.580498498039432	-8.954094004918597	1.927400824351349	2.763831835839447	1.770455487485344	-7.516384752690439	-0.06437768240343347	-0.9955357142857142	0.5011337868480725
2860.382080078125	-3.51714029476096	-8.974929607153403	1.714029476096049	3.498693644484835	2.560027072617555	-6.070734311505544	-0.03862660944206009	-0.9910714285714285	0.5079365079365079
2864.288330078125	-3.682743968242824	-8.781354378499392	1.947866212037512	3.152152004835415	2.925282160410214	-6.081317695176459	-0.03862660944206009	-0.9910714285714285	0.5079365079365079
2868.194580078125	-3.478446968393622	-8.803599368699905	1.926329492423461	2.837808433353932	2.964063085112779	-5.368567915421459	-0.03862660944206009	-0.9910714285714285	0.5079365079365079
2872.100830078125	-3.478303533189577	-8.874307873759015	1.911985972018904	3.229898203514788	3.75671807688803	-3.929803749072685	-0.04291845493562232	-1	0.5011337868480725
2876.007080078125	-3.540661730468012	-9.004997423099363	2.025356720270604	3.254557069352949	4.154587276097175	-3.213864803316359	-0.04291845493562232	-1	0.5011337868480725
2879.913330078125	-3.622416086176583	-8.802159677522075	2.037526985005242	3.63243260601228	4.929393508842662	-2.134918664263145	-0.04291845493562232	-1	0.5011337868480725
2883.819580078125	-3.375197451761911	-8.966248025482383	1.805459461905401	2.611655692888458	4.214300366472541	-2.14818327110192	-0.04291845493562232	-1	0.5011337868480725
2887.725830078125	-3.722186794056654	-8.881970051251354	1.810516140359263	2.315295956073387	3.90875836905525	-1.071918355216567	-0.06008583690987124	-0.9955357142857142	0.5124716553287982
2891.632080078125	-3.366027658544843	-8.925935683010513	1.908888303463814	2.696941093897606	4.321392920651117	0.01072489267144095	-0.06008583690987124	-0.9955357142857142	0.5124716553287982
2895.538330078125	-3.867085210344699	-8.678500865068271	2.01464348344944	2.03692005392473	3.258893449518101	0.3678616967991409	-0.06008583690987124	-0.9955357142857142	0.5124716553287982
2899.444580078125	-3.51958475387216	-8.772884960542088	1.95847538721596	2.757567629068594	4.03061627562055	1.453694110688476	-0.06008583690987124	-1.008928571428571	0.5102040816326531
2903.350830078125	-3.64367488204517	-8.731240018856319	2.122590245333268	2.4336435964085	2.222841276515492	1.465293380026325	-0.06008583690987124	-1.008928571428571	0.5102040816326531
2907.257080078125	-3.674580241668216	-8.579415813744937	2.151901717841971	1.755638721769211	1.504664727502332	1.45891504802367	-0.06008583690987124	-1.008928571428571	0.5102040816326531
2911.163330078125	-3.694758222971107	-8.458001912719785	2.12888352160045	1.81249565577531	1.576059763621383	2.898187157205911	-0.06008583690987124	-1.008928571428571	0.5102040816326531
2915.069580078125	-3.787769253104902	-8.689395034741679	2.246313065592267	2.201679995929305	1.264350952918013	3.988224622763507	-0.06008583690987124	-1.011160714285714	0.5079365079365079
2918.975830078125	-3.653493164001655	-8.700838805733721	2.084010277716583	1.509460887788491	0.5283256448750899	3.622028263465292	-0.06008583690987124	-1.011160714285714	0.5079365079365079
2922.882080078125	-3.358185146018731	-8.693690875812543	2.145045214117915	1.888200595605849	-0.1634036060076626	4.355944810562122	-0.06008583690987124	-1.011160714285714	0.5079365079365079
2926.788330078125	-3.521411027456064	-8.591048515988067	2.141102745606373	1.549198158286204	-0.5224918805142426	4.352755644560795	-0.05793991416309013	-0.9977678571428571	0.4852607709750567
2930.694580078125	-3.489645056608744	-8.662073246403612	2.025730150670329	1.927937866103562	-1.214221131396995	5.086672191657624	-0.05793991416309013	-0.9977678571428571	0.4852607709750567
2934.600830078125	-3.538894043094211	-8.752489847447848	1.848587982890503	1.606919263450331	-1.917632328023432	5.446998161786651	-0.05793991416309013	-0.9977678571428571	0.4852607709750567
2938.507080078125	-3.624543371667569	-8.792037394566155	2.250255534103809	0.5510388521517097	-3.41061510978208	4.361673690730783	-0.05793991416309013	-0.9977678571428571	0.4852607709750567
2942.413330078125	-3.306511902563479	-8.603298517338004	2.079761684919316	1.97898394009594	-3.351553700235185	5.828490899257508	-0.04721030042918455	-0.9977678571428571	0.5011337868480725
2946.319580078125	-3.704633070923554	-8.670024376361473	2.095960153579928	1.290534433120013	-4.449750689427728	5.465991648794088	-0.04721030042918455	-0.9977678571428571	0.5011337868480725
2950.225830078125	-3.674073167918702	-8.751138056199602	2.101194342890651	1.283859401948264	-5.191942810756729	5.113567839168116	-0.04721030042918455	-0.9977678571428571	0.5011337868480725
2954.132080078125	-3.561130622607277	-8.398732128117363	2.031429607666494	2.008276578257016	-4.7823916658039	6.203097361892245	-0.04506437768240344	-1.015625	0.5079365079365079
2958.038330078125	-3.542716288249904	-8.611037483582148	2.230812498459819	1.312287868951314	-5.156245292697204	5.833203893759237	-0.04506437768240344	-1.015625	0.5079365079365079
2961.944580078125	-3.512578610000623	-8.661843910869692	2.278269163327617	1.316057470116202	-5.518416973846824	5.83690100259403	-0.04506437768240344	-1.015625	0.5079365079365079
2965.850830078125	-3.481008599925028	-8.74296769177853	2.182492645563996	0.9732854316316693	-5.515333567203784	5.830014727757909	-0.04506437768240344	-1.015625	0.5079365079365079
2969.757080078125	-3.480871225363406	-8.803575126130205	2.168755189401885	1.316057470116202	-5.518416973846824	5.83690100259403	-0.04506437768240344	-0.9799107142857142	0.5079365079365079
2973.663330078125	-3.39981586374779	-8.683173558534239	2.226484333962694	1.658829508600735	-5.521500380489862	5.843787277430151	-0.04506437768240344	-0.9799107142857142	0.5079365079365079
2977.569580078125	-3.25640432506788	-8.765415754729121	2.17104475168595	1.637940243927461	-6.281541260848626	5.131545440508619	-0.04506437768240344	-0.9799107142857142	0.5079365079365079
2981.475830078125	-3.193670367959128	-8.755942084199198	2.020098020402594	1.295168205442928	-6.278457854205588	5.124659165672497	-0.06437768240343347	-0.9933035714285714	0.5215419501133787
2985.382080078125	-3.386462207043702	-8.713610125404312	1.911526826819176	1.991156914748631	-5.904604227312284	5.494552633805506	-0.06437768240343347	-0.9933035714285714	0.5215419501133787
2989.288330078125	-3.366421600302432	-8.774416592077786	1.948282479222808	1.648384876264098	-5.901520820669244	5.487666358969385	-0.06437768240343347	-0.9933035714285714	0.5215419501133787
2993.194580078125	-3.315714019206812	-8.926438819403892	1.979565185987282	1.983617712418855	-5.180260865013045	5.487158416135918	-0.06437768240343347	-0.9933035714285714	0.5215419501133787
2997.100830078125	-3.162807432833053	-8.837058794358539	1.995028997591013	1.612417206931273	-5.212874976429531	4.760636086708677	-0.06437768240343347	-0.9933035714285714	0.5215419501133787
3001.007080078125	-3.357130594236875	-8.936125663754602	2.0395900359323	1.982753541260828	-3.713725381384805	5.832188008092302	-0.06437768240343347	-0.9933035714285714	0.5215419501133787
3004.913330078125	-3.215793815480271	-8.927438021441157	2.191626445986258	2.32552557974536	-3.716808788027845	5.839074282928423	-0.06437768240343347	-0.9933035714285714	0.5215419501133787
3008.819580078125	-3.175421691161357	-9.028851843694449	2.236046667156111	2.311311346243836	-3.734657547057608	5.479256255632863	-0.06223175965665236	-0.9955357142857142	0.5011337868480725
3012.725830078125	-3.071893384978121	-9.151099247968402	2.087297681485533	3.332088259367658	-3.019564404687486	5.492520862471639	-0.06223175965665236	-0.9955357142857142	0.5011337868480725
3016.632080078125	-3.102053285582958	-9.231605729770436	2.04206325217337	4.052735834511522	-2.247841578585038	6.578353276360973	-0.06223175965665236	-0.9955357142857142	0.5011337868480725
3020.538330078125	-2.929071748827524	-9.091921403723848	2.090848352140206	4.030982398680221	-1.541346975315562	6.211141031395825	-0.06223175965665236	-0.9955357142857142	0.5011337868480725
3024.444580078125	-2.745920412854986	-9.063449886780543	2.143061693661855	4.383334898343364	0.3021255418490212	6.919177816649097	-0.06223175965665236	-0.9955357142857142	0.5011337868480725
3028.350830078125	-2.93944558967292	-9.314039887537616	2.10782427341441	3.690251619044522	1.032635717434338	6.898011049307267	-0.06223175965665236	-0.9955357142857142	0.5011337868480725
3032.257080078125	-2.725213135447026	-9.225273121170785	2.11315027939642	4.724378594511842	3.232113102462462	7.616123275397987	-0.06223175965665236	-0.9955357142857142	0.5011337868480725
3036.163330078125	-2.702766453663245	-9.255800618291651	1.909298427548966	5.427042334989293	4.348158850684768	8.338440553156968	-0.06652360515021459	-1	0.5170068027210885
3040.069580078125	-2.805575563612112	-9.153762426182061	1.986127789782612	5.094714928841397	4.731262697507188	8.687675196781612	-0.06652360515021459	-1	0.5170068027210885
3043.975830078125	-2.796349204399081	-9.376076911996416	2.083900031744862	4.39409244721278	6.186116235391744	8.659114211770195	-0.06652360515021459	-1	0.5170068027210885
3047.882080078125	-2.611908971804274	-9.307214243615293	2.007223711039649	5.806959130497459	7.693864369537116	10.11114298495774	-0.06652360515021459	-1	0.5170068027210885
3051.788330078125	-2.804846266307035	-9.527507092892485	1.913198059274936	6.491639036308498	9.154233039879276	10.46994512658637	-0.06652360515021459	-1	0.5170068027210885
3055.694580078125	-2.702410895974343	-9.174996093060459	1.873742658658797	6.504989098651996	10.63861728253728	11.17479274583832	-0.06652360515021459	-1	0.5170068027210885
3059.600830078125	-2.743831511432689	-9.34629905862305	1.934171551432113	6.81556306896859	10.96200803898433	10.45834585724852	-0.06652360515021459	-1	0.5170068027210885
3063.507080078125	-2.581013713251935	-9.105502994180615	1.978922345601689	8.238874384589906	12.84977661330909	12.26649554889684	-0.06437768240343347	-0.9977678571428571	0.5147392290249433
3067.413330078125	-2.561627655892508	-9.085494834552188	2.081132936189495	8.252224446933404	14.33416085596709	12.97134316814878	-0.06437768240343347	-0.9977678571428571	0.5147392290249433
3071.319580078125	-2.420525221976316	-8.854582626568119	2.256603830284702	7.912357838455731	15.44160806508875	13.31318359410384	-0.06437768240343347	-0.9977678571428571	0.5147392290249433
3075.225830078125	-2.54099310619364	-9.126105220453217	2.058494292833414	8.582823510765245	16.88412797640115	13.31216770843691	-0.06437768240343347	-0.9977678571428571	0.5147392290249433
3079.132080078125	-2.591995638553918	-9.155898225432644	2.056706712534648	9.292162282414445	18.74236584595246	14.38690879582186	-0.06437768240343347	-0.9977678571428571	0.5147392290249433
3083.038330078125	-2.500602799947453	-9.25782225482881	2.101096321275929	8.930542238105472	20.55630765834359	14.36153697681177	-0.06437768240343347	-0.9977678571428571	0.5147392290249433
3086.944580078125	-2.501604826161631	-8.934579911334344	2.201298942693677	8.919233434610808	21.64282270179245	14.35044565030739	-0.06437768240343347	-0.9977678571428571	0.5147392290249433
3090.850830078125	-2.702972515505676	-8.912364214238883	1.929904611792132	8.19104665713717	21.59544323798924	13.25721901874846	-0.0815450643776824	-0.9955357142857142	0.5147392290249433
3094.757080078125	-2.928348512164872	-8.950514494676332	2.018524685874976	9.250696669600678	22.72625433859827	14.34624059863913	-0.0815450643776824	-0.9955357142857142	0.5147392290249433
3098.663330078125	-2.774258080304203	-8.982358429297971	1.915603948787577	9.229807404927405	21.9662134582395	13.63399876171759	-0.0815450643776824	-0.9955357142857142	0.5147392290249433
3102.569580078125	-2.86852164320572	-8.809698621951783	2.158286769551581	9.229807404927405	21.9662134582395	13.63399876171759	-0.0815450643776824	-0.9955357142857142	0.5147392290249433
3106.475830078125	-3.183328850539997	-8.81665155997945	2.006354441754769	8.862376500604709	21.5714276656734	12.91117354112514	-0.0815450643776824	-0.9955357142857142	0.5147392290249433
3110.382080078125	-2.991785503794862	-8.79836497324488	2.239774869282075	7.491288346666579	21.58376129224556	12.88362844178066	-0.0815450643776824	-0.9955357142857142	0.5147392290249433
3114.288330078125	-3.223553499226582	-8.624330121573392	1.947186657352062	9.191798476745745	20.08396001637236	12.21321219670932	-0.0815450643776824	-0.9955357142857142	0.5147392290249433
3118.194580078125	-3.183213698333932	-8.503521398370196	1.994839221148294	9.539204287553193	18.25216944495146	11.87876598842385	-0.09656652360515021	-0.9866071428571428	0.5215419501133787
3122.100830078125	-3.154534614694804	-8.816939502337902	2.188155347031444	8.126337604268514	16.74442131080609	10.4267372152363	-0.09656652360515021	-0.9866071428571428	0.5215419501133787
3126.007080078125	-3.070713579919492	-8.928888823796765	1.9693171756227	8.480418446247711	15.65482286071419	10.44471481657681	-0.09656652360515021	-0.9866071428571428	0.5215419501133787
3129.913330078125	-3.186627860233044	-8.705507458771409	2.336255411059575	8.467068383904213	14.17043861805619	9.739867197324861	-0.09656652360515021	-0.9866071428571428	0.5215419501133787
3133.819580078125	-2.938811242432493	-8.687783604747393	2.044389549371723	8.110946283076183	12.68913778204122	9.028133303236796	-0.09656652360515021	-0.9866071428571428	0.5215419501133787
3137.725830078125	-3.022496922860325	-8.464724525720893	2.249692286032504	7.383623676760569	11.17522283460977	7.589877079721489	-0.09656652360515021	-0.9866071428571428	0.5215419501133787
3141.632080078125	-3.030032362836931	-8.535356242028199	1.982828120427804	6.695174169784643	10.07702584541723	7.227377829258068	-0.09656652360515021	-0.9866071428571428	0.5215419501133787
3145.538330078125	-3.041810252510659	-8.605945533838531	2.140208924535345	7.024596145925678	8.58955819611619	6.529416484842244	-0.1008583690987124	-0.9776785714285714	0.526077097505669
3149.444580078125	-3.09247742932345	-8.857964114595656	2.104885789487898	6.63627597692971	7.43473152319132	5.094349427328264	-0.1008583690987124	-0.9776785714285714	0.526077097505669
3153.350830078125	-3.164435725431091	-8.311789986180033	2.157858257394855	6.290598508438317	6.333451127355738	4.738736451700965	-0.1008583690987124	-0.9776785714285714	0.526077097505669
3157.257080078125	-3.15333258728062	-8.463416169076689	2.067952605612975	5.934476407610287	4.852150291340775	4.027002557612899	-0.1008583690987124	-0.9776785714285714	0.526077097505669
3161.163330078125	-3.084554108231679	-8.423699913463139	2.33296184357605	4.885271027483414	4.101359630911128	3.294101896183003	-0.1008583690987124	-0.9776785714285714	0.526077097505669
3165.069580078125	-3.277539887873836	-8.56318419708086	2.243784705750907	3.497927381194924	1.524945212346661	2.212982476795396	-0.1008583690987124	-0.9776785714285714	0.526077097505669
3168.975830078125	-3.207670493188493	-8.321458648603471	2.399702380073691	2.406943471721505	-0.7459272088005136	0.05559814152243525	-0.1008583690987124	-0.9776785714285714	0.526077097505669
3172.882080078125	-3.277731808217277	-8.411667126362273	2.262976740095032	1.710954762415803	-1.119780835693817	-0.3142953266105731	-0.1072961373390558	-0.9821428571428571	0.5306122448979592
3176.788330078125	-3.126205028102154	-8.211162192143222	2.416421177562317	1.680485036563919	-3.726377639860203	-1.727687673949256	-0.1072961373390558	-0.9821428571428571	0.5306122448979592
3180.694580078125	-3.363853866899742	-8.168381663351205	2.71191730221913	1.321457505729028	-6.312042278353788	-2.7881482688285	-0.1072961373390558	-0.9821428571428571	0.5306122448979592
3184.600830078125	-3.035509163374502	-8.16156410028545	2.530508174184894	-0.1227430745655609	-8.959851733037306	-5.308539797398349	-0.09656652360515021	-0.9821428571428571	0.5487528344671202
3188.507080078125	-3.331817187357463	-8.017186878631476	2.569473837787163	-0.118973473400673	-9.322023414186926	-5.304842688563554	-0.09656652360515021	-0.9821428571428571	0.5487528344671202
3192.413330078125	-3.404401749848965	-8.279087295632824	2.685072944080213	-1.18529851703593	-11.19502663612495	-6.746288078080189	-0.09656652360515021	-0.9821428571428571	0.5487528344671202
3196.319580078125	-3.222003953751202	-8.341517334199862	2.812640273079322	-2.268743224179574	-14.19024241957137	-8.896278195683562	-0.09656652360515021	-0.9821428571428571	0.5487528344671202
3200.225830078125	-3.404878520386356	-8.157870406715329	2.732749997819303	-2.627770755014465	-16.77590705806495	-9.956738790562806	-0.1072961373390558	-0.984375	0.5351473922902494
3204.132080078125	-3.527570660373457	-8.25765358632556	2.757066037345719	-3.322031122004114	-20.08283165221474	-11.01669144260858	-0.1072961373390558	-0.984375	0.5351473922902494
3208.038330078125	-3.38779146671994	-8.178243297454014	3.064860957708315	-4.36660272980807	-22.66232947742224	-12.09092458716007	-0.1072961373390558	-0.984375	0.5351473922902494
3211.944580078125	-3.550712295821909	-8.247321159870065	3.030413255660322	-5.425388571113552	-25.25967606165951	-13.52497575900712	-0.09227467811158799	-0.9910714285714285	0.5238095238095238
3215.850830078125	-3.70605324023616	-8.488191992850165	3.258385248105759	-5.791955304278219	-27.12099733785386	-14.59283057155595	-0.09227467811158799	-0.9910714285714285	0.5238095238095238
3219.757080078125	-3.901366306569309	-8.284218660166632	3.401936779379902	-7.91039115804721	-30.84915502270015	-17.11590332329365	-0.09227467811158799	-0.9910714285714285	0.5238095238095238
3223.663330078125	-4.006409773358661	-8.161956104286615	3.702201825661996	-7.544137341415323	-34.49180399986915	-17.43186398740515	-0.09227467811158799	-0.9910714285714285	0.5238095238095238
3227.569580078125	-4.148641506979942	-8.362553988970607	3.639660902075906	-8.233763936082056	-39.6274357587968	-18.83314912257252	-0.08798283261802575	-0.9866071428571428	0.5419501133786848
3231.475830078125	-3.915041177321894	-8.223475850853045	3.749015691373061	-7.866645948292141	-44.73662021959402	-19.49413937864041	-0.08798283261802575	-0.9866071428571428	0.5419501133786848
3235.382080078125	-3.924477638805639	-8.324391587248307	3.672253676482274	-8.199286270972816	-49.85748662613495	-20.5287202116761	-0.08798283261802575	-0.9866071428571428	0.5419501133786848
3239.288330078125	-3.955548655988287	-8.233171786167391	3.718130904951169	-8.571663864151207	-53.92753550728653	-22.29402842580728	-0.07081545064377683	-0.9799107142857142	0.5328798185941043
3243.194580078125	-3.826363506521588	-8.345574748773169	4.064922080730176	-8.569935521835152	-56.86060647454301	-22.98408760972005	-0.07081545064377683	-0.9799107142857142	0.5328798185941043
3247.100830078125	-3.755681985751366	-8.447291664990972	4.139627146565189	-8.596635646522149	-59.82937495985902	-24.39378284822394	-0.07081545064377683	-0.9799107142857142	0.5328798185941043
3251.007080078125	-3.666834616963175	-8.347170037668754	4.438563737133816	-9.690524986002428	-63.20461118348481	-26.89989388428808	-0.07081545064377683	-0.9799107142857142	0.5328798185941043
3254.913330078125	-3.483420653152243	-8.419711248013934	4.464514294816134	-8.665114300555691	-64.31822520589255	-27.2279617605709	-0.0536480686695279	-0.9866071428571428	0.5215419501133787
3258.819580078125	-3.628642303702925	-8.519269132518527	4.700965064170101	-8.363256620259678	-67.30792585688137	-28.99058875153422	-0.0536480686695279	-0.9866071428571428	0.5215419501133787
3262.725830078125	-3.394274292671112	-8.481208772224806	4.733551716090755	-7.69773763680586	-69.54066903415443	-30.0340876307399	-0.0536480686695279	-0.9866071428571428	0.5215419501133787
3266.632080078125	-3.395213692246903	-8.430694327723998	4.827491673669894	-5.991416646712971	-68.8317427050704	-30.00705047422888	-0.04506437768240344	-1.002232142857143	0.5238095238095238
3270.538330078125	-3.192631854203824	-8.624639338023618	4.977471134668079	-4.616558891609952	-69.20624801279217	-29.9758082660496	-0.04506437768240344	-1.002232142857143	0.5238095238095238
3274.444580078125	-3.426268547716419	-8.703111051896574	4.871752730825601	-4.327738357124658	-68.17636265307566	-31.05946739960454	-0.04506437768240344	-1.002232142857143	0.5238095238095238
3278.350830078125	-3.379409474560331	-9.006609945658438	5.287886231543323	-3.369629238020657	-69.74139215178182	-33.18292830353037	-0.04506437768240344	-1.002232142857143	0.5238095238095238
3282.257080078125	-3.147077839383136	-9.10994336302031	5.524110468925853	-0.6225062412886999	-66.09079631634064	-32.08535511130265	-0.03648068669527897	-0.9888392857142857	0.5396825396825397
3286.163330078125	-3.334192835501272	-9.097971202958121	5.868263141963928	0.3309691054923863	-65.82711865026896	-33.86748353210689	-0.03648068669527897	-0.9888392857142857	0.5396825396825397
3290.069580078125	-3.335017082870999	-9.239377101898564	5.950687878936592	3.407514078365379	-63.66399046412884	-33.46787168429501	-0.03648068669527897	-0.9888392857142857	0.5396825396825397
3293.975830078125	-3.418658318587718	-9.258742709743416	6.151546144486104	6.83060069088779	-61.86611736578137	-33.0576764528122	-0.01502145922746781	-1.002232142857143	0.54421768707483
3297.882080078125	-3.25701628503731	-9.583591453311245	6.313873401690215	10.97810447971895	-59.65869312248108	-31.55795169860527	-0.01502145922746781	-1.002232142857143	0.54421768707483
3301.788330078125	-3.194946978381108	-9.644818206983867	6.229391715661778	14.76194696539231	-58.20822635289651	-30.777355056156	-0.01502145922746781	-1.002232142857143	0.54421768707483
3305.694580078125	-3.195456072344762	-9.301378772609889	6.280301112027247	17.13496402662983	-55.69460843135045	-30.75503089414671	-0.01502145922746781	-1.002232142857143	0.54421768707483
3309.600830078125	-3.085753950516282	-9.272172763525141	6.534578725097584	19.18523414289805	-50.95133073917435	-29.68232157809562	0.008583690987124463	-0.9955357142857142	0.5306122448979592
3313.507080078125	-3.134413034472435	-9.504009405008812	6.298446304386341	22.22117767411531	-46.27084954401664	-29.66840751942285	0.008583690987124463	-0.9955357142857142	0.5306122448979592
3317.413330078125	-3.003377368852133	-9.333602589947843	6.460185864805151	24.20501039519882	-43.44552281176721	-30.73612082297116	0.008583690987124463	-0.9955357142857142	0.5306122448979592
3321.319580078125	-3.146697997895676	-9.402876454364479	6.506534483445203	26.94836379076589	-39.43275529517643	-29.64224473957824	0.03218884120171674	-0.9665178571428571	0.5510204081632654
3325.225830078125	-3.321760355216842	-9.441529871195307	6.665831440051515	29.68213672515435	-37.26654370239326	-29.24951916660248	0.03218884120171674	-0.9665178571428571	0.5510204081632654
3329.132080078125	-3.127190727687759	-9.584889708884742	6.596623789184089	32.10824111923307	-34.31935906357853	-27.79162000424574	0.03218884120171674	-0.9665178571428571	0.5510204081632654
3333.038330078125	-3.40405410810119	-9.854848347807877	6.731941422363852	34.84955325595131	-32.8774908330946	-27.39150021360039	0.03218884120171674	-0.9665178571428571	0.5510204081632654
3336.944580078125	-3.42693513592539	-9.773811456721555	6.979227878253274	36.95086944621192	-30.27154570975669	-25.57697218994942	0.03433476394849785	-0.9642857142857142	0.54421768707483
3340.850830078125	-3.599977279105068	-9.812485075693798	6.936503420710899	39.37406841028378	-28.42872487342058	-24.46779972838386	0.03433476394849785	-0.9642857142857142	0.54421768707483
3344.757080078125	-3.609090506326175	-10.11542424645189	6.827417979556322	41.45449533587112	-26.58282063044143	-23.36551354165442	0.03433476394849785	-0.9642857142857142	0.54421768707483
3348.663330078125	-3.773570940745373	-9.942062270390528	6.948930809231115	44.24135560310078	-23.9830423203896	-21.53721296833121	0.04721030042918455	-0.9776785714285714	0.546485260770975
3352.569580078125	-3.836444292629887	-10.22426181969997	7.113817018090731	47.36431287764324	-22.12853953830981	-20.05444992979785	0.04721030042918455	-0.9776785714285714	0.546485260770975
3356.475830078125	-4.083543734410211	-10.09047769396903	7.333965277755799	49.4551844355672	-19.90261485515127	-18.59604282460765	0.04721030042918455	-0.9776785714285714	0.546485260770975
3360.382080078125	-4.153978789055171	-10.23118748483672	7.234613599394646	53.29211425408177	-18.01858136829803	-16.37987118181092	0.04721030042918455	-0.9776785714285714	0.546485260770975
3364.288330078125	-4.24825851366982	-10.19994165728755	7.47891259147184	56.10449755830763	-16.48746934266529	-14.18066125468777	0.06008583690987124	-0.9709821428571428	0.5714285714285714
3368.194580078125	-4.35056863072574	-10.08780744500588	7.505842664410761	59.60996414183234	-15.68686749261787	-11.96028456022279	0.06008583690987124	-0.9709821428571428	0.5714285714285714
3372.100830078125	-4.415846037438624	-10.06695265073673	7.911134356107313	62.42698121838111	-15.98446263176299	-10.10240711622122	0.06008583690987124	-0.9709821428571428	0.5714285714285714
3376.007080078125	-4.31338036389381	-10.26999750949238	7.868648634278943	64.9693919939461	-17.29409437159488	-6.801052511369158	0.05150214592274678	-0.9620535714285714	0.5850340136054422
3379.913330078125	-4.454690879866575	-10.49080662655487	7.713985945841053	68.85823205761108	-19.01392893720806	-4.188091752928935	0.05150214592274678	-0.9620535714285714	0.5850340136054422
3383.819580078125	-4.608805554296942	-10.4185584091035	7.819330939898236	71.72252560698735	-21.08668496404175	-1.592092710162281	0.05150214592274678	-0.9620535714285714	0.5850340136054422
3387.725830078125	-4.344756433411823	-10.51210799122144	7.945031096284291	75.22508676050518	-21.39044691647295	0.2795572835115241	0.05150214592274678	-0.9620535714285714	0.5850340136054422
3391.632080078125	-4.301091360042284	-10.71456484397534	7.660156412391784	78.75521220986806	-20.19197586721639	3.215872923732834	0.04506437768240344	-0.9486607142857142	0.5986394557823129
3395.538330078125	-4.313139958410973	-10.50232314587044	7.84460808599525	82.96420670502823	-19.7418637525749	5.813537304000414	0.04506437768240344	-0.9486607142857142	0.5986394557823129
3399.444580078125	-4.240605901273009	-10.49294747634081	7.734059515055917	85.4271429395978	-18.94986044162813	7.653437146661475	0.04506437768240344	-0.9486607142857142	0.5986394557823129
3403.350830078125	-4.575619372908157	-10.49969835172547	7.561937290815665	88.93174535196448	-16.68272310795246	10.21884343308284	0.05793991416309013	-0.9330357142857142	0.6167800453514739
3407.257080078125	-4.476357758991741	-10.58149904867271	7.839857531827113	90.71000168072301	-17.35108846734784	11.69994113411528	0.05793991416309013	-0.9330357142857142	0.6167800453514739
3411.163330078125	-4.616108669647277	-10.53969749916211	7.529234311666436	93.90866389509601	-17.2360490548971	14.64046182600485	0.05793991416309013	-0.9330357142857142	0.6167800453514739
3415.069580078125	-4.691846786413639	-10.42782900688334	7.960188845445587	96.05521529933527	-18.97616410535461	16.49935515567335	0.05793991416309013	-0.9330357142857142	0.6167800453514739
3418.975830078125	-4.670355665918782	-10.54925603930041	7.851893122490462	98.90152501404512	-20.70459721006845	18.73183906230965	0.05793991416309013	-0.9129464285714285	0.6213151927437642
3422.882080078125	-4.744152356895177	-10.3060938299664	8.088705077272724	101.4117377214422	-21.68775478681024	21.3098605037358	0.05793991416309013	-0.9129464285714285	0.6213151927437642
3426.788330078125	-4.79474276557059	-10.51770913800086	8.045705128487628	104.2049601033108	-23.84975460879275	22.10676941002465	0.05793991416309013	-0.9129464285714285	0.6213151927437642
3430.694580078125	-4.956362576765442	-10.56659799039396	7.881155635727879	106.4083684415562	-25.51847462313122	25.40493484887539	0.04291845493562232	-0.9017857142857142	0.653061224489796
3434.600830078125	-4.81216113435621	-10.61854505532311	7.746725680518999	108.5189521764626	-26.56994382934902	26.53679790628318	0.04291845493562232	-0.9017857142857142	0.653061224489796
3438.507080078125	-4.978938552254278	-10.65728132154817	8.09793685808085	109.9732844725611	-29.04608418784946	28.02949487665346	0.04291845493562232	-0.9017857142857142	0.653061224489796
3442.413330078125	-5.113156055147422	-10.57513106571115	8.254381024946222	112.8082853837762	-29.68800224911444	30.25088745678538	0.04291845493562232	-0.9017857142857142	0.653061224489796
3446.319580078125	-5.254349398699979	-10.65452721308371	8.088001094487707	115.2909337953283	-32.173392827544	31.76424325166402	0.04291845493562232	-0.8883928571428571	0.6825396825396826
3450.225830078125	-5.286428502739229	-10.7350145028514	8.234687008616797	117.7442895687193	-33.22794544040484	32.90299258390793	0.04291845493562232	-0.8883928571428571	0.6825396825396826
3454.132080078125	-5.234708794358724	-10.55371351811702	8.164756986892778	119.8917051441165	-36.4345959744906	34.41685632162005	0.04291845493562232	-0.8883928571428571	0.6825396825396826
3458.038330078125	-5.409658019687965	-10.61257008646979	8.312740744306764	121.6641506128614	-39.31168893884323	35.20050062107012	0.05150214592274678	-0.8683035714285714	0.6825396825396826
3461.944580078125	-5.258432251479924	-10.58377931384884	8.496286372482203	123.8115661882587	-42.51833947292899	36.71436435878223	0.05150214592274678	-0.8683035714285714	0.6825396825396826
3465.850830078125	-5.534043099125633	-10.75274037708955	8.50635072888978	126.2704199051306	-46.86813473419593	37.16675161594817	0.05150214592274678	-0.8683035714285714	0.6825396825396826
3469.757080078125	-5.278008208968651	-10.62398759467799	8.413065794824373	128.7635129490192	-48.97350487244611	39.03622832928758	0.05150214592274678	-0.8683035714285714	0.6825396825396826
3473.663330078125	-5.396243756559633	-10.7440173604142	7.991722594738786	131.2168687224102	-50.02805748530695	40.17497766153149	0.0536480686695279	-0.8504464285714285	0.7482993197278912
3477.569580078125	-5.418718721341394	-10.83470170167548	8.198402746384321	133.3141023949732	-52.56391093418276	40.60199309968733	0.0536480686695279	-0.8504464285714285	0.7482993197278912
3481.475830078125	-5.275557689215028	-10.83613331199674	8.168013819462015	135.0781444902302	-53.25012505260791	41.72327277342421	0.0536480686695279	-0.8504464285714285	0.7482993197278912
3485.382080078125	-5.041304830389278	-11.11120311331227	8.212115691989144	137.8742723021057	-54.30776107211179	42.86890838050424	0.03648068669527897	-0.8080357142857142	0.7210884353741497
3489.288330078125	-4.971788973178696	-11.12199928198539	8.40338711378795	139.9601971711739	-55.75709947753874	43.2848324921557	0.03648068669527897	-0.8080357142857142	0.7210884353741497
3493.194580078125	-4.650915062777535	-11.1252080210894	7.948649134896254	143.0698043833729	-55.38698093811695	44.06274791143712	0.03648068669527897	-0.8080357142857142	0.7210884353741497
3497.100830078125	-4.69107304439745	-11.04399836046512	7.88281464382664	145.4625336215929	-56.15075690594722	43.75852802566399	0.03648068669527897	-0.8080357142857142	0.7210884353741497
3501.007080078125	-4.435488661994021	-11.00615016388511	7.83458048511639	147.9103914515029	-53.91006687040197	45.58363943298588	0.07725321888412018	-0.7924107142857142	0.7687074829931972
3504.913330078125	-4.637343222946165	-11.0142326283766	7.611873315024678	149.2985992689494	-52.80018793546574	46.31972926041711	0.07725321888412018	-0.7924107142857142	0.7687074829931972
3508.819580078125	-4.452717130650341	-11.08678596000663	7.516611024217785	151.0229040937087	-52.43558452850156	46.71028155305847	0.07725321888412018	-0.7924107142857142	0.7687074829931972
3512.725830078125	-4.349952465412587	-10.94639946524487	7.444226133095411	153.1033310192961	-50.58968028552241	47.81256773978791	0.0536480686695279	-0.7790178571428571	0.7913832199546486
3516.632080078125	-4.176181024927831	-10.77642000793254	7.414020860130109	154.5304119360823	-49.06408339234728	49.62441454027102	0.0536480686695279	-0.7790178571428571	0.7913832199546486
3520.538330078125	-4.399965092843536	-10.77418216725338	7.343448059863788	155.8864216853608	-47.62773029432095	49.63717120427633	0.0536480686695279	-0.7790178571428571	0.7913832199546486
3524.444580078125	-4.37838104249817	-10.71379194715078	7.225859351857824	157.2955187674806	-45.75781047902596	51.08550286862909	0.0536480686695279	-0.7790178571428571	0.7913832199546486
3528.350830078125	-4.224512834193063	-10.54361345751666	7.14516097032678	157.9839682744565	-44.65961348983342	51.44800211909251	0.0536480686695279	-0.7455357142857142	0.8390022675736961
3532.257080078125	-4.211385441472822	-10.53364372134285	6.852829861567916	160.0815148635523	-41.69149668534589	53.25883303390868	0.0536480686695279	-0.7455357142857142	0.8390022675736961
3536.163330078125	-3.979118453148154	-10.19253204779175	7.095518784203203	160.4414065655452	-40.57236753048054	53.97426403683154	0.0536480686695279	-0.7455357142857142	0.8390022675736961
3540.069580078125	-4.140297857660162	-10.30203136485774	6.886928623159042	161.5521026520011	-41.57888899870971	55.80510432432209	0.0536480686695279	-0.7165178571428571	0.8503401360544218
3543.975830078125	-4.293980206264251	-10.10857534945251	6.949041034588406	162.5804187674547	-41.58813921863883	55.82576314883045	0.0536480686695279	-0.7165178571428571	0.8503401360544218
3547.882080078125	-4.138368553155042	-10.15053550638764	6.693998172647046	162.3049482953129	-41.13364033569735	57.61426990163734	0.0536480686695279	-0.7165178571428571	0.8503401360544218
3551.788330078125	-4.105574293309705	-10.2518735499962	6.475796677909321	162.6790542308073	-39.99666242180224	58.68951893185576	0.0536480686695279	-0.7165178571428571	0.8503401360544218
3555.694580078125	-4.34139685852339	-9.885878960707696	6.588665444175722	162.7141577289821	-39.21877278241372	59.76157879607285	0.05150214592274678	-0.6540178571428571	0.8934240362811792
3559.600830078125	-4.384328594159567	-9.895550653452345	6.800206354732254	162.0503670878444	-39.91910057239711	60.11501849136575	0.05150214592274678	-0.6540178571428571	0.8934240362811792
3563.507080078125	-4.504271222700104	-9.86404819686391	6.549571249602308	162.0976435606719	-41.69426146008568	60.85314009013084	0.05150214592274678	-0.6540178571428571	0.8934240362811792
3567.413330078125	-4.16795875337198	-9.66539111953699	6.591793704544954	162.1449200334993	-43.46942234777426	61.59126168889593	0.06008583690987124	-0.6339285714285714	0.8775510204081632
3571.319580078125	-4.238389767588657	-9.644484789192802	6.492037983355504	161.5075166005158	-46.704951905805	61.9705811460324	0.06008583690987124	-0.6339285714285714	0.8775510204081632
3575.225830078125	-4.136111973959001	-9.534396456017987	6.468340253042962	162.2298925179757	-48.86630004695902	62.36635437600896	0.06008583690987124	-0.6339285714285714	0.8775510204081632
3579.132080078125	-3.840074658670999	-9.395942687756726	6.456445458936618	162.2733993896383	-50.27928925349798	63.10077886593926	0.06008583690987124	-0.6339285714285714	0.8775510204081632
3583.038330078125	-3.847189894106176	-9.325164464695302	6.14756083918899	161.9306273511537	-50.27620584685494	63.09389259110314	0.06223175965665236	-0.5915178571428571	0.9342403628117915
3586.944580078125	-3.561368842960533	-9.166406513590598	6.136884296053252	162.2942886543116	-49.51924837313921	63.81302070286079	0.06223175965665236	-0.5915178571428571	0.9342403628117915
3590.850830078125	-3.634292801427804	-8.862646970975623	6.286422999923282	160.8843274010338	-49.92263270480596	62.70971863046442	0.06223175965665236	-0.5915178571428571	0.9342403628117915
3594.757080078125	-3.724027044224108	-8.831446598244629	6.07617381016593	160.9081220957139	-48.05822802196857	63.77068716817713	0.06437768240343347	-0.5758928571428571	0.9591836734693878
3598.663330078125	-3.928859400820804	-8.758691203971592	6.151246204529382	159.8873451825901	-48.77332116433869	63.75742256133836	0.06437768240343347	-0.5758928571428571	0.9591836734693878
3602.569580078125	-3.66222238562044	-8.619943432709455	6.01815692939097	159.5445731441056	-48.77023775769565	63.75053628650224	0.06437768240343347	-0.5758928571428571	0.9591836734693878
3606.475830078125	-3.548855595339303	-8.469561949097114	5.905967697195589	158.1856579648201	-51.31095465820059	63.38905292170575	0.06437768240343347	-0.5758928571428571	0.9591836734693878
3610.382080078125	-3.416019918918936	-8.268870103841115	5.887706177607918	157.2405859915268	-53.76551117019976	64.83354596822319	0.06437768240343347	-0.546875	0.9750566893424036
3614.288330078125	-3.253206161166466	-8.189690160610558	5.932861014605792	156.1809359790633	-54.89632227080879	63.74452438833252	0.06437768240343347	-0.546875	0.9750566893424036
3618.194580078125	-3.029896843574011	-8.242428304291533	6.050908847197054	155.5133757367607	-55.23447837964257	64.09426697479064	0.06437768240343347	-0.546875	0.9750566893424036
3622.100830078125	-3.149346539864025	-8.190728756823583	5.750980517014828	155.1668340971112	-54.86922329184991	64.08368359111972	0.05793991416309013	-0.4977678571428571	0.9773242630385488
3626.007080078125	-2.811621940851002	-7.82036862907634	5.651990003467542	154.8023086227954	-54.15964528193739	63.70958507131845	0.05793991416309013	-0.4977678571428571	0.9773242630385488
3629.913330078125	-2.832405986396339	-7.698948667408766	5.689578231470627	153.7351194080021	-54.56611302024719	62.6131692737582	0.05793991416309013	-0.4977678571428571	0.9773242630385488
3633.819580078125	-2.657963834816611	-7.46836985660133	5.592301849007962	152.6879552867241	-52.74600439456997	62.57402490507587	0.05793991416309013	-0.4977678571428571	0.9773242630385488
3637.725830078125	-2.771247796317946	-7.083398633147932	5.696208203223247	151.3055583292913	-51.64715572454895	62.535388479227	0.07296137339055794	-0.4620535714285714	0.9773242630385488
3641.632080078125	-2.833341345543847	-6.981767596645573	5.783114146221469	150.3161153131774	-51.22218754638093	63.59048662777052	0.07296137339055794	-0.4620535714285714	0.9773242630385488
3645.538330078125	-2.447476857609033	-6.692696948595628	5.972175556821637	148.563382021415	-51.62248847140464	62.48029828053804	0.07296137339055794	-0.4620535714285714	0.9773242630385488
3649.444580078125	-2.578587271152569	-6.570173723248072	5.817910788726329	147.1998330698067	-52.33449820713172	62.46014739886314	0.07725321888412018	-0.4352678571428571	1.013605442176871
3653.350830078125	-2.457897163379682	-6.500673553618729	5.993797970621261	145.4546389803741	-53.45914249445467	61.35735326930023	0.07725321888412018	-0.4352678571428571	1.013605442176871
3657.257080078125	-2.264685119753679	-6.401595573044888	6.060348710061752	145.1080973407247	-53.09388740666202	61.34676988562932	0.07725321888412018	-0.4352678571428571	1.013605442176871
3661.163330078125	-2.231945405690162	-6.412023980286534	5.847601793506041	143.3307051831242	-53.89205753089487	59.5206425926405	0.07725321888412018	-0.4352678571428571	1.013605442176871
3665.069580078125	-2.2725134907808	-6.320709208526536	5.822777649508611	142.2730964295095	-52.45196934539704	59.1253773054974	0.07725321888412018	-0.4352678571428571	1.013605442176871
3668.975830078125	-2.107382547408045	-6.231451427051174	5.636213924477941	141.1841537788849	-52.15194248043735	57.661749262972	0.07725321888412018	-0.4352678571428571	1.013605442176871
3672.882080078125	-2.097004666134366	-6.352767327076031	5.618833960375439	140.1340842276	-51.43619765723876	57.27387819349849	0.07725321888412018	-0.4352678571428571	1.013605442176871
3676.788330078125	-1.934409091509177	-5.909948838377839	5.685807110101371	138.337844064175	-50.42350937572352	55.4292653563357	0.08369098712446352	-0.3816964285714285	1.040816326530612
3680.694580078125	-1.850020376560107	-5.789580604315208	5.410200921316846	136.9061293750659	-50.1203991041208	53.95875103897419	0.08369098712446352	-0.3816964285714285	1.040816326530612
3684.600830078125	-1.955520411745435	-5.748121563559314	5.756122807196543	135.1533960833036	-50.52070002914451	52.84856269174169	0.08369098712446352	-0.3816964285714285	1.040816326530612
3688.507080078125	-1.801743113076695	-5.426427013313678	5.684515389302191	133.7472044311907	-51.28625604196088	51.74895772818012	0.08369098712446352	-0.3816964285714285	1.040816326530612
3692.413330078125	-1.803034029913106	-5.295100972832183	5.813607072943202	131.6630079044384	-52.7699886037904	50.64297443261589	0.08369098712446352	-0.3816964285714285	1.040816326530612
3696.319580078125	-1.75991441436177	-5.093511966967494	5.58327817087084	129.8676319121715	-53.22383580590341	48.45333200349671	0.08369098712446352	-0.3816964285714285	1.040816326530612
3700.225830078125	-1.473873159874705	-4.965059248199233	5.550581293592896	127.7257142802551	-53.31242792022375	46.25310619070662	0.08369098712446352	-0.3816964285714285	1.040816326530612
3704.132080078125	-1.514851348436064	-4.863639365303518	5.566767496667649	126.3291030893208	-52.23142800923249	45.8546517375622	0.09871244635193133	-0.3035714285714285	1.061224489795918
3708.038330078125	-1.403648207500459	-4.642529174490653	5.670943199025511	124.5044344588928	-51.25443724577678	43.29040284580829	0.09871244635193133	-0.3035714285714285	1.061224489795918
3711.944580078125	-1.589819763614521	-4.519455337717391	5.92075187165615	122.3662864281414	-51.70520104124674	41.09387414185299	0.09871244635193133	-0.3035714285714285	1.061224489795918
3715.850830078125	-1.322910019505056	-4.330205243239294	5.760389705607664	120.585124669376	-52.14119948432997	39.26404974002939	0.09871244635193133	-0.3035714285714285	1.061224489795918
3719.757080078125	-1.191526877052419	-4.402226145370891	5.887381582792899	118.4507462397894	-52.95413496094955	37.07121814490888	0.09871244635193133	-0.3035714285714285	1.061224489795918
3723.663330078125	-0.9362495671984958	-4.020940534631047	5.869854679033249	118.0644673296423	-51.53806234776756	36.32990738014247	0.09871244635193133	-0.3035714285714285	1.061224489795918
3727.569580078125	-1.099144133516625	-3.797089366745643	5.832780698601323	115.560929653417	-49.81271264969677	34.10430974834229	0.09871244635193133	-0.3035714285714285	1.061224489795918
3731.475830078125	-0.8859541097877385	-3.991140458902124	5.942349754284056	113.4248228815143	-47.69257715905987	32.60153733713456	0.1351931330472103	-0.234375	1.049886621315193
3735.382080078125	-1.099752217973213	-3.625366114183905	5.893589144260078	111.6494719827626	-45.91984799718586	31.4691663368933	0.1351931330472103	-0.234375	1.049886621315193
3739.288330078125	-0.9872884634133202	-3.485076610315362	5.87170348418916	110.5283312639701	-45.29334696913608	29.28220513094199	0.1351931330472103	-0.234375	1.049886621315193
3743.194580078125	-0.6628064093266027	-3.437816380351179	6.076559300007213	108.4290563325584	-45.32839280636713	28.16143340003858	0.1351931330472103	-0.234375	1.049886621315193
3747.100830078125	-0.8776974533626217	-3.60738464162799	6.137092275037675	105.5723019855119	-43.97998014183268	25.57282857494151	0.1351931330472103	-0.234375	1.049886621315193
3751.007080078125	-0.7863086551844399	-3.36587428718553	6.181885926607253	103.4541790482756	-42.20416757331564	24.43357129986414	0.1351931330472103	-0.234375	1.049886621315193
3754.913330078125	-0.6731378256750267	-3.225591854066483	6.089292771584295	102.3890310923312	-40.03973602551856	24.03091179505145	0.1351931330472103	-0.234375	1.049886621315193
3758.819580078125	-0.4999704292185762	-3.227323528031047	6.119491901449451	100.5814821254116	-37.94053270055446	22.17520763138428	0.1330472103004292	-0.1919642857142857	1.081632653061225
3762.725830078125	-0.7162857242243432	-3.043342193262808	6.322449973454738	99.17442630214065	-37.2395532297426	21.42063225977909	0.1330472103004292	-0.1919642857142857	1.081632653061225
3766.632080078125	-0.5013320535499384	-3.146501830979653	6.255654334585667	97.73517241070175	-36.21209959584064	19.94272372474798	0.1330472103004292	-0.1919642857142857	1.081632653061225
3770.538330078125	-0.7571426999372138	-3.14394372451578	6.32651489168057	96.2988239492697	-34.08028215946005	18.81354189050806	0.1330472103004292	-0.1919642857142857	1.081632653061225
3774.444580078125	-0.4918491271409389	-2.954677468324551	6.327769856951033	95.21278672865198	-32.67589149202174	17.69864054877383	0.1330472103004292	-0.1919642857142857	1.081632653061225
3778.350830078125	-0.4100604277919628	-2.541353941176626	6.312165228175868	92.38069124744365	-30.92960962827815	15.82597466943309	0.1330472103004292	-0.1919642857142857	1.081632653061225
3782.257080078125	-0.4816146810713064	-2.500234358239793	6.324733413253088	91.33352712616562	-29.10950100260093	15.78683030075076	0.1330472103004292	-0.1919642857142857	1.081632653061225
3786.163330078125	-0.6366546135784751	-2.569391029621792	6.522604214990371	89.57616006208036	-27.68109476284678	15.01797443663986	0.1566523605150215	-0.1473214285714286	1.072562358276644
3790.069580078125	-0.7696034219907649	-2.244829218305345	6.552178933770367	88.15489000530788	-26.99796405106467	13.90358103773911	0.1566523605150215	-0.1473214285714286	1.072562358276644
3793.975830078125	-0.7979552309389717	-2.476868932539095	6.32613533879513	86.40129254238751	-25.93172949246015	13.138422282463	0.1566523605150215	-0.1473214285714286	1.072562358276644
3797.882080078125	-0.7968582546601443	-2.284960710382692	6.216437710912393	85.64004352558788	-24.18609930954502	11.66689207943455	0.1566523605150215	-0.1473214285714286	1.072562358276644
3801.788330078125	-0.7250332926858416	-2.103860778184254	6.176798656339249	83.52859561952343	-21.66809461969898	10.88005861398314	0.1566523605150215	-0.1473214285714286	1.072562358276644
3805.694580078125	-0.9627972836894948	-2.374210411001489	6.483810001602538	82.10355596158605	-20.62279222676725	9.761968106247597	0.1566523605150215	-0.1473214285714286	1.072562358276644
3809.600830078125	-0.8524890976185684	-2.345010462559168	6.677481190428269	80.34705306865882	-20.66092147064134	8.64808265018031	0.1566523605150215	-0.1473214285714286	1.072562358276644
3813.507080078125	-0.9648983063966411	-2.071159097744115	6.693912272317172	79.31583152319837	-21.75603505319084	8.278697124880768	0.1630901287553648	-0.08928571428571427	1.068027210884354
3817.413330078125	-0.9551062872239944	-1.88943883611766	6.73511851831779	78.32057764707073	-23.53979447998006	8.636341871841935	0.1630901287553648	-0.08928571428571427	1.068027210884354
3821.319580078125	-0.7003360511195844	-1.841481487973653	6.768298989509461	76.84245065629216	-22.92805880431701	6.082676363758942	0.1630901287553648	-0.08928571428571427	1.068027210884354
3825.225830078125	-0.6513012073331149	-1.730860725300407	6.966855427189047	74.75362035721702	-22.58308420136867	5.318025551316301	0.1630901287553648	-0.08928571428571427	1.068027210884354
3829.132080078125	-0.6511416104159374	-1.660155250562508	6.950895735471302	73.36745379861934	-21.12206385019804	5.275692016632641	0.1630901287553648	-0.08928571428571427	1.068027210884354
3833.038330078125	-0.6222463638636707	-1.66044420302803	7.122595570040541	71.59964210219745	-20.07367805062328	4.150715234060973	0.1630901287553648	-0.08928571428571427	1.068027210884354
3836.944580078125	-0.7532739486274065	-1.507618775665241	6.960047923965138	69.83646417809844	-20.85399941582637	2.684405968367715	0.1630901287553648	-0.08928571428571427	1.068027210884354
3840.850830078125	-0.6725115180623056	-1.23569912724362	7.047070173577505	68.78930005682041	-19.03389079014915	2.645261599685382	0.1609442060085837	-0.07142857142857142	1.08390022675737
3844.757080078125	-1.001947137223949	-1.444525983173215	7.337570865252033	68.08954174634982	-19.04557273589284	2.271671022717579	0.1609442060085837	-0.07142857142857142	1.08390022675737
3848.663330078125	-1.08132370088799	-1.332621106425464	7.111961925533666	66.00157561843272	-20.16713361657275	1.161990618318555	0.1609442060085837	-0.07142857142857142	1.08390022675737
3852.569580078125	-1.163900283752146	-1.442906451707933	7.206354905826818	64.93438640363942	-20.57360135488254	0.06557482075830467	0.1545064377682404	-0.05580357142857142	1.08843537414966
3856.475830078125	-0.9994804557571935	-1.515257720694953	7.090902718576486	64.23172266316199	-21.68964710310485	-0.6567424570006759	0.1545064377682404	-0.05580357142857142	1.08843537414966
3860.382080078125	-1.286345957613985	-1.280065833353153	7.206024332827095	62.86440411038873	-22.03948515768231	-0.6805904475103661	0.1545064377682404	-0.05580357142857142	1.08843537414966
3864.288330078125	-1.134964632917049	-1.342185707206183	7.374014312113085	62.16174036991128	-23.15553090590461	-1.402907725269347	0.1545064377682404	-0.05580357142857142	1.08843537414966
3868.194580078125	-0.8970673077800577	-1.294059629952502	7.053669553515983	61.84072176725805	-23.85894210253105	-1.04258175514032	0.1652360515021459	-0.03348214285714286	1.074829931972789
3872.100830078125	-1.08237017181328	-1.27200458111015	7.216609018062686	62.18726340690747	-24.2241971903237	-1.031998371469405	0.1652360515021459	-0.03348214285714286	1.074829931972789
3876.007080078125	-0.7547951698759462	-0.9924520483012409	7.112170048819099	60.48094241681458	-24.93312351940775	-1.059035527980422	0.1652360515021459	-0.03348214285714286	1.074829931972789
3879.913330078125	-0.7128028338155599	-0.9322659110557839	6.994569095841705	58.33439101257532	-23.19300846895023	-2.917928857648919	0.1781115879828326	-0.006696428571428571	1.09297052154195
3883.819580078125	-0.6027027298012066	-0.892962871691887	7.209048490324751	57.27591808780262	-20.28638479982416	-2.968164552835634	0.1781115879828326	-0.006696428571428571	1.09297052154195
3887.725830078125	-0.8462486149066555	-0.7895173118307316	7.073841082502279	56.92183724582343	-19.19678634973226	-2.986142154176137	0.1781115879828326	-0.006696428571428571	1.09297052154195
3891.632080078125	-0.6518769683634387	-0.7712590080941435	7.024431530221423	55.53276525721888	-18.84012980104025	-3.377202389650975	0.1781115879828326	-0.006696428571428571	1.09297052154195
3895.538330078125	-0.9173745827880039	-0.7888060521519181	7.043580727779977	55.19289864874121	-17.73268259191859	-3.035361963695918	0.1888412017167382	-0.002232142857142857	1.079365079365079
3899.444580078125	-0.7234716259256121	-0.8311491221245825	7.041040143581617	53.81804089363819	-17.35817728419681	-3.066604171875196	0.1888412017167382	-0.002232142857142857	1.079365079365079
3903.350830078125	-0.9390212597717558	-0.5764683732608684	7.167432099624551	52.1117199035453	-18.06710361328085	-3.093641328386214	0.1888412017167382	-0.002232142857142857	1.079365079365079
3907.257080078125	-0.6738367785391209	-0.7104333493863261	7.179596221259044	50.76238518543847	-18.76126458997817	-2.75397418276555	0.1909871244635193	0.02008928571428571	1.074829931972789
3911.163330078125	-0.7238776889680509	-0.6594278897769863	7.081646447825503	50.7293229461125	-16.96825494325984	-3.132277754235079	0.1909871244635193	0.02008928571428571	1.074829931972789
3915.069580078125	-0.5609750417933552	-0.5600468152386321	7.117912342600835	49.31472792051178	-15.54293211014873	-3.89424734350986	0.1909871244635193	0.02008928571428571	1.074829931972789
3918.975830078125	-0.7856096198626253	-0.4870933987508688	7.132390557691111	47.93987016540876	-15.16842680242695	-3.925489551689138	0.1909871244635193	0.02008928571428571	1.074829931972789
3922.882080078125	-0.8558022488106068	-0.5267955128654294	7.008796309632116	47.26013694845341	-12.95353238418363	-3.241808699779024	0.1909871244635193	0.02901785714285714	1.09297052154195
3926.788330078125	-1.04991126751543	-0.6460665438905024	7.031943078073642	46.23182083299982	-12.94428216425451	-3.262467524287387	0.1909871244635193	0.02901785714285714	1.09297052154195
3930.694580078125	-0.9985855008925149	-0.3132464682233981	7.001407232108617	44.53594447524357	-13.27318805315917	-2.933383762337638	0.1909871244635193	0.02901785714285714	1.09297052154195
3934.600830078125	-0.8438950654318232	-0.3349953927800253	6.838486135019059	43.87505926411266	-12.86915204066395	-2.231217366253554	0.2060085836909871	0.046875	1.077097505668934
3938.507080078125	-0.8857217439326075	-0.3345771259950174	6.93952133203626	42.86849658449036	-13.56639642400431	-1.884663945796768	0.2060085836909871	0.046875	1.077097505668934
3942.413330078125	-0.8542547647782279	-0.2439827048774703	6.854047906394221	42.53703334950049	-14.64982806081013	-1.880458894128508	0.2060085836909871	0.046875	1.077097505668934
3946.319580078125	-0.6820873743218134	-0.09418922726688291	6.984247636262978	40.78806965890303	-15.41230066698346	-2.986950132526205	0.2060085836909871	0.046875	1.077097505668934
3950.225830078125	-0.5072108767016651	0.08588018957509748	6.843536649758345	39.76352314461432	-15.76522212820396	-3.003911848199775	0.2210300429184549	0.06026785714285714	1.079365079365079
3954.132080078125	-0.7336757687831224	0.179053929405003	7.041046266067331	38.07055221686493	-14.98976421463	-2.326101385458847	0.2210300429184549	0.06026785714285714	1.079365079365079
3958.038330078125	-0.7218473737558566	-0.002882536363451536	6.878614926606073	35.97881648778294	-15.74915341416029	-3.439478898692667	0.2210300429184549	0.06026785714285714	1.079365079365079
3961.944580078125	-0.4576305750969942	0.2975055986802629	6.987547305617786	35.68622635213276	-16.4168670927272	-2.359516873972519	0.2103004291845494	0.05133928571428571	1.070294784580499
3965.850830078125	-0.713865466453982	-0.002962355436470283	7.100832359683914	32.55863530526739	-16.44266271002914	-3.500947429384289	0.2103004291845494	0.05133928571428571	1.070294784580499
3969.757080078125	-0.6506224153815754	0.1681223857699774	6.898976232035089	31.90819472647311	-15.65860625735453	-2.442660114839438	0.2103004291845494	0.05133928571428571	1.070294784580499
3973.663330078125	-0.7062249753420187	0.2292844719756424	7.357191411752884	30.84477511284472	-16.42724567681394	-3.535378803564894	0.2103004291845494	0.05133928571428571	1.070294784580499
3977.569580078125	-0.9708235944736221	0.06021328644978673	7.286441080015272	29.16397715974802	-18.20483829031707	-3.19150660627597	0.2188841201716738	0.05803571428571428	1.074829931972789
3981.475830078125	-0.7853873963070618	0.3209851870943838	7.110168202134755	29.15353252741139	-18.58485873049646	-3.547627524736736	0.2188841201716738	0.05803571428571428	1.074829931972789
3985.382080078125	-0.6344303165798381	0.460889757711253	7.320582678391969	27.76155510879998	-19.33256598428306	-4.287414461002752	0.2188841201716738	0.05803571428571428	1.074829931972789
3989.288330078125	-0.6633114216331144	0.2692593768425938	7.147468693923688	26.71525515867997	-18.97899284223409	-4.67158842164147	0.2145922746781116	0.08482142857142856	1.08390022675737
3993.194580078125	-0.6329878836828164	0.582087454594404	7.176339388689807	25.31487436658076	-17.53582125009322	-5.07373998362069	0.2145922746781116	0.08482142857142856	1.08390022675737
3997.100830078125	-0.6128341449496234	0.5010778363989912	7.201781841901113	24.26771024530273	-15.71571262441601	-5.112884352303023	0.2145922746781116	0.08482142857142856	1.08390022675737
4001.007080078125	-0.7153462834196918	0.6132140688948031	7.248914056254901	22.86065442203177	-15.01473315360414	-5.867459723908215	0.2145922746781116	0.08482142857142856	1.08390022675737
4004.913330078125	-0.5327202031239399	0.3386605353645727	7.353652965455209	21.5359785697631	-15.31102493109231	-4.811853632531225	0.2231759656652361	0.08482142857142856	1.070294784580499
4008.819580078125	-0.6660043670837165	0.3803974174082109	7.416763238983888	19.81544334616868	-16.03780001920611	-5.198708816337803	0.2231759656652361	0.08482142857142856	1.070294784580499
4012.725830078125	-0.5744357698469423	0.4905928425469543	7.443576984694233	18.43391055989392	-16.40548683281334	-5.582374834143053	0.2231759656652361	0.08482142857142856	1.070294784580499
4016.632080078125	-0.533451520643158	0.3790718889438054	7.426784717377034	17.75127191293171	-15.29495621704864	-5.247420683024117	0.2296137339055794	0.1026785714285714	1.070294784580499
4020.538330078125	-0.5122129269159865	0.5101726343196651	7.343741671190494	17.02599056546493	-14.23797187837323	-5.991920613791861	0.2296137339055794	0.1026785714285714	1.070294784580499
4024.444580078125	-0.6156442628204316	0.4708029072746691	7.482793628981936	17.67556697310118	-13.55549284741959	-6.705178336380328	0.2296137339055794	0.1026785714285714	1.070294784580499
4028.350830078125	-0.4300040230255812	0.5598555957858116	7.286116588272402	16.25429691632869	-12.87236213563749	-7.81957173528108	0.2296137339055794	0.1026785714285714	1.070294784580499
4032.257080078125	-0.4310626152357203	0.6406742625159937	7.391975809286315	15.20422736504379	-12.15661731243889	-8.207442804754592	0.2253218884120172	0.08928571428571427	1.08390022675737
4036.163330078125	-0.2890005796023232	0.6190516219576395	7.471486531660894	15.90979653552811	-9.936207761737966	-7.136398826204433	0.2253218884120172	0.08928571428571427	1.08390022675737
4040.069580078125	-0.2701923034873605	0.7602776806106313	7.631475246695225	14.1637382749375	-9.594316565432678	-7.894163363810953	0.2253218884120172	0.08928571428571427	1.08390022675737
4043.975830078125	-0.6282403392214623	0.7537571508669623	7.721993105819696	13.47442459680355	-9.225978070996979	-7.911633022317988	0.240343347639485	0.09375	1.074829931972789
4047.882080078125	-0.3744802101877959	0.8017246000816761	7.85618428408571	12.46322814485834	-8.094515289559478	-7.223747118739613	0.240343347639485	0.09375	1.074829931972789
4051.788330078125	-0.3924157537936364	0.7210958747096536	7.608922318139146	12.82311984685126	-6.975386134694133	-6.508316115816753	0.240343347639485	0.09375	1.074829931972789
4055.694580078125	-0.4951177923930047	0.8130319860047384	7.675044545422912	12.47280860603695	-6.247959365751854	-6.522596608322463	0.240343347639485	0.09375	1.074829931972789
4059.600830078125	-0.5141886963463608	0.7728186546402315	7.54131861422791	12.10451353055623	-5.176209674689721	-6.900392236958526	0.2424892703862661	0.08482142857142856	1.081632653061225
4063.507080078125	-0.5158392112999555	0.6617240486786563	7.706370109587388	12.44642139788273	-3.71275759770452	-6.54847637016602	0.2424892703862661	0.08482142857142856	1.081632653061225
4067.413330078125	-0.5483304390240689	0.7630590619659984	7.89426839220281	10.68614890379061	-3.388715160428992	-7.6660589350681	0.2424892703862661	0.08482142857142856	1.081632653061225
4071.319580078125	-0.4870449754547631	0.6614361063202043	7.888171014864062	11.02719259995908	-0.4587275998155513	-6.96911347631921	0.2103004291845494	0.1183035714285714	1.070294784580499
4075.225830078125	-0.4053997113098325	0.6404176334767347	7.886909906493454	10.68355639031653	1.010891290455728	-6.630970159198947	0.2103004291845494	0.1183035714285714	1.070294784580499
4079.132080078125	-0.4691639776307427	0.8329744680591359	8.14088755899264	10.36457904651213	2.878379379936152	-5.576887896322357	0.2103004291845494	0.1183035714285714	1.070294784580499
4083.038330078125	-0.4385374075592217	0.6407490104392287	8.139455041636456	10.34950064185258	4.32706610453463	-5.591676331661533	0.2103004291845494	0.1183035714285714	1.070294784580499
4086.944580078125	-0.7338110819017418	0.7447118481927548	8.074985741194597	10.34486686952966	6.15577326931249	-5.250343848539942	0.2253218884120172	0.1026785714285714	1.063492063492063
4090.850830078125	-0.7749044226691664	0.533001569479217	8.102687164875825	9.994555628715352	6.883200038254768	-5.264624341045651	0.2253218884120172	0.1026785714285714	1.063492063492063
4094.757080078125	-0.6640325968527652	0.6329029522311541	8.239994379154073	9.305241950581397	7.251538532690465	-5.282093999552687	0.2253218884120172	0.1026785714285714	1.063492063492063
4098.663330078125	-0.8663215038453289	0.67532988170512	8.06072181310433	8.976684145598391	7.272470698363267	-4.929162247093248	0.2317596566523605	0.1071428571428571	1.074829931972789
4102.569580078125	-0.663218450553746	0.6227938006671537	8.158579749252151	8.622603303619195	8.362069148455165	-4.947139848433751	0.2317596566523605	0.1071428571428571	1.074829931972789
4106.475830078125	-0.8172603972750202	0.5738291696293158	8.256651972399982	8.651031770622245	8.39776666651469	-4.22750379384263	0.2317596566523605	0.1071428571428571	1.074829931972789
4110.382080078125	-0.9689528349497453	0.8177703364303057	8.119773290892891	8.329148996810986	9.160890953516493	-3.522148231757219	0.2317596566523605	0.1071428571428571	1.074829931972789
4114.288330078125	-0.7045198733777437	0.9262371179256967	8.207089378590695	7.939100485498963	10.9391352478481	-4.26715610535843	0.2188841201716738	0.1071428571428571	1.074829931972789
4118.194580078125	-0.9097946568714251	0.7262696637404316	8.326404462652711	8.323651053330043	12.45613360192259	-2.835786156679244	0.2188841201716738	0.1071428571428571	1.074829931972789
4122.100830078125	-0.8280625235184106	0.8971695141240732	8.316456433473709	6.556703528066167	12.03798391786912	-4.305792531207296	0.2188841201716738	0.1071428571428571	1.074829931972789
4126.007080078125	-1.054628426306942	0.9903442640610495	8.524067120490129	6.63444972674554	12.86941983434694	-2.154278585103523	0.2081545064377682	0.1026785714285714	1.068027210884354
4129.913330078125	-0.9405404195772938	0.9487993435897125	8.339756243443667	5.984873319109301	12.1869408033933	-1.441020862515056	0.2081545064377682	0.1026785714285714	1.068027210884354
4133.819580078125	-0.9211240590057435	0.9183021496809667	8.438936512819243	5.620347844793467	12.89651881330581	-1.815119382316326	0.2081545064377682	0.1026785714285714	1.068027210884354
4137.725830078125	-1.337560571230259	0.7305473228840199	8.245853041393245	4.250123862013363	11.44231695624973	-2.187694073617194	0.2081545064377682	0.1026785714285714	1.068027210884354
4141.632080078125	-1.35839108170085	0.7610586582917561	8.28808776192175	3.271989649394115	10.7807700909689	-1.121504598569289	0.2360515021459227	0.1428571428571428	1.077097505668934
4145.538330078125	-1.267008344165093	1.012670083441651	8.333487477733772	2.954740647905771	9.715187213192845	-0.7574815196054677	0.2360515021459227	0.1428571428571428	1.077097505668934
4149.444580078125	-1.462202217863895	0.6812886888453057	8.465119745573144	1.628023536788268	6.847996149597809	-0.3956317209760401	0.2360515021459227	0.1428571428571428	1.077097505668934
4153.350830078125	-1.576358911874354	1.005662579017734	8.656299350700662	0.6403088629904101	4.339893360509353	-0.03059275634528534	0.2145922746781116	0.1071428571428571	1.104308390022676
4157.257080078125	-1.431175645392359	0.8324935746357419	8.42368698821552	0.3456774684913937	1.101280395835581	0.3556129756272994	0.2145922746781116	0.1071428571428571	1.104308390022676
4161.163330078125	-1.279099367030752	0.7905687714480855	8.522181601034362	0.0539515039992382	-1.03296876635957	1.090545408391063	0.2145922746781116	0.1071428571428571	1.104308390022676
4165.069580078125	-1.257842591376307	0.891366304701642	8.437320362120484	-1.326717111117503	-2.867191063595035	0.3618497986294277	0.2145922746781116	0.1071428571428571	1.104308390022676
4168.975830078125	-1.350172809344421	0.8720875866793029	8.486668689544194	-1.654410744942484	-4.312794381550473	0.3697519591324824	0.2145922746781116	0.1272321428571428	1.08390022675737
4172.882080078125	-1.403844044585603	0.9130283394357551	8.751751397335843	-1.957445512929303	-5.360528500296766	1.093593065391864	0.2145922746781116	0.1272321428571428	1.08390022675737
4176.788330078125	-0.873935690944593	0.9077292558993451	8.822140523030729	-2.627911185238817	-6.803048411609165	1.094608951058798	0.2145922746781116	0.1272321428571428	1.08390022675737
4180.694580078125	-1.106004698283395	0.9100499459727331	8.559653501808871	-3.630704263696226	-7.862464476099143	1.444859480350376	0.2167381974248927	0.1138392857142857	1.070294784580499
4184.600830078125	-1.026086717229435	0.7375335944450219	8.731120702535391	-4.284050272497355	-8.182771825903158	2.154420094104049	0.2167381974248927	0.1138392857142857	1.070294784580499
4188.507080078125	-0.891644970566587	0.7866942274834438	8.552252158699513	-5.297287983291401	-9.622208330572517	2.148549704934861	0.2167381974248927	0.1138392857142857	1.070294784580499
4192.413330078125	-0.9971207631822168	0.7877489854096001	8.895749787609427	-4.940301711305343	-9.607442978185794	2.515254007066543	0.2167381974248927	0.1138392857142857	1.070294784580499
4196.319580078125	-0.8308766818175017	0.7052784637878722	8.597872263382829	-5.2755345474601	-10.32870293384199	2.51576194990001	0.2188841201716738	0.1160714285714286	1.081632653061225
4200.225830078125	-0.9237139735351296	0.8577219882201998	8.697927965757859	-5.256686541635661	-12.13956133959009	2.534247494073979	0.2188841201716738	0.1160714285714286	1.081632653061225
4204.132080078125	-0.8319716378821876	0.8467035547626605	8.707367869851417	-6.25947962009307	-13.19897740408007	2.884498023365558	0.2188841201716738	0.1160714285714286	1.081632653061225
4208.038330078125	-0.9451404471774594	1.039754434774805	8.799759003460228	-6.25947962009307	-13.19897740408007	2.884498023365558	0.2145922746781116	0.09375	1.070294784580499
4211.944580078125	-0.6105572811544476	0.7535803202862921	9.01491178891415	-6.241495785426657	-13.54330032619992	3.248013159495912	0.2145922746781116	0.09375	1.070294784580499
4215.850830078125	-0.8137977090076518	0.8667238356759353	8.930791308928436	-6.990571827573571	-14.3507206703619	1.442544691015457	0.2145922746781116	0.09375	1.070294784580499
4219.757080078125	-0.5495243443528276	0.9044851424334274	9.034067088343987	-6.941254095897248	-13.55498227194361	2.87442258252811	0.2145922746781116	0.09375	1.070294784580499
4223.663330078125	-0.5790175742909744	0.7229618929146271	8.922165592362758	-7.27444567320317	-11.70534294149295	3.56868681810914	0.2188841201716738	0.09821428571428571	1.074829931972789
4227.569580078125	-0.6727821442995449	0.9057177204328947	9.114949123832035	-7.653185381020529	-11.0136136906102	2.83477027101231	0.2188841201716738	0.09821428571428571	1.074829931972789
4231.475830078125	-0.6820933525065179	0.7643966911008229	9.025661781264031	-7.995957419505062	-11.01053028396716	2.827883996176189	0.2188841201716738	0.09821428571428571	1.074829931972789
4235.382080078125	-0.5077198882075997	0.7727539665588439	8.935254126882421	-7.299968710199358	-10.63667665707385	3.197777464309198	0.2296137339055794	0.1138392857142857	1.070294784580499
4239.288330078125	-0.8048521595602878	0.7757252892723708	9.056644527457355	-7.985512787168424	-10.63050984378777	3.184004914636955	0.2296137339055794	0.1138392857142857	1.070294784580499
4243.194580078125	-0.7545526617212477	0.9671414862131722	9.128735559879862	-7.628526515182366	-10.61574449140105	3.550709216768637	0.2296137339055794	0.1138392857142857	1.070294784580499
4247.100830078125	-0.6414262769229472	0.8447981011530681	9.040586875968176	-8.706160362312289	-11.40223266989022	2.098172500747621	0.2296137339055794	0.1138392857142857	1.070294784580499
4251.007080078125	-0.5886095922636143	0.7129568029933433	8.86095922636142	-8.653937200629105	-9.502130468993311	3.878777093051452	0.2231759656652361	0.1004464285714286	1.070294784580499
4254.913330078125	-0.6138259876353733	0.814219067957162	9.341782437006724	-9.008018042608303	-8.412532018901413	3.860799491710949	0.2231759656652361	0.1004464285714286	1.070294784580499
4258.819580078125	-0.6535556838572942	0.8550204053234215	9.233119406137588	-9.054430344277764	-8.103906614841083	2.777648300989474	0.2231759656652361	0.1004464285714286	1.070294784580499
4262.725830078125	-0.5534859842842834	0.7732116275196106	9.430231081489563	-9.739974421246828	-8.097739801555004	2.763875751317233	0.2467811158798283	0.09375	1.077097505668934
4266.632080078125	-0.5928338600334633	0.6826960153680115	9.283386003346324	-8.701213673456595	-7.72696958130474	3.140655494286362	0.2467811158798283	0.09375	1.077097505668934
4270.538330078125	-0.4100683849619486	0.6808683606172963	9.374185434970373	-10.09405526322602	-7.008141351463107	2.745898149976729	0.2467811158798283	0.09375	1.077097505668934
4274.444580078125	-0.4501556590869127	0.8125823646716774	9.301280194405555	-9.38008271925391	-6.97861064668966	3.479306754240092	0.2467811158798283	0.09375	1.077097505668934
4278.350830078125	-0.3687184769985553	0.8016669827497838	9.320827291692261	-9.819448962242255	-5.996104750776339	1.302420989126228	0.2467811158798283	0.1004464285714286	1.081632653061225
4282.257080078125	-0.5323867853328744	0.6315864941159552	9.361127512879282	-8.392368045456053	-4.470507857601205	3.114267789609337	0.2467811158798283	0.1004464285714286	1.081632653061225
4286.163330078125	-0.5115683961471322	0.6212773001230876	9.32010492083567	-9.110110190593057	-4.137866881225032	2.377162076511181	0.2467811158798283	0.1004464285714286	1.081632653061225
4290.069580078125	-0.4927116348927737	0.6816947931166045	9.475245121930433	-9.146077859925882	-3.449221036985319	1.650131804250472	0.2424892703862661	0.1049107142857143	1.058956916099773
4293.975830078125	-0.3210472777575895	0.6597761293432326	9.655748183922212	-9.831621936894946	-3.443054223699241	1.63635925457823	0.2424892703862661	0.1049107142857143	1.058956916099773
4297.882080078125	-0.2988692844546266	0.7403624302182836	9.478765180156532	-9.84293074038961	-2.356539180250383	1.625267928073848	0.2424892703862661	0.1049107142857143	1.058956916099773
4301.788330078125	-0.3700235353339558	0.6198618515149559	9.451333125232313	-9.890207213217099	-0.5813782925618114	0.8871463293087581	0.2424892703862661	0.1049107142857143	1.058956916099773
4305.694580078125	-0.5318271860156826	0.5406718072136923	9.305167581160095	-9.540760143560817	0.1577304221241508	1.246456413770852	0.2424892703862661	0.1049107142857143	1.058956916099773
4309.600830078125	-0.5439929568045765	0.6115005356286519	9.501336496784186	-9.230186173244224	0.4811211785712053	0.5300095251810581	0.2424892703862661	0.1049107142857143	1.058956916099773
4313.507080078125	-0.6990389499541697	0.5524449349540873	9.699813362763914	-8.516213629272109	0.5106518833446523	1.263418129444421	0.2424892703862661	0.1049107142857143	1.058956916099773
4317.413330078125	-0.6979520747460497	0.5928381066060465	9.59112584195192	-8.141243522619638	0.1810943136115192	1.993637567706456	0.2467811158798283	0.09375	1.079365079365079
4321.319580078125	-0.5321948649894332	0.4800694233973692	9.341935478535158	-8.21608429129215	0.4540221996123247	0.1908503223938611	0.2467811158798283	0.09375	1.079365079365079
4325.225830078125	-0.4323473889719859	0.6002830698493159	9.561269509443486	-8.209409260120401	1.196214320941326	0.5432741320198334	0.2467811158798283	0.09375	1.079365079365079
4329.132080078125	-0.4132825456610542	0.6505974719212571	9.695601504880933	-9.267018013735075	2.636302506439159	0.1480088448767342	0.2467811158798283	0.09375	1.079365079365079
4333.038330078125	-0.6141492218980112	1.01624250231999	9.374105863270515	-7.896794030954971	4.090504363495242	0.5205835361776029	0.2467811158798283	0.09375	1.079365079365079
4336.944580078125	-0.8016884629858594	0.7251886018015758	9.760683033279813	-7.914777865621383	4.434827285615098	0.1570684000472487	0.2467811158798283	0.09375	1.079365079365079
4340.850830078125	-0.8431211997290537	0.5740877776538563	9.82232405453802	-8.267994536442554	4.057890252078756	-0.2059387932496387	0.2467811158798283	0.09375	1.079365079365079
4344.757080078125	-0.8106703762877701	0.3717430673992414	9.638466200205572	-7.911008264456496	4.072655604465479	0.1607655088820426	0.2317596566523605	0.09151785714285714	1.061224489795918
4348.663330078125	-0.7568981303395139	0.3308013045357184	9.363282421706488	-7.586220060638375	4.413895119942296	-0.1958633524121905	0.2317596566523605	0.09151785714285714	1.061224489795918
4352.569580078125	-0.7490839008113827	0.4418342733515483	9.60226763215867	-7.582450459473487	4.051723438792677	-0.1921662435773966	0.2317596566523605	0.09151785714285714	1.061224489795918
