Time Stamp	Accelerometer X	Accelerometer Y	Accelerometer Z	Gyroscope X	Gyroscope Y	Gyroscope Z	Magnetometer X	Magnetometer Y	Magnetometer Z
946.319580078125	-2.723932319681322	-9.00306370710622	1.985068702826153	-54.48075649145263	56.68578748052579	-29.35431473125302	-0.09227467811158799	-0.9821428571428571	0.5827664399092971
950.225830078125	-2.866309508720791	-8.961235894811784	1.937073321058768	-45.93603568023779	40.70039348628078	0.4728365026115728	-0.09227467811158799	-0.9821428571428571	0.5827664399092971
954.132080078125	-2.724198987947999	-9.063667101029612	2.011735529493779	-1.663963286536388	52.77922311359496	-2.719344878161642	-0.09227467811158799	-0.9821428571428571	0.5827664399092971
958.038330078125	-2.886186478116601	-9.173158337239036	1.883953934109093	30.23619223199421	83.27397578686693	-2.386289294523749	-0.09227467811158799	-0.9821428571428571	0.5827664399092971
961.944580078125	-2.885794556573153	-9.152960236252451	1.844761779764247	34.66958779587601	105.8869851750225	-5.761161549070116	-0.09227467811158799	-0.9821428571428571	0.5827664399092971
965.850830078125	-3.111085704238406	-8.827475001543476	1.924896954452846	30.45603410683323	125.2440264688772	-3.521017424278726	-0.08798283261802575	-0.9933035714285714	0.5600907029478458
969.757080078125	-2.786209708394099	-8.931733862512019	2.090358594511906	25.54994839311685	138.3610722013255	-3.030885135445883	-0.08798283261802575	-0.9933035714285714	0.5600907029478458
973.663330078125	-2.917004968531563	-8.829415808900544	1.904578485809402	8.885975379548613	28.43906703630905	-1.905232313851255	-0.08798283261802575	-0.9933035714285714	0.5600907029478458
977.569580078125	-2.83689102670588	-8.991833109934964	2.056449609363499	2.43969279451469	-8.04290710888219	-0.9499137636683663	-0.08798283261802575	-0.9933035714285714	0.5600907029478458
981.475830078125	-2.949589126106185	-8.909898048132879	2.101769753475664	2.724192473209849	0.3196556689755424	-0.3084249374413858	-0.08798283261802575	-0.9933035714285714	0.5600907029478458
985.382080078125	-3.03168893843295	-9.141400282332844	2.148485680029727	0.6420372053064641	1.406822393252873	-0.7206519402580541	-0.08798283261802575	-0.9933035714285714	0.5600907029478458
989.288330078125	-2.867861033181454	-8.900614318961116	2.09222576712496	-1.050933722442926	2.182280306826834	-0.04284147751712686	-0.08798283261802575	-0.9933035714285714	0.5600907029478458
993.194580078125	-2.837539515445297	-8.921119554340498	2.121298483305227	-2.101003273727825	2.898025130025427	-0.4307125469906382	-0.08583690987124463	-0.9977678571428571	0.5532879818594104
997.100830078125	-2.916800926903273	-9.001135021033999	1.884174322980385	-2.775238547202227	1.817676899862648	-0.4333937701584984	-0.08583690987124463	-0.9977678571428571	0.5532879818594104
1001.007080078125	-3.102752279675912	-8.403315911546677	2.111962661468816	-2.761024313700702	1.835525658892411	-0.07357574286293815	-0.08583690987124463	-0.9977678571428571	0.5532879818594104
1004.913330078125	-2.754294241700309	-9.083568168694109	1.960036414928859	-3.096257149855459	1.114265703236212	-0.07306780002947129	-0.08583690987124463	-0.9977678571428571	0.5532879818594104
1008.819580078125	-2.868743866761283	-9.11272670274653	2.180509125107936	-2.406943471721505	0.7459272088005136	-0.05559814152243525	-0.08583690987124463	-0.9977678571428571	0.5532879818594104
1012.725830078125	-3.113008948101101	-8.989071930721011	2.117221340722396	-2.403173870556617	0.3837555276508943	-0.0519010326876413	-0.08583690987124463	-0.9977678571428571	0.5532879818594104
1016.632080078125	-2.632220287240503	-8.963576787026586	1.997538928131941	-2.759295971384648	-1.097545308364069	-0.763634926775707	-0.08583690987124463	-0.9977678571428571	0.5532879818594104
1020.538330078125	-2.818361540142442	-8.891008303790496	2.244317279550348	-2.420293534065002	-0.7384570338574893	-0.7604457607743799	-0.08369098712446352	-1.022321428571429	0.5600907029478458
1024.444580078125	-2.695566369234125	-8.96294332620665	2.209698147902349	-1.381532786274768	-0.367686813607225	-0.3836660178052504	-0.08369098712446352	-1.022321428571429	0.5600907029478458
1028.350830078125	-3.032054597192559	-8.868669353017976	2.185051555990639	-2.409848901728366	-0.3584365936781072	-0.4043248423136136	-0.08369098712446352	-1.022321428571429	0.5600907029478458
1032.257080078125	-2.797508807316295	-8.790206730108657	2.199860323466209	-1.738519058260825	-0.3824521659939485	-0.7503703199369317	-0.09871244635193133	-1.006696428571429	0.5668934240362812
1036.163330078125	-2.76559940126493	-8.931939965583311	2.070144208125608	-2.420293534065002	-0.7384570338574893	-0.7604457607743799	-0.09871244635193133	-1.006696428571429	0.5668934240362812
1040.069580078125	-2.69652395073719	-8.882125669583539	2.305456298208826	-2.424063135229891	-0.3762853527078699	-0.7641428696091739	-0.09871244635193133	-1.006696428571429	0.5668934240362812
1043.975830078125	-2.919457508499328	-8.950603404712988	2.149832482585908	-2.056632230907196	0.01850043985823565	-0.04131764901672629	-0.09871244635193133	-1.006696428571429	0.5668934240362812
1047.882080078125	-2.909954379948914	-8.960799446099502	2.219927790809788	-1.728074425924188	-0.002431725814566389	-0.3942494014761655	-0.09442060085836909	-1.004464285714286	0.5532879818594104
1051.788330078125	-2.785565260082965	-9.164063539318363	2.025913763398475	-2.088830299075134	0.3449746029483294	-0.7646508124426407	-0.09442060085836909	-1.004464285714286	0.5532879818594104
1055.694580078125	-2.643258778538447	-8.751345189992396	2.080979894661063	-2.060401832072084	0.380672121007855	-0.04501475785152025	-0.09442060085836909	-1.004464285714286	0.5532879818594104
1059.600830078125	-2.898877504582282	-8.90030415424711	2.132648417411841	-1.731844027089076	0.359739955335053	-0.3979465103109594	-0.1008583690987124	-0.9977678571428571	0.5600907029478458
1063.507080078125	-2.693182516547171	-9.06397726574362	1.971312879206898	-1.374857755103019	0.3745053077217764	-0.03124220817927815	-0.1008583690987124	-0.9977678571428571	0.5600907029478458
1067.413330078125	-2.845462836537069	-8.85033325042251	1.893222429217074	-1.032085716618486	0.3714219010787372	-0.0243559333431571	-0.1008583690987124	-0.9977678571428571	0.5600907029478458
1071.319580078125	-2.929312154310361	-8.859595767345789	2.1148889004239	-1.731844027089076	0.359739955335053	-0.3979465103109594	-0.1008583690987124	-0.9977678571428571	0.5600907029478458
1075.225830078125	-2.888039014484344	-8.779200417935966	2.069207570883438	-1.731844027089076	0.359739955335053	-0.3979465103109594	-0.08583690987124463	-0.9933035714285714	0.5600907029478458
1079.132080078125	-2.877962145117748	-9.072230479558925	2.081928797489091	-1.39951662094118	-0.02336389148736843	-0.7471811539356047	-0.08583690987124463	-0.9933035714285714	0.5600907029478458
1083.038330078125	-2.795706776302088	-8.931638891832939	2.01965722204558	-1.756502892927238	-0.03812924387409192	-1.113885456067286	-0.08583690987124463	-0.9933035714285714	0.5600907029478458
1086.944580078125	-2.806220011923246	-8.921432749375718	2.050572620896043	-1.728074425924188	-0.002431725814566389	-0.3942494014761655	-0.09012875536480687	-1.017857142857143	0.5510204081632654
1090.850830078125	-2.814723134473624	-9.062761859564356	1.880476712668563	-2.074616065573609	0.3628233619780922	-0.4048327851470805	-0.09012875536480687	-1.017857142857143	0.5510204081632654
1094.757080078125	-2.870129733662344	-8.9915007228654	2.319095815213935	-2.103044532576658	0.3271258439185667	-1.124468839738201	-0.09012875536480687	-1.017857142857143	0.5510204081632654
1098.663330078125	-3.040515295245966	-9.080705958158653	2.010713198066037	-2.795263640717473	-0.4088994641243562	-1.490665199036415	-0.09012875536480687	-1.017857142857143	0.5510204081632654
1102.569580078125	-3.060810448969064	-9.100705026823443	1.99941224384514	-1.392841589769432	0.718828229841633	-0.3947573443096323	-0.09227467811158799	-1.008928571428571	0.5759637188208617
1106.475830078125	-2.878948009618794	-9.112624661317955	2.180515247593651	-1.731844027089076	0.359739955335053	-0.3979465103109594	-0.09227467811158799	-1.008928571428571	0.5759637188208617
1110.382080078125	-2.958554877694964	-9.121929602738204	1.977936749088234	-1.742288659425713	-0.02028048484432915	-0.7540674287717257	-0.09227467811158799	-1.008928571428571	0.5759637188208617
1114.288330078125	-2.766763044610426	-9.012736409957938	2.186508542675252	-2.099274931411771	-0.03504583723105265	-1.120771730903407	-0.08369098712446352	-0.9933035714285714	0.564625850340136
1118.194580078125	-2.846279003050229	-8.668506906939196	1.974839080533144	-1.728074425924188	-0.002431725814566389	-0.3942494014761655	-0.08369098712446352	-0.9933035714285714	0.564625850340136
1122.100830078125	-2.950292160627423	-8.748274856171506	2.172073205599407	-1.378627356267907	0.7366769888713958	-0.0349393170140721	-0.08369098712446352	-0.9933035714285714	0.564625850340136
1126.007080078125	-2.867663052195588	-9.062232460387136	2.072427668538388	-2.427832736394778	-0.0141136715582506	-0.7678399784439678	-0.08369098712446352	-0.9933035714285714	0.564625850340136
1129.913330078125	-3.002203789351369	-8.778058770187297	2.261195261667551	-2.081291096745358	-0.3793687593509092	-0.7572565947730527	-0.09656652360515021	-1.022321428571429	0.564625850340136
1133.819580078125	-2.796480518318278	-8.820520043301666	2.097031423664527	-2.060401832072084	0.380672121007855	-0.04501475785152025	-0.09656652360515021	-1.022321428571429	0.564625850340136
1137.725830078125	-2.876705571921743	-8.809616782664623	1.956271477888608	-2.060401832072084	0.380672121007855	-0.04501475785152025	-0.09656652360515021	-1.022321428571429	0.564625850340136
1141.632080078125	-2.664683231966635	-8.741029935357103	2.182608910949281	-2.056632230907196	0.01850043985823565	-0.04131764901672629	-0.08798283261802575	-1.008928571428571	0.546485260770975
1145.538330078125	-2.93974458136586	-9.152420736004524	2.137723442708416	-1.667447890753201	-0.2932083708451347	1.048719816540869	-0.08798283261802575	-1.008928571428571	0.546485260770975
1149.444580078125	-2.867467091423864	-9.052133409893845	2.052831591365966	-1.014101881952074	0.02709897895888059	0.3391592027871971	-0.08798283261802575	-1.008928571428571	0.546485260770975
1153.350830078125	-2.887406687458059	-8.991327953327442	2.0059748682549	-1.685431725419614	0.05111455127472191	0.6852046804105152	-0.08798283261802575	-1.008928571428571	0.546485260770975
1157.257080078125	-2.858968009301769	-9.072420420917084	2.223331542421743	-1.356873920436606	0.03018238560191986	0.332272927951076	-0.08798283261802575	-1.011160714285714	0.564625850340136
1161.163330078125	-2.866935775104652	-8.759209430127743	1.999699959444861	-0.9961180472856607	-0.317223943160976	0.7026743389175513	-0.08798283261802575	-1.011160714285714	0.564625850340136
1165.069580078125	-2.805775564812119	-8.820427092836727	2.006127909783332	-0.9923484461207727	-0.6793956243105954	0.7063714477523452	-0.08798283261802575	-1.011160714285714	0.564625850340136
1168.975830078125	-2.968215582948415	-8.849105722958397	1.923599111167951	-0.9998876484505487	0.04494773798864335	0.6989772300827574	-0.08369098712446352	-1.004464285714286	0.5555555555555556
1172.882080078125	-2.724283836941941	-8.922252111125532	2.020220428888024	-1.331350883440418	-1.038483898817175	0.7031822817510182	-0.08369098712446352	-1.004464285714286	0.5555555555555556
1176.788330078125	-2.909021041015547	-9.001212819892876	2.126593897473095	-1.345565116941942	-1.056332657846938	0.3433642544554579	-0.08369098712446352	-1.004464285714286	0.5555555555555556
1180.694580078125	-2.917972651105336	-8.900113202781878	2.001346743186623	-1.345565116941942	-1.056332657846938	0.3433642544554579	-0.08369098712446352	-1.004464285714286	0.5555555555555556
1184.600830078125	-3.00940589399463	-8.899198870352985	1.960997562728316	-0.9781342126192479	-0.6615468652808326	1.066189475047906	-0.1051502145922747	-1	0.5714285714285714
1188.507080078125	-3.165183204663442	-8.917843117448315	2.232606180629869	-0.9885788449558849	-1.041567305460215	0.7100685565871392	-0.1051502145922747	-1	0.5714285714285714
1192.413330078125	-2.84913356563215	-8.96140765424267	2.260295338725238	-2.041553826247644	-1.430186284740242	-0.02652921367755048	-0.1051502145922747	-1	0.5714285714285714
1196.319580078125	-2.890099632908661	-8.880189912761825	2.275269413315099	-1.320906251103781	-0.6584634586377933	1.059303200211784	-0.08798283261802575	-1.015625	0.562358276643991
1200.225830078125	-2.804763437527234	-8.992154385826749	1.90491518129484	-0.9856734149490239	0.06279649701840612	1.058795257378317	-0.08798283261802575	-1.015625	0.562358276643991
1204.132080078125	-3.000904791658393	-9.091203073295539	2.131295492369945	-1.353104319271718	-0.3319892955476995	0.33597003678587	-0.08798283261802575	-1.015625	0.562358276643991
1208.038330078125	-2.509849361301899	-8.833487364972841	2.005344293455166	-1.353104319271718	-0.3319892955476995	0.33597003678587	-0.08798283261802575	-1.015625	0.562358276643991
1211.944580078125	-2.887709719579282	-8.991324923006228	2.036278080377202	-0.9789983837772751	0.8049886183474075	1.41121906700429	-0.09442060085836909	-1	0.5668934240362812
1215.850830078125	-2.836876885206889	-9.183752443269144	2.055035459464458	-1.003657249615437	0.4071194191382627	0.6952801212479633	-0.09442060085836909	-1	0.5668934240362812
1219.757080078125	-2.79505626734853	-9.174069639346717	1.954606326689702	-0.9969822184436877	1.149311540467264	1.047703930873936	-0.09442060085836909	-1	0.5668934240362812
1223.663330078125	-3.040230445052016	-9.050405776357563	1.982228178671072	-1.703415560086027	0.3954374733945785	0.3216895442801611	-0.09656652360515021	-1.002232142857143	0.546485260770975
1227.569580078125	-2.989633975734178	-8.848891539030538	2.024622063213724	-1.703415560086027	0.3954374733945785	0.3216895442801611	-0.09656652360515021	-1.002232142857143	0.546485260770975
1231.475830078125	-2.837349615315997	-8.900919433139771	2.102308470375251	0.02756429584502254	1.502233001687766	1.064665646547505	-0.09656652360515021	-1.002232142857143	0.546485260770975
1235.382080078125	-3.029991958554101	-8.939397050111431	1.97878769214483	-1.703415560086027	0.3954374733945785	0.3216895442801611	-0.09656652360515021	-1.002232142857143	0.546485260770975
1239.288330078125	-3.163223596946199	-8.816852612515387	2.036645408905643	-1.350198889264858	0.7723745069309212	0.6846967375770483	-0.1072961373390558	-1.006696428571429	0.5532879818594104
1243.194580078125	-2.978037905333184	-8.980320631047681	1.885423186379564	-0.3152077426395102	1.505316408330805	1.057779371711384	-0.1072961373390558	-1.006696428571429	0.5532879818594104
1247.100830078125	-2.85807305443709	-8.88051017854654	2.133836055953875	-1.350198889264858	0.7723745069309212	0.6846967375770483	-0.1072961373390558	-1.006696428571429	0.5532879818594104
1251.007080078125	-3.010868529033067	-8.818376163194518	2.107261066571966	-1.003657249615437	0.4071194191382627	0.6952801212479633	-0.09871244635193133	-0.9977678571428571	0.5600907029478458
1254.913330078125	-2.987278406045204	-9.071137316949651	1.789065094316355	-0.6399959464576302	1.164076892853988	1.414408233005617	-0.09871244635193133	-0.9977678571428571	0.5600907029478458
1258.819580078125	-2.64349312337886	-9.034171129372275	2.104414378702311	-0.6466709776293792	0.4218847715249862	1.061984423379645	-0.09871244635193133	-0.9977678571428571	0.5600907029478458
1262.725830078125	-3.048612354753906	-8.888705795644382	1.800010985594671	-0.6504405787942671	0.7840564526746056	1.058287314544851	-0.09871244635193133	-0.9977678571428571	0.5600907029478458
1266.632080078125	-2.848460834323035	-9.072525492666873	2.193022207813726	-1.338890085770194	-0.3141405365179367	0.6957880640814302	-0.09012875536480687	-1.008928571428571	0.5532879818594104
1270.538330078125	-2.907487698482159	-9.03153118362124	1.973259644134241	-0.9998876484505487	0.04494773798864335	0.6989772300827574	-0.09012875536480687	-1.008928571428571	0.5532879818594104
1274.444580078125	-2.928752554993169	-8.95051045424805	2.058928968704714	-0.6466709776293792	0.4218847715249862	1.061984423379645	-0.09012875536480687	-1.008928571428571	0.5532879818594104
1278.350830078125	-2.825129298745284	-9.06265779792164	1.900684976569146	-0.9714591814474991	0.08064525604816888	1.418613284673878	-0.09012875536480687	-1.015625	0.5578231292517007
1282.257080078125	-3.020444385292574	-9.1920177783693	2.044438529257439	-0.9998876484505487	0.04494773798864335	0.6989772300827574	-0.09012875536480687	-1.015625	0.5578231292517007
1286.163330078125	-2.91791002446695	-9.172841101775534	1.995084079348014	0.04931773167632323	0.7957383984182897	1.431877891512653	-0.09012875536480687	-1.015625	0.5578231292517007
1290.069580078125	-3.049893170519609	-9.110915209708947	1.928092562164939	-0.9856734149490239	0.06279649701840612	1.058795257378317	-0.09012875536480687	-1.015625	0.5578231292517007
1293.975830078125	-2.916087791311329	-9.011243162490929	1.812860763785898	-0.2934543068082095	0.798821805061329	1.424991616676532	-0.09227467811158799	-1.002232142857143	0.546485260770975
1297.882080078125	-2.71318069879147	-9.073878294022188	1.930314777106144	-0.9998876484505487	0.04494773798864335	0.6989772300827574	-0.09227467811158799	-1.002232142857143	0.546485260770975
1301.788330078125	-2.785965262482978	-9.002443377678201	2.065914003399914	-0.9856734149490239	0.06279649701840612	1.058795257378317	-0.09227467811158799	-1.002232142857143	0.546485260770975
1305.694580078125	-2.957488204628259	-8.879516027044629	1.871269442417727	-0.6399959464576302	1.164076892853988	1.414408233005617	-0.0815450643776824	-1.006696428571429	0.5736961451247166
1309.600830078125	-2.867574162773362	-9.042031329079338	2.063538726315846	-0.9932126172787999	0.7871398593176447	1.05140103970873	-0.0815450643776824	-1.006696428571429	0.5736961451247166
1313.507080078125	-2.714548383765256	-8.982955526263359	2.067083274484805	-0.2972239079730974	1.160993486210948	1.421294507841738	-0.0815450643776824	-1.006696428571429	0.5736961451247166
1317.413330078125	-2.947241637273777	-8.950325563425244	1.86702087023489	-0.6504405787942671	0.7840564526746056	1.058287314544851	-0.0815450643776824	-1.006696428571429	0.5736961451247166
1321.319580078125	-2.867681234122861	-9.031929248264834	2.074245861265727	-0.3009935091379854	1.523165167360568	1.417597399006944	-0.1030042918454936	-0.9888392857142857	0.5374149659863946
1325.225830078125	-2.805664453034337	-8.668913052439354	1.995016732005154	-0.6399959464576302	1.164076892853988	1.414408233005617	-0.1030042918454936	-0.9888392857142857	0.5374149659863946
1329.132080078125	-2.823802018054327	-9.254590262647742	1.767956907473459	-1.025410685446737	1.113614022407738	0.3280678762828152	-0.1030042918454936	-0.9888392857142857	0.5374149659863946
1333.038330078125	-2.796223951122309	-8.911431699882717	2.071374704067643	-1.350198889264858	0.7723745069309212	0.6846967375770483	-0.1030042918454936	-1.008928571428571	0.5578231292517007
1336.944580078125	-2.937508204311234	-8.839311786643757	1.91408573724582	-0.3152077426395102	1.505316408330805	1.057779371711384	-0.1030042918454936	-1.008928571428571	0.5578231292517007
1340.850830078125	-2.77246210993242	-9.11368952031482	1.736006911609394	-1.014966053110101	1.493634462587121	0.6841887947435815	-0.1030042918454936	-1.008928571428571	0.5578231292517007
1344.757080078125	-2.843571916100637	-8.971564280838997	1.704130385573903	-0.6864082481270926	1.472702296914319	0.3312570422841423	-0.1030042918454936	-1.008928571428571	0.5578231292517007
1348.663330078125	-3.151855810743193	-8.736158209569338	1.920274951870285	-1.374857755103019	0.3745053077217764	-0.03124220817927815	-0.09871244635193133	-1	0.5555555555555556
1352.569580078125	-2.939312255539582	-9.031212938050666	2.094490860080597	-1.029180286611625	1.475785703557358	0.3243707674480213	-0.09871244635193133	-1	0.5555555555555556
1356.475830078125	-2.937995075919332	-8.869609948230707	1.962772898055653	-1.378627356267907	0.7366769888713958	-0.0349393170140721	-0.09871244635193133	-1	0.5555555555555556
1360.382080078125	-2.62237978292846	-8.862665091059608	2.03389666019299	-1.050069551284899	0.7157448231985937	-0.3878710694735113	-0.08583690987124463	-0.9955357142857142	0.5714285714285714
1364.288330078125	-2.866988300672332	-8.840016985680146	2.004952516212727	-1.385302387439656	-0.005515132457605664	-0.3873631266400444	-0.08583690987124463	-0.9955357142857142	0.5714285714285714
1368.194580078125	-2.8479234573614	-8.789702583608207	2.139284511650175	-1.36818272393127	1.116697429050778	0.3211816014466942	-0.08583690987124463	-0.9955357142857142	0.5714285714285714
1372.100830078125	-2.74570829037013	-8.911936856490239	2.121849445176243	-1.392841589769432	0.718828229841633	-0.3947573443096323	-0.08583690987124463	-0.9955357142857142	0.5714285714285714
1376.007080078125	-2.735700108284344	-8.922137948412107	2.141439399862951	-1.72139939475244	0.7397603955144351	-0.04182559185019315	-0.09656652360515021	-1.002232142857143	0.5600907029478458
1379.913330078125	-2.79910477648807	-8.992210972437142	2.359457240643671	-2.438277368731415	-0.3941341117376327	-1.123960896904734	-0.09656652360515021	-1.002232142857143	0.5600907029478458
1383.819580078125	-2.673881308181685	-8.902554116211116	2.08200836918895	-1.735613628253964	0.7219116364846723	-0.4016436191457534	-0.09656652360515021	-1.002232142857143	0.5600907029478458
1387.725830078125	-2.959960946737439	-8.798683218815455	2.11854365333572	-1.032085716618486	0.3714219010787372	-0.0243559333431571	-0.08369098712446352	-1.002232142857143	0.5714285714285714
1391.632080078125	-2.723950501608596	-8.972760494983918	1.986886895553491	-1.742288659425713	-0.02028048484432915	-0.7540674287717257	-0.08369098712446352	-1.002232142857143	0.5714285714285714
1395.538330078125	-2.846436579753265	-8.910929573596409	1.990596750836741	-1.756502892927238	-0.03812924387409192	-1.113885456067286	-0.08369098712446352	-1.002232142857143	0.5714285714285714
1399.444580078125	-2.683032919471481	-8.973169670805287	1.976761334903198	-2.417388104058142	0.3659067686211315	-0.4117190599832015	-0.08369098712446352	-1.002232142857143	0.5714285714285714
1403.350830078125	-2.764427677062868	-9.032961783835434	1.95297178791937	-1.746058260590601	0.3418911963052902	-0.7577645376065196	-0.09871244635193133	-0.9955357142857142	0.5532879818594104
1407.257080078125	-2.641646647653541	-8.912977472917406	1.919766806170411	-2.099274931411771	-0.03504583723105265	-1.120771730903407	-0.09871244635193133	-0.9955357142857142	0.5532879818594104
1411.163330078125	-2.725120205596517	-9.043455868651108	2.10385729434558	-2.106814133741547	0.6892975250681861	-1.128165948572995	-0.09871244635193133	-0.9955357142857142	0.5532879818594104
1415.069580078125	-2.662646856112016	-9.104686662752014	1.978971325487405	-1.39661119093432	1.080999910991252	-0.3984544531444263	-0.09871244635193133	-1.011160714285714	0.5487528344671202
1418.975830078125	-2.930487918940707	-8.920190070305544	2.232465363458436	-1.749827861755489	0.7040628774549096	-0.7614616464413136	-0.09871244635193133	-1.011160714285714	0.5487528344671202
1422.882080078125	-2.815664554263557	-8.840530223144233	1.974618691661852	-1.756502892927238	-0.03812924387409192	-1.113885456067286	-0.09871244635193133	-1.011160714285714	0.5487528344671202
1426.788330078125	-2.96880750569187	-9.041018995650154	1.982791385513517	-2.099274931411771	-0.03504583723105265	-1.120771730903407	-0.09871244635193133	-1.011160714285714	0.5487528344671202
1430.694580078125	-2.600674519734606	-9.004296285105685	1.904186667338104	-2.124797968407959	1.033620447188043	-1.491681084703349	-0.1287553648068669	-0.9866071428571428	0.5419501133786848
1434.600830078125	-2.776377284938622	-9.154054408968797	2.127524412229549	-2.088830299075134	0.3449746029483294	-0.7646508124426407	-0.1287553648068669	-0.9866071428571428	0.5419501133786848
1438.507080078125	-2.857125574004733	-9.112842885674095	2.039088012718141	-1.746058260590601	0.3418911963052902	-0.7577645376065196	-0.1287553648068669	-0.9866071428571428	0.5419501133786848
1442.413330078125	-2.74403757327512	-9.002862654570281	1.954777735675279	-2.109719563748408	-0.4150662774104348	-1.476892649364173	-0.09656652360515021	-1.002232142857143	0.5600907029478458
1446.319580078125	-2.837402140883676	-8.981726988692175	2.107561027143117	-1.770717126428763	-0.05597800290385468	-1.473703483362846	-0.09656652360515021	-1.002232142857143	0.5600907029478458
1450.225830078125	-3.05094166165904	-8.878581492474321	2.032941676108107	-1.403286222106068	0.3388077896622509	-0.7508782627703986	-0.09656652360515021	-1.002232142857143	0.5600907029478458
1454.132080078125	-2.642923422990961	-8.973570765770093	2.047444339912381	-2.456261203397828	-0.04981118961777613	-1.487476033035088	-0.09656652360515021	-1.002232142857143	0.5600907029478458
1458.038330078125	-2.939673873870908	-9.101916392574424	2.130652693213212	-1.756502892927238	-0.03812924387409192	-1.113885456067286	-0.1030042918454936	-0.9977678571428571	0.5555555555555556
1461.944580078125	-2.847024462068438	-8.941226725076287	2.049384982354009	-1.774486727593651	0.3061936782457647	-1.47740059219764	-0.1030042918454936	-0.9977678571428571	0.5555555555555556
1465.850830078125	-3.063279150649961	-8.858256097382391	2.246282411934835	-1.770717126428763	-0.05597800290385468	-1.473703483362846	-0.1030042918454936	-0.9977678571428571	0.5555555555555556
1469.757080078125	-2.979617712791826	-9.040910893579154	2.043403932243837	-1.417500455607593	0.3209590306324882	-1.110696290065959	-0.1030042918454936	-0.9977678571428571	0.546485260770975
1473.663330078125	-2.706970519291679	-8.983031304908094	2.329704990392384	-1.364413122766382	0.7545257479011586	0.3248787102814881	-0.1030042918454936	-0.9977678571428571	0.546485260770975
1477.569580078125	-2.928229319530525	-8.980818716905707	2.006605422440204	-1.770717126428763	-0.05597800290385468	-1.473703483362846	-0.1030042918454936	-0.9977678571428571	0.546485260770975
1481.475830078125	-2.631987962614232	-9.0140841607779	1.974306465504842	-1.064283784786424	0.697896064168831	-0.7476890967690715	-0.1030042918454936	-0.9977678571428571	0.546485260770975
1485.382080078125	-2.928043459829508	-9.122234716916859	1.988019452338524	-1.764042095257014	0.6862141184251468	-1.121279673736874	-0.1094420600858369	-1.008928571428571	0.5578231292517007
1489.288330078125	-2.635442528796175	-8.812029413095878	2.319763083699097	-1.060514183621536	0.3357243830192116	-0.7439919879342776	-0.1094420600858369	-1.008928571428571	0.5578231292517007
1493.194580078125	-2.927968711906273	-8.910114252274878	1.980544660015023	-1.064283784786424	0.697896064168831	-0.7476890967690715	-0.1094420600858369	-1.008928571428571	0.5578231292517007
1497.100830078125	-2.992631973520145	-9.071083781274901	2.324421841810375	-1.407055823270956	0.7009794708118703	-0.7545753716051926	-0.09012875536480687	-1.011160714285714	0.5555555555555556
1501.007080078125	-2.951257822987054	-8.990689441972153	2.268639441562479	-0.7072975128003661	0.7126614165555545	-0.3809847946373902	-0.09012875536480687	-1.011160714285714	0.5555555555555556
1504.913330078125	-3.122695916138391	-9.009177081242658	2.065509981186047	-0.7110671139652541	1.074833097705174	-0.3846819034721842	-0.09012875536480687	-1.011160714285714	0.5555555555555556
1508.819580078125	-2.857495273192624	-9.001728077571105	2.07605793150735	-1.424175486779342	-0.4212330906965133	-1.463120099691931	-0.09012875536480687	-1.011160714285714	0.5555555555555556
1512.725830078125	-2.928734373065896	-8.980813666370354	2.057110775977375	-0.7072975128003661	0.7126614165555545	-0.3809847946373902	-0.09012875536480687	-1.011160714285714	0.5555555555555556
1516.632080078125	-3.152132580080576	-8.948276653997175	1.947951885608655	-1.056744582456648	-0.0264472981304077	-0.7402948790994835	-0.09012875536480687	-1.011160714285714	0.5555555555555556
1520.538330078125	-2.989922866356411	-9.040807842043508	2.053511125436986	-1.748963690597462	-0.7624726061733306	-1.106491238397698	-0.09012875536480687	-1.011160714285714	0.5555555555555556
1524.444580078125	-2.928661645356803	-9.102026514859567	2.049838005068023	-0.7035279116354782	0.3504897354059351	-0.3772876858025963	-0.09656652360515021	-1.002232142857143	0.5691609977324263
1528.350830078125	-2.937649619301138	-8.940320473503959	1.928227236236228	-0.7139725439721151	-0.02953070477344698	-0.7334086042633625	-0.09656652360515021	-1.002232142857143	0.5691609977324263
1532.257080078125	-2.711914024524757	-9.164800051673947	1.803647350434917	-0.7035279116354782	0.3504897354059351	-0.3772876858025963	-0.09656652360515021	-1.002232142857143	0.5691609977324263
1536.163330078125	-2.86664688448242	-9.072343632165278	1.970810897221599	-0.6959887093057022	-0.3738536268933035	-0.3698934681330084	-0.09656652360515021	-1.002232142857143	0.5691609977324263
1540.069580078125	-2.78728446231737	-8.992329175578849	2.197833986839007	-0.7139725439721151	-0.02953070477344698	-0.7334086042633625	-0.09656652360515021	-1.002232142857143	0.5691609977324263
1543.975830078125	-2.991339036469593	-8.869076508625204	2.195128136755216	-0.7035279116354782	0.3504897354059351	-0.3772876858025963	-0.09656652360515021	-1.002232142857143	0.5691609977324263
1547.882080078125	-3.093022887141652	-8.958968761027574	2.159431571308043	-1.395747019776292	-0.3855355726369878	-0.7434840451008107	-0.09656652360515021	-1.002232142857143	0.5691609977324263
1551.788330078125	-2.87710961475004	-8.809612742236341	1.996675760718345	-1.710090591257776	-0.346754647934423	-0.03073426534581129	-0.08583690987124463	-1.011160714285714	0.5532879818594104
1555.694580078125	-2.991029943705946	-8.879180609653851	2.164218860390466	-1.032085716618486	0.3714219010787372	-0.0243559333431571	-0.08583690987124463	-1.011160714285714	0.5532879818594104
1559.600830078125	-3.245240580493163	-9.01805264470012	2.075078457479609	-0.6997583104705902	-0.01168194574368421	-0.3735905769678023	-0.08583690987124463	-1.011160714285714	0.5532879818594104
1563.507080078125	-2.856317488348138	-9.11285096653066	1.958279447058666	-0.6855440769690655	0.00616681328607855	-0.0137725496722421	-0.08583690987124463	-1.011160714285714	0.5532879818594104
1567.413330078125	-2.969415590148458	-8.869295743088415	2.043599831172271	-0.3569862719860575	-0.01476535238672349	-0.3667043021316813	-0.08583690987124463	-1.011160714285714	0.5532879818594104
1571.319580078125	-3.091978436430503	-8.847868094423575	2.054986500193172	-0.6855440769690655	0.00616681328607855	-0.0137725496722421	-0.08583690987124463	-1.011160714285714	0.5532879818594104
1575.225830078125	-2.990298626186727	-8.919591963233083	2.091087108468642	-1.028316115453598	0.009250219929117825	-0.02065882450836315	-0.08583690987124463	-1.011160714285714	0.5532879818594104
1579.132080078125	-2.857246786853222	-8.910821471525407	2.051209297567062	-1.034991146625347	-0.7329419013998837	-0.3730826341343355	-0.09871244635193133	-0.9955357142857142	0.5555555555555556
1583.038330078125	-2.88868548300962	-8.880204054260815	2.133854423411018	-1.038760747790235	-0.3707702202502642	-0.3767797429691294	-0.09871244635193133	-0.9955357142857142	0.5555555555555556
1586.944580078125	-3.049739634244856	-9.030108664263615	1.912738934689638	-0.3181131726463711	0.4009526058521842	0.7090526709202054	-0.09871244635193133	-0.9955357142857142	0.5555555555555556
1590.850830078125	-2.784409697594034	-8.901448832316991	1.910357514505425	-1.02454651428871	-0.3529214612205015	-0.01696171567356919	-0.09871244635193133	-0.9955357142857142	0.5555555555555556
1594.757080078125	-2.958746798038405	-8.970412532019617	1.997128783432359	0.01044463233663683	0.3800204401793821	0.3561209184607663	-0.09871244635193133	-0.9955357142857142	0.5555555555555556
1598.663330078125	-2.940025391131526	-9.021104796593736	2.165804419275084	-1.020776913123822	-0.7150931423701209	-0.01326460683877524	-0.09871244635193133	-0.9955357142857142	0.5555555555555556
1602.569580078125	-2.845454755680503	-9.032151513049257	1.892414343560479	-0.328557804983008	0.02093216567280204	0.3529317524594392	-0.09871244635193133	-0.9955357142857142	0.5555555555555556
1606.475830078125	-3.041497119318729	-8.959484018705805	2.108895605342299	-0.3323274061478959	0.3831038468224214	0.3492346436246452	-0.09656652360515021	-0.9933035714285714	0.5532879818594104
1610.382080078125	-2.807763455527342	-9.042629436151797	2.20491698130564	-1.02454651428871	-0.3529214612205015	-0.01696171567356919	-0.09656652360515021	-0.9933035714285714	0.5532879818594104
1614.288330078125	-2.663137768148398	-8.791550440500336	2.028062529125536	0.003769601164887951	-0.3621716811496193	0.003697108834793953	-0.09656652360515021	-0.9933035714285714	0.5532879818594104
1618.194580078125	-2.999401752337127	-9.071016083486732	1.980991560243322	-0.6675602423026528	-0.3381561088337781	0.3497425864581121	-0.09656652360515021	-0.9933035714285714	0.5532879818594104
1622.100830078125	-2.9487668989506	-9.101825462323628	2.019547037917149	0.01421423350152478	0.01784875902976276	0.3598180272955602	-0.09656652360515021	-0.9933035714285714	0.5532879818594104
1626.007080078125	-3.059836705752867	-9.040108703649542	1.902037922225472	-0.3390024373196448	-0.35908827450658	-0.003189166001327095	-0.09656652360515021	-0.9933035714285714	0.5532879818594104
1629.913330078125	-2.906964463019514	-9.061839446278896	1.920936097869731	-0.6713298434675408	0.02401557231584131	0.3460454776233181	-0.09656652360515021	-0.9933035714285714	0.5532879818594104
1633.819580078125	-3.069499431220459	-9.100618137000929	1.847902305719339	-0.3181131726463711	0.4009526058521842	0.7090526709202054	-0.09227467811158799	-1.008928571428571	0.5283446712018141
1637.725830078125	-2.70318059756225	-8.902261123317308	1.950712817449447	0.04264270050457435	0.05354627708928829	1.079454081886681	-0.09227467811158799	-1.008928571428571	0.5283446712018141
1641.632080078125	-3.080661155581034	-9.019698438949241	1.943666578511531	-0.6780048746392896	-0.7181765490131601	-0.006378332002654191	-0.09227467811158799	-1.008928571428571	0.5283446712018141
1645.538330078125	-3.255790179968868	-8.947240077998293	2.10963024178475	-1.038760747790235	-0.3707702202502642	-0.3767797429691294	-0.09227467811158799	-1.008928571428571	0.5283446712018141
1649.444580078125	-2.969290336871685	-8.909701036025224	2.031074503495053	0.3712005054875823	0.03261411141648625	0.7265223294272415	-0.09227467811158799	-1.008928571428571	0.5283446712018141
1653.350830078125	-2.919524175565998	-8.83949162693121	2.156499189252815	-0.325652374976147	1.125295968151423	0.7016584532506176	-0.09227467811158799	-1.008928571428571	0.5283446712018141
1657.257080078125	-2.978478312016028	-8.919710166374792	1.929463854663978	-0.3143435714814832	0.03878092470256481	0.7127497797549994	-0.09227467811158799	-1.008928571428571	0.5283446712018141
1661.163330078125	-3.111334190577809	-8.918381607589172	1.949745588393135	-0.3001293379799584	0.05662968373232757	1.07256780705056	-0.08583690987124463	-0.9955357142857142	0.5532879818594104
1665.069580078125	-3.030396001382399	-8.939393009683148	2.019191974974567	-1.020776913123822	-0.7150931423701209	-0.01326460683877524	-0.08583690987124463	-0.9955357142857142	0.5532879818594104
1668.975830078125	-3.121994901831295	-8.999083081284718	1.995408550476453	0.04264270050457435	0.05354627708928829	1.079454081886681	-0.08583690987124463	-0.9955357142857142	0.5532879818594104
1672.882080078125	-3.05003054508123	-9.05030777535727	1.941830018327049	-1.006562679622298	-0.6972443833403581	0.346553420456785	-0.08583690987124463	-0.9955357142857142	0.5532879818594104
1676.788330078125	-2.756760923167064	-9.012836431172371	2.206704561604406	-0.3068043691517073	-0.6855624375966739	0.7201439974245873	-0.08583690987124463	-0.9955357142857142	0.5532879818594104
1680.694580078125	-2.969159022952489	-8.960207399669466	2.017943111575388	-0.2963597368150704	-0.3055419974172918	1.076264915885354	-0.08583690987124463	-0.9955357142857142	0.5532879818594104
1684.600830078125	-2.930772769134656	-8.950490252106635	2.260950382853401	-0.6675602423026528	-0.3381561088337781	0.3497425864581121	-0.08583690987124463	-0.9955357142857142	0.5532879818594104
1688.507080078125	-2.927914166124452	-9.001023888641788	1.975090081833008	-0.3001293379799584	0.05662968373232757	1.07256780705056	-0.08369098712446352	-1.015625	0.5510204081632654
1692.413330078125	-2.72553232928138	-8.861633565596078	2.145069662831913	-1.006562679622298	-0.6972443833403581	0.346553420456785	-0.08369098712446352	-1.015625	0.5510204081632654
1696.319580078125	-2.825391926583677	-8.961645070633155	1.926947760408476	-0.9923484461207727	-0.6793956243105954	0.7063714477523452	-0.08369098712446352	-1.015625	0.5510204081632654
1700.225830078125	-2.917178706947731	-9.213252455354768	1.921952327426189	-0.3105739703165952	-0.3233907564470545	0.7164468885897933	-0.08369098712446352	-1.015625	0.5510204081632654
1704.132080078125	-2.815074651734243	-8.98195026358367	1.915628438730435	-0.9885788449558849	-1.041567305460215	0.7100685565871392	-0.08369098712446352	-1.015625	0.5510204081632654
1708.038330078125	-2.824808084696787	-9.092964040365155	1.868563571719505	-1.335120484605306	-0.6763122176675561	0.6994851729162241	-0.08369098712446352	-1.015625	0.5510204081632654
1711.944580078125	-2.662731705105959	-8.963271672847933	1.98745622488165	-1.006562679622298	-0.6972443833403581	0.346553420456785	-0.08369098712446352	-1.015625	0.5510204081632654
1715.850830078125	-3.008395786923887	-8.899208971423691	1.859986855653973	-0.6533460088011279	-0.3203073498040153	0.7095606137536723	-0.1072961373390558	-1.022321428571429	0.5328798185941043
1719.757080078125	-2.876168194960108	-9.031844378656462	1.902533781725057	-0.9923484461207727	-0.6793956243105954	0.7063714477523452	-0.1072961373390558	-1.022321428571429	0.5328798185941043
1723.663330078125	-3.191040049146912	-9.099402730821664	1.757066139181004	-1.702551388928	-1.071098010233662	-0.02334004767622338	-0.1072961373390558	-1.022321428571429	0.5328798185941043
1727.569580078125	-2.9680054806777	-9.030926005799286	1.902588884096488	-0.6391317752996032	-0.3024585907742525	1.069378641049233	-0.09442060085836909	-0.9754464285714285	0.5555555555555556
1731.475830078125	-2.825224248809934	-9.072757858522005	1.910179983034135	-0.6429013764644912	0.05971309037536685	1.065681532214439	-0.09442060085836909	-0.9754464285714285	0.5555555555555556
1735.382080078125	-2.938380936820356	-8.899909119924727	2.001358988158052	-1.00279307845741	-1.059416064489977	0.350250529291579	-0.09442060085836909	-0.9754464285714285	0.5555555555555556
1739.288330078125	-2.906354358348785	-8.900229385709443	1.859925630796828	-0.9781342126192479	-0.6615468652808326	1.066189475047906	-0.09442060085836909	-0.9754464285714285	0.5555555555555556
1743.194580078125	-2.754647779175069	-8.83103938079411	1.995390162404879	-0.6391317752996032	-0.3024585907742525	1.069378641049233	-0.09871244635193133	-1.013392857142857	0.5759637188208617
1747.100830078125	-2.987534973241174	-8.9802256603686	1.814721813913238	-0.6391317752996032	-0.3024585907742525	1.069378641049233	-0.09871244635193133	-1.013392857142857	0.5759637188208617
1751.007080078125	-3.029888927632886	-8.606064747087309	1.968484600023247	-0.9819038137841359	-0.2993751841312132	1.062492366213111	-0.09871244635193133	-1.013392857142857	0.5759637188208617
1754.913330078125	-2.937043555058692	-8.940326534146385	1.867620811991622	-1.37776318510988	-0.7298584947568444	-0.3799689089704565	-0.09012875536480687	-1.006696428571429	0.5578231292517007
1758.819580078125	-2.592724935858994	-8.78215355872222	2.129636443042324	-0.6429013764644912	0.05971309037536685	1.065681532214439	-0.09012875536480687	-1.006696428571429	0.5578231292517007
1762.725830078125	-2.958124572082827	-8.829004612865031	1.934906187874563	-1.363548951608355	-0.7120097357270816	-0.02015088167489629	-0.09012875536480687	-1.006696428571429	0.5578231292517007
1766.632080078125	-2.816555468699953	-8.870824344302902	2.063710135301422	-1.345565116941942	-1.056332657846938	0.3433642544554579	-0.09012875536480687	-1.006696428571429	0.5578231292517007
1770.538330078125	-2.98989458335843	-8.919596003661367	2.050682825638904	-0.6466709776293792	0.4218847715249862	1.061984423379645	-0.08583690987124463	-1.020089285714286	0.5555555555555556
1774.444580078125	-2.704237169558247	-8.99315964850644	2.05637001704921	-1.010332280787186	-0.3350727021907388	0.342856311621991	-0.08583690987124463	-1.020089285714286	0.5555555555555556
1778.350830078125	-2.673420699357427	-9.16518498492562	2.035947486763049	-0.9998876484505487	0.04494773798864335	0.6989772300827574	-0.08583690987124463	-1.020089285714286	0.5555555555555556
1782.257080078125	-2.906988705589212	-9.021435163449159	1.923360354839516	-1.353104319271718	-0.3319892955476995	0.33597003678587	-0.09442060085836909	-1.006696428571429	0.5532879818594104
1786.163330078125	-2.947304263912163	-9.182648169482093	1.873283534073499	-1.706320990092888	-0.7089263290840423	-0.02703715651101733	-0.09442060085836909	-1.006696428571429	0.5532879818594104
1790.069580078125	-2.845693140949198	-8.971543068590512	1.916252870430025	-1.363548951608355	-0.7120097357270816	-0.02015088167489629	-0.09442060085836909	-1.006696428571429	0.5532879818594104
1793.975830078125	-2.643339587104107	-8.953364583926939	2.08906075122701	-1.014101881952074	0.02709897895888059	0.3391592027871971	-0.09442060085836909	-1.006696428571429	0.5532879818594104
1797.882080078125	-2.947853762158648	-8.940218432075385	1.928233358721942	-1.010332280787186	-0.3350727021907388	0.342856311621991	-0.1030042918454936	-1.002232142857143	0.5532879818594104
1801.788330078125	-2.837658708079645	-8.890815332111124	2.13321774674	-1.028316115453598	0.009250219929117825	-0.02065882450836315	-0.1030042918454936	-1.002232142857143	0.5532879818594104
1805.694580078125	-2.795737079514211	-8.881133538295769	2.02268754325781	-1.028316115453598	0.009250219929117825	-0.02065882450836315	-0.1030042918454936	-1.002232142857143	0.5532879818594104
1809.600830078125	-2.794593638310129	-9.103367194930033	1.908343422849653	-0.328557804983008	0.02093216567280204	0.3529317524594392	-0.09871244635193133	-0.9888392857142857	0.5578231292517007
1813.507080078125	-2.896123952707435	-9.112452901887069	1.85729322992718	-0.6750994446324288	0.3861872534654606	0.3423483687885241	-0.09871244635193133	-0.9888392857142857	0.5578231292517007
1817.413330078125	-2.651244726268605	-8.912881492131254	1.859166504411519	-1.360643521601494	0.3923540667515392	0.3285758191162821	-0.09871244635193133	-0.9888392857142857	0.5578231292517007
1821.319580078125	-2.875402533800484	-8.961144964560987	1.825967665762705	-1.038760747790235	-0.3707702202502642	-0.3767797429691294	-0.09871244635193133	-0.9888392857142857	0.5578231292517007
1825.225830078125	-3.072614601426631	-8.959172843884724	2.159419326336614	-1.017871483116962	0.3892706601084999	0.3354620939524031	-0.1030042918454936	-1.004464285714286	0.546485260770975
1829.132080078125	-2.88674203700551	-8.920627529124896	1.939509822999981	-2.063307262078945	-0.7236916814707658	-0.3937414586426986	-0.1030042918454936	-1.004464285714286	0.546485260770975
1833.038330078125	-2.714303937854136	-9.053665041429541	2.042638683372814	-1.306692017602256	-0.6406146996080305	1.419121227507345	-0.1030042918454936	-1.004464285714286	0.546485260770975
1836.944580078125	-2.671772204617973	-8.882373187044733	1.871098012817721	-1.710090591257776	-0.346754647934423	-0.03073426534581129	-0.09656652360515021	-0.9933035714285714	0.5578231292517007
1840.850830078125	-2.685695561709961	-8.912536983776841	2.243025558751168	-1.374857755103019	0.3745053077217764	-0.03124220817927815	-0.09656652360515021	-0.9933035714285714	0.5578231292517007
1844.757080078125	-2.968627706633278	-9.17233392495387	1.964811479654283	-1.356873920436606	0.03018238560191986	0.332272927951076	-0.09656652360515021	-0.9933035714285714	0.5578231292517007
1848.663330078125	-2.776615670207317	-9.09344596451005	2.151362939099095	-1.371088153938131	0.0123336265721571	-0.02754509934448419	-0.09656652360515021	-0.9933035714285714	0.5578231292517007
1852.569580078125	-2.908586694975128	-9.05172221385833	2.083159293431127	-0.9998876484505487	0.04494773798864335	0.6989772300827574	-0.1008583690987124	-1.013392857142857	0.5396825396825397
1856.475830078125	-2.663093323437285	-9.03397512737169	2.023618058014265	-1.371088153938131	0.0123336265721571	-0.02754509934448419	-0.1008583690987124	-1.013392857142857	0.5396825396825397
1860.382080078125	-2.786244052034504	-9.042844630186726	2.093792958552434	-1.381532786274768	-0.367686813607225	-0.3836660178052504	-0.1008583690987124	-1.013392857142857	0.5396825396825397
1864.288330078125	-2.775035862748675	-9.032855701978576	1.993382193234821	-1.734749457095937	-0.7446238471435678	-0.7466732111021378	-0.1051502145922747	-0.9955357142857142	0.5668934240362812
1868.194580078125	-2.70293615165113	-8.97297063848349	1.926268226337456	-1.028316115453598	0.009250219929117825	-0.02065882450836315	-0.1051502145922747	-0.9955357142857142	0.5668934240362812
1872.100830078125	-2.765057983875011	-8.992551440363272	2.01600246913376	-1.37776318510988	-0.7298584947568444	-0.3799689089704565	-0.1051502145922747	-0.9955357142857142	0.5668934240362812
1876.007080078125	-2.774951013754733	-9.174270691882656	1.984897293840576	-1.381532786274768	-0.367686813607225	-0.3836660178052504	-0.1051502145922747	-0.9955357142857142	0.5668934240362812
1879.913330078125	-2.945330514695931	-9.273576997883346	1.675908612450232	-1.02454651428871	-0.3529214612205015	-0.01696171567356919	-0.09012875536480687	-1.017857142857143	0.5510204081632654
1883.819580078125	-2.866618601484439	-8.951131793783135	1.967982597423517	-1.734749457095937	-0.7446238471435678	-0.7466732111021378	-0.09012875536480687	-1.017857142857143	0.5510204081632654
1887.725830078125	-2.937968813135493	-9.081731422979757	1.96014661967172	-1.038760747790235	-0.3707702202502642	-0.3767797429691294	-0.09012875536480687	-1.017857142857143	0.5510204081632654
1891.632080078125	-2.764987276380059	-8.942047096933171	2.008931719638556	-1.395747019776292	-0.3855355726369878	-0.7434840451008107	-0.1051502145922747	-0.9799107142857142	0.5532879818594104
1895.538330078125	-2.734017269904485	-9.033265887907017	1.973155561877095	-1.05297498129176	-0.388618979280027	-0.7365977702646896	-0.1051502145922747	-0.9799107142857142	0.5532879818594104
1899.444580078125	-2.540265829102705	-9.32813269524433	1.985766583739886	-1.028316115453598	0.009250219929117825	-0.02065882450836315	-0.1051502145922747	-0.9799107142857142	0.5532879818594104
1903.350830078125	-2.828054568822156	-8.90101238360471	2.193211984256445	-1.734749457095937	-0.7446238471435678	-0.7466732111021378	-0.1051502145922747	-0.9799107142857142	0.5532879818594104
1907.257080078125	-2.80555940189898	-9.012348446385053	1.984511618469423	-1.395747019776292	-0.3855355726369878	-0.7434840451008107	-0.1072961373390558	-1.006696428571429	0.562358276643991
1911.163330078125	-2.81774739504343	-9.072832627059668	2.182902769649148	-1.406191652112929	-0.7655560128163699	-1.099604963561577	-0.1072961373390558	-1.006696428571429	0.562358276643991
1915.069580078125	-2.705099800996662	-8.902241931282964	2.142633160890699	-0.7177421451370031	0.3326409763761723	-0.7371057130981565	-0.1072961373390558	-1.006696428571429	0.562358276643991
1918.975830078125	-2.695226973258356	-9.023552780772469	2.17575855032537	-1.042530348955123	-0.008598539100644939	-0.3804768518039234	-0.08369098712446352	-1.002232142857143	0.5782312925170068
1922.882080078125	-2.754849800589218	-8.831037360579968	2.015592303819748	-1.42794508794423	-0.05906140954689396	-1.466817208526725	-0.08369098712446352	-1.002232142857143	0.5782312925170068
1926.788330078125	-2.633151605959728	-9.094880605152525	2.090670800054486	-1.070958815958173	-0.04429605716017047	-1.100112906395044	-0.08369098712446352	-1.002232142857143	0.5782312925170068
1930.694580078125	-2.703012919788506	-9.013373911206157	1.933945040075106	-0.7177421451370031	0.3326409763761723	-0.7371057130981565	-0.08369098712446352	-1.002232142857143	0.5782312925170068
1934.600830078125	-2.590642095079121	-9.054901659857292	1.921352365055028	-1.417500455607593	0.3209590306324882	-1.110696290065959	-0.09012875536480687	-1.011160714285714	0.5555555555555556
1938.507080078125	-2.743562822951871	-8.952362351568462	1.907302703350337	-0.7319563786385278	0.3147922173464096	-1.096923740393717	-0.09012875536480687	-1.011160714285714	0.5555555555555556
1942.413330078125	-3.009080639517851	-9.272939496635125	1.928472115050378	-1.784931359930288	-0.07382676193361745	-1.833521510658406	-0.09012875536480687	-1.011160714285714	0.5555555555555556
1946.319580078125	-2.927243455029479	-8.940424535146677	1.908018972335644	-1.064283784786424	0.697896064168831	-0.7476890967690715	-0.08798283261802575	-0.9977678571428571	0.5396825396825397
1950.225830078125	-2.683388477160383	-9.053974196036478	2.012317103793367	-0.725281347466779	1.056984338675411	-0.7444999307677445	-0.08798283261802575	-0.9977678571428571	0.5396825396825397
1954.132080078125	-2.876743955990432	-9.082343671551209	1.960109884757433	-0.7499402133049405	0.6591151394662662	-1.460438876524071	-0.08798283261802575	-0.9977678571428571	0.5396825396825397
1958.038330078125	-2.715637279187518	-8.851631505996005	2.175972816710948	-1.081403448294809	-0.4243164973395526	-1.45623382485581	-0.08798283261802575	-0.9977678571428571	0.5396825396825397
1961.944580078125	-2.988967305067487	-8.949908306747306	1.957954996544657	-0.725281347466779	1.056984338675411	-0.7444999307677445	-0.09442060085836909	-1.013392857142857	0.564625850340136
1965.850830078125	-2.969262053873705	-8.788489197643083	2.028246203696971	0.2963597368150704	0.3055419974172918	-1.076264915885354	-0.09442060085836909	-1.013392857142857	0.564625850340136
1969.757080078125	-2.826949511686763	-8.890922424075054	2.082706270717114	-1.088942650624585	0.3000268649596861	-1.463628042525398	-0.09442060085836909	-1.013392857142857	0.564625850340136
1973.663330078125	-2.937591033091035	-8.86961398865899	1.922368615225916	-0.0464123016694623	0.3086254040603311	-1.083151190721475	-0.1137339055793991	-1.015625	0.546485260770975
1977.569580078125	-2.827197998026166	-8.981829030120752	2.107554904657402	-1.095617681796334	-0.4421652563693153	-1.81605185215137	-0.1137339055793991	-1.015625	0.546485260770975
1981.475830078125	-2.918340330079086	-8.9607155865982	2.038114640561684	-0.7386314098102766	-0.4273999039825919	-1.449347550019689	-0.1137339055793991	-1.015625	0.546485260770975
1985.382080078125	-2.807775576812191	-9.022427294736929	2.206129109790532	-0.7566152444766894	-0.08307698186273527	-1.812862686150043	-0.1137339055793991	-1.015625	0.546485260770975
1989.288330078125	-2.746324455683284	-9.063445846352259	2.183465976491592	-0.7424010109751646	-0.0652282228329725	-1.453044658854483	-0.1094420600858369	-0.9955357142857142	0.5804988662131519
1993.194580078125	-2.868776190187547	-8.890504157290046	2.183741467734315	-0.392089770160856	-0.7926549917752505	-1.438764166348774	-0.1094420600858369	-0.9955357142857142	0.5804988662131519
1997.100830078125	-2.959775087036422	-8.940099218826607	2.09995768323404	0.3038989391448463	-0.4188013648819469	-1.068870698215766	-0.1094420600858369	-0.9955357142857142	0.5804988662131519
2001.007080078125	-2.828985887541382	-9.03231620173065	2.28634385617899	-0.7528456433118014	-0.4452486630123546	-1.809165577315249	-0.09012875536480687	-0.9888392857142857	0.564625850340136
2004.913330078125	-2.980882366844397	-9.121706327846711	2.169869337500915	-0.06062653517098708	0.2907766450305683	-1.442969218017035	-0.09012875536480687	-0.9888392857142857	0.564625850340136
2008.819580078125	-2.663475143910026	-8.902658177853832	2.061800105288367	-0.0464123016694623	0.3086254040603311	-1.083151190721475	-0.09012875536480687	-0.9888392857142857	0.564625850340136
2012.725830078125	-2.92736668809211	-9.071736434129182	1.920342278598714	-0.4033985736555198	0.2938600516736076	-1.449855492853156	-0.09012875536480687	-0.9888392857142857	0.564625850340136
2016.632080078125	-2.825933343973595	-8.901033595853196	1.981089499400324	-0.4100736048272687	-0.4483320696553939	-1.802279302479128	-0.09656652360515021	-1.011160714285714	0.5510204081632654
2020.538330078125	-2.908378612918554	-9.061825304779905	2.062351087773812	-0.7528456433118014	-0.4452486630123546	-1.809165577315249	-0.09656652360515021	-1.011160714285714	0.5510204081632654
2024.444580078125	-2.878200530386443	-9.01162203510018	2.105767324358637	-0.05685693400609913	-0.07139503611905106	-1.439272109182241	-0.09656652360515021	-1.011160714285714	0.5510204081632654
2028.350830078125	-2.950009330647614	-9.051307987501607	2.143790207618591	-0.06730156634273596	-0.4514154762984331	-1.795393027643007	-0.09227467811158799	-0.9955357142857142	0.5510204081632654
2032.257080078125	-2.907208908930634	-8.991129931112715	1.945380688981722	-0.0464123016694623	0.3086254040603311	-1.083151190721475	-0.09227467811158799	-0.9955357142857142	0.5510204081632654
2036.163330078125	-2.940471858456795	-8.950393261213412	2.210451151801943	0.2963597368150704	0.3055419974172918	-1.076264915885354	-0.09227467811158799	-0.9955357142857142	0.5510204081632654
2040.069580078125	-3.031678837362243	-8.989885231828401	2.147475572958983	-0.05685693400609913	-0.07139503611905106	-1.439272109182241	-0.09227467811158799	-0.9955357142857142	0.5510204081632654
2043.975830078125	-2.87644294408335	-8.910629509953107	1.930008694049279	0.6429013764644912	-0.05971309037536685	-1.065681532214439	-0.07510729613733906	-0.9955357142857142	0.562358276643991
2047.882080078125	-3.018531242500586	-9.181935899696208	1.853124250058632	-0.4033985736555198	0.2938600516736076	-1.449855492853156	-0.07510729613733906	-0.9955357142857142	0.562358276643991
2051.788330078125	-3.009418015279479	-8.878996728938116	1.962209691213209	-0.4100736048272687	-0.4483320696553939	-1.802279302479128	-0.07510729613733906	-0.9955357142857142	0.562358276643991
2055.694580078125	-2.959928623311175	-9.020905764271939	2.115311310709341	-0.0464123016694623	0.3086254040603311	-1.083151190721475	-0.08798283261802575	-1.015625	0.5487528344671202
2059.600830078125	-2.968041844532247	-8.97031958155468	1.906225269551164	0.3001293379799584	-0.05662968373232757	-1.07256780705056	-0.08798283261802575	-1.015625	0.5487528344671202
2063.507080078125	-2.877400525586415	-8.829811853329996	2.025766844355756	0.3038989391448463	-0.4188013648819469	-1.068870698215766	-0.08798283261802575	-1.015625	0.5487528344671202
2067.413330078125	-2.845349704545145	-8.870536401944449	1.881909230024748	-0.03219806816793752	0.3264741630900938	-0.7233331634259144	-0.08798283261802575	-1.015625	0.5487528344671202
2071.319580078125	-2.928621241073973	-9.001016817892292	2.045797576785049	0.9885788449558849	1.041567305460215	-0.7100685565871392	-0.111587982832618	-1.006696428571429	0.5487528344671202
2075.225830078125	-3.001656311319027	-8.848771315674691	2.206447458433257	0.6533460088011279	0.3203073498040153	-0.7095606137536723	-0.111587982832618	-1.006696428571429	0.5487528344671202
2079.132080078125	-2.887168302189363	-9.051936397786189	1.982136341385354	-0.05685693400609913	-0.07139503611905106	-1.439272109182241	-0.111587982832618	-1.006696428571429	0.5487528344671202
2083.038330078125	-2.825486876648327	-8.97174513123352	1.936442766873464	-0.04264270050457435	-0.05354627708928829	-1.079454081886681	-0.09656652360515021	-1.006696428571429	0.546485260770975
2086.944580078125	-2.858024569297694	-8.961318744206014	2.128987542014306	0.3105739703165952	0.3233907564470545	-0.7164468885897933	-0.09656652360515021	-1.006696428571429	0.546485260770975
2090.850830078125	-2.82704042132313	-9.244456868514044	2.091797234353804	-0.01798383466641273	0.3443229221198566	-0.3635151361303542	-0.09656652360515021	-1.006696428571429	0.546485260770975
2094.757080078125	-2.917849418042705	-9.273851808849878	1.989023436923553	0.3143435714814832	-0.03878092470256481	-0.7127497797549994	-0.09656652360515021	-1.006696428571429	0.546485260770975
2098.663330078125	-3.021700958488579	-8.949580970213095	2.170095848857922	0.6571156099660159	-0.04186433134560408	-0.7058635049188784	-0.09656652360515021	-1.004464285714286	0.5578231292517007
2102.569580078125	-3.032955612699662	-9.050478524681086	2.275153106700953	0.6713298434675408	-0.02401557231584131	-0.3460454776233181	-0.09656652360515021	-1.004464285714286	0.5578231292517007
2106.475830078125	-2.906899816166986	-9.001234032141362	1.914471412616973	0.3181131726463711	-0.4009526058521842	-0.7090526709202054	-0.09656652360515021	-1.004464285714286	0.5578231292517007
2110.382080078125	-2.909394780631722	-9.051714133001765	2.163967859090602	0.3076685403097343	-0.7809730460315663	-1.065173589380972	-0.09656652360515021	-1.011160714285714	0.5374149659863946
2114.288330078125	-2.642040589411131	-9.266508887035183	1.959160981929405	0.6646548122957918	-0.7662076936448428	-0.6984692872492905	-0.09656652360515021	-1.011160714285714	0.5374149659863946
2118.194580078125	-3.122330257378782	-8.776857505507021	2.028944105225135	0.6788690457973167	-0.7483589346150801	-0.3386512599537302	-0.09656652360515021	-1.011160714285714	0.5374149659863946
2122.100830078125	-2.950480040542581	-8.940192169291546	2.190861197115235	-0.02088926467327366	-0.7600408803587642	-0.7122418369215325	-0.09656652360515021	-1.011160714285714	0.5374149659863946
2126.007080078125	-2.909186698575149	-9.06181722392334	2.143159653433287	0.6646548122957918	-0.7662076936448428	-0.6984692872492905	-0.1008583690987124	-1.015625	0.562358276643991
2129.913330078125	-2.744164846766034	-8.790740169714161	1.967505084766646	0.3218827738112591	-0.7631242870018035	-0.7053555620854115	-0.1008583690987124	-1.015625	0.562358276643991
2133.819580078125	-2.908016994587229	-8.99112185025615	2.026189254641197	0.3181131726463711	-0.4009526058521842	-0.7090526709202054	-0.1008583690987124	-1.015625	0.562358276643991
2137.725830078125	-2.84765274866644	-9.072533573523438	2.112213642154251	1.010332280787186	0.3350727021907388	-0.342856311621991	-0.1008583690987124	-0.9799107142857142	0.5396825396825397
2141.632080078125	-2.96008417980007	-8.92999511779796	2.130866959598789	0.3143435714814832	-0.03878092470256481	-0.7127497797549994	-0.1008583690987124	-0.9799107142857142	0.5396825396825397
2145.538330078125	-2.767544867483182	-9.224849803850422	2.264690829950793	0.3181131726463711	-0.4009526058521842	-0.7090526709202054	-0.1008583690987124	-0.9799107142857142	0.5396825396825397
2149.444580078125	-2.917914064895232	-8.829406717936909	1.995488122176311	0.9998876484505487	-0.04494773798864335	-0.6989772300827574	-0.1008583690987124	-0.9799107142857142	0.5396825396825397
2153.350830078125	-2.785266268390024	-8.82063218580095	1.996014594104469	1.356873920436606	-0.03018238560191986	-0.332272927951076	-0.09656652360515021	-1.017857142857143	0.5668934240362812
2157.257080078125	-2.761171091866791	-9.073398390091436	1.627313268311686	1.710090591257776	0.346754647934423	0.03073426534581129	-0.09656652360515021	-1.017857142857143	0.5668934240362812
2161.163330078125	-2.90837255227613	-9.07192637548734	2.061745023531366	1.014101881952074	-0.02709897895888059	-0.3391592027871971	-0.09656652360515021	-1.017857142857143	0.5668934240362812
2165.069580078125	-3.132453591670633	-9.079786575194408	2.020869371144902	1.371088153938131	-0.0123336265721571	0.02754509934448419	-0.1008583690987124	-0.9910714285714285	0.5714285714285714
2168.975830078125	-2.917857498899271	-9.09203354622313	1.989831522580148	1.014101881952074	-0.02709897895888059	-0.3391592027871971	-0.1008583690987124	-0.9910714285714285	0.5714285714285714
2172.882080078125	-2.89869770552369	-9.031619083550826	2.114668511552608	0.3181131726463711	-0.4009526058521842	-0.7090526709202054	-0.1008583690987124	-0.9910714285714285	0.5714285714285714
2176.788330078125	-3.021418128508771	-8.747563596492693	2.141812850877105	0.3076685403097343	-0.7809730460315663	-1.065173589380972	-0.1008583690987124	-0.9910714285714285	0.5714285714285714
2180.694580078125	-2.807535171329354	-8.749702426064486	2.182088561506839	0.6750994446324288	-0.3861872534654606	-0.3423483687885241	-0.09656652360515021	-1.006696428571429	0.5510204081632654
2184.600830078125	-2.988973365709912	-8.939807236039872	1.958561060787103	0.9998876484505487	-0.04494773798864335	-0.6989772300827574	-0.09656652360515021	-1.006696428571429	0.5510204081632654
2188.507080078125	-3.044282994619839	-9.030163230659864	2.387483135453338	0.3114381414746222	-1.143144727181185	-1.061476480546178	-0.09656652360515021	-1.006696428571429	0.5510204081632654
2192.413330078125	-3.051877020806549	-8.666450926761634	2.126477590858949	0.3218827738112591	-0.7631242870018035	-0.7053555620854115	-0.08369098712446352	-0.9933035714285714	0.5691609977324263
2196.319580078125	-2.714606969975359	-9.053662011108329	2.072941895495117	0.6750994446324288	-0.3861872534654606	-0.3423483687885241	-0.08369098712446352	-0.9933035714285714	0.5691609977324263
2200.225830078125	-2.992365305253468	-9.010480387351507	2.297755015142748	-0.00667503117174888	-0.7421921213290015	-0.3524238096259723	-0.08369098712446352	-0.9933035714285714	0.5691609977324263
2204.132080078125	-2.989838017362468	-9.182222831947589	2.045026226042741	0.3152077426395102	-1.505316408330805	-1.057779371711384	-0.08369098712446352	-0.9933035714285714	0.5691609977324263
2208.038330078125	-2.818549420057601	-9.082925616910538	2.263105271066177	0.3331915773059229	-1.849639330450662	-0.6942642355810297	-0.08369098712446352	-0.9933035714285714	0.5691609977324263
2211.944580078125	-2.877022745541957	-9.122744924059734	1.987988839909952	-1.388207817446517	-1.109878934936226	-0.7360898274312228	-0.08369098712446352	-0.9933035714285714	0.5691609977324263
2215.850830078125	-2.829228313238361	-9.133323878483781	2.310586425876832	-0.009580461178609809	-1.846555923807622	-0.7011505104171507	-0.08369098712446352	-0.9933035714285714	0.5691609977324263
2219.757080078125	-2.583617769280312	-8.974163822307199	2.239327948439346	0.01884800582443976	-1.810858405748097	0.01848554417396977	-0.0815450643776824	-0.9955357142857142	0.564625850340136
2223.663330078125	-2.715380711991549	-8.942543162577056	2.150316097114064	-0.3448132973333667	-2.567815879463821	-0.7006425675836838	-0.0815450643776824	-0.9955357142857142	0.564625850340136
2227.569580078125	-2.972100454742494	-8.939975965149547	2.312086290575876	0.3549450131372236	-2.556133933720138	-0.3270519906158815	-0.0815450643776824	-0.9955357142857142	0.564625850340136
2231.475830078125	-2.827238402308996	-9.082838727088024	2.111595332940376	0.02638720815421566	-2.535201768047335	0.02587976184355767	-0.0815450643776824	-0.9955357142857142	0.564625850340136
2235.382080078125	-2.728750530408769	-9.053520575503995	2.466889775570771	-0.3050760268356532	-3.618633404853154	0.03008481351181848	-0.0815450643776824	-0.9955357142857142	0.564625850340136
2239.288330078125	-2.746993146564116	-9.295762391766685	2.250335064574807	0.05567984631529226	-3.96603973361605	0.4004862244782937	-0.0815450643776824	-0.9955357142857142	0.564625850340136
2243.194580078125	-2.716322131781482	-9.225362031207439	2.244458076107352	-1.997182783427016	-4.309710974907434	0.3628656842963613	-0.0815450643776824	-0.9955357142857142	0.564625850340136
2247.100830078125	-2.727675776485498	-9.497975767487674	2.359414383243669	0.4135302894593768	-5.417809864857567	0.4221609346535906	-0.09227467811158799	-1.011160714285714	0.562358276643991
2251.007080078125	-2.421450480053117	-9.501038020451997	2.3491296379648	1.127502833431492	-5.38827916008412	1.155569538916953	-0.09227467811158799	-1.011160714285714	0.562358276643991
2254.913330078125	-2.649163864474013	-9.347245735092637	2.671488488217675	1.4560606384145	-5.409211325756921	0.8026377864575139	-0.09227467811158799	-1.011160714285714	0.562358276643991
2258.819580078125	-2.554920503713911	-9.317885138397205	2.430825881595158	1.442710576071002	-6.893595568414924	0.09779016720556931	-0.09227467811158799	-1.011160714285714	0.562358276643991
2262.725830078125	-2.433177864373309	-9.319102564790612	2.501459906718624	1.80260227806392	-5.77446641354958	0.813221170128429	-0.09227467811158799	-1.011160714285714	0.562358276643991
2266.632080078125	-2.503227058117244	-9.429513183964284	2.363522138255073	1.449385607242751	-6.151403447085923	0.4502139768315416	-0.09227467811158799	-1.011160714285714	0.562358276643991
2270.538330078125	-2.536556674710075	-9.277664736283205	2.6352593077422	1.785482614555535	-6.896678975057964	0.1046764420416904	-0.09227467811158799	-1.011160714285714	0.562358276643991
2274.444580078125	-2.505681618299151	-9.378983587857412	2.608978156445728	2.495685557362762	-6.504976589134897	0.834387937470259	-0.1030042918454936	-1.006696428571429	0.5736961451247166
2278.350830078125	-2.465004441644873	-9.65211763235123	2.622893144079129	2.167991923537781	-7.950579907090336	0.8422900979733137	-0.1030042918454936	-1.006696428571429	0.5736961451247166
2282.257080078125	-2.362668061805113	-9.471322814331446	2.593336792756276	3.200077640156267	-8.322001808169073	0.8666460313164708	-0.1030042918454936	-1.006696428571429	0.5736961451247166
2286.163330078125	-2.456095256052056	-9.682509754510189	2.752382748062723	3.893160919455108	-9.052511983754391	0.8878127986583009	-0.1030042918454936	-1.006696428571429	0.5736961451247166
2290.069580078125	-2.549235579890907	-9.530063199756647	2.882741662560056	3.529499616297302	-9.809469457470115	0.1686846869006472	-0.1030042918454936	-1.006696428571429	0.5736961451247166
2293.975830078125	-2.395133026745388	-9.582109275793155	2.778608796987765	4.592919229925699	-9.040830038010705	1.261403375626103	-0.1030042918454936	-1.006696428571429	0.5736961451247166
2297.882080078125	-2.253507357366552	-9.381505330466739	2.901756144818461	4.261455994935829	-10.12426167481652	1.265608427294364	-0.1030042918454936	-1.006696428571429	0.5736961451247166
2301.788330078125	-2.346245658591247	-9.562396129272676	2.991912797900206	4.597553002248614	-10.86953720278857	0.9200708925045127	-0.08369098712446352	-0.9866071428571428	0.5578231292517007
2305.694580078125	-2.185177365857021	-9.604410852604056	3.211614136722545	5.67982062170145	-11.91175618907725	2.031275125403938	-0.08369098712446352	-0.9866071428571428	0.5578231292517007
2309.600830078125	-2.278552034536285	-9.734790237230396	3.365407535261127	5.023569182893461	-13.33642734135989	2.392109038366432	-0.08369098712446352	-0.9866071428571428	0.5578231292517007
2313.507080078125	-2.33854658126918	-9.764493322066098	3.242413228958863	5.701574057532751	-12.61825079234673	2.398487370369086	-0.08369098712446352	-0.9866071428571428	0.5578231292517007
2317.413330078125	-2.143900185602722	-9.867449887032864	3.165528764353787	7.13619417664873	-11.81699726147083	4.217728388521784	-0.08369098712446352	-0.9866071428571428	0.5578231292517007
2321.319580078125	-2.23724051064158	-9.886718503984495	3.31588779885184	7.493180448634788	-11.80223190908411	4.584432690653466	-0.08369098712446352	-0.9866071428571428	0.5578231292517007
2325.225830078125	-2.177674249306679	-9.816607095890774	3.481710644953625	8.900236271905744	-12.50321137989598	5.339008062258658	-0.08369098712446352	-0.9866071428571428	0.5578231292517007
2329.132080078125	-2.269889315068729	-10.02780615735436	3.51954375177086	8.93243434007368	-12.82968554298607	6.062341225684572	-0.0815450643776824	-0.9933035714285714	0.5487528344671202
2333.038330078125	-2.432981862372724	-10.14738735309345	3.502267869925505	10.00048772602499	-13.88975328830452	6.813727431288438	-0.0815450643776824	-0.9933035714285714	0.5487528344671202
2336.944580078125	-2.423381763543519	-9.814150020748405	3.562666150270248	11.07144654198317	-13.84545723114435	7.913840337683482	-0.0815450643776824	-0.9933035714285714	0.5487528344671202
2340.850830078125	-2.168413546453244	-9.927810814030419	3.576048522875348	11.45686128097227	-13.79499436069811	9.000180694406284	-0.0815450643776824	-0.9933035714285714	0.5487528344671202
2344.757080078125	-1.973290380249393	-10.15198426791468	3.451487004531181	12.50606666109915	-13.04420370026846	9.733081355836179	-0.0815450643776824	-0.9933035714285714	0.5487528344671202
2348.663330078125	-2.282647008601078	-10.14889070163116	3.774904941740515	13.58370050822907	-12.25771552177929	11.1856180718572	-0.0815450643776824	-0.9933035714285714	0.5487528344671202
2352.569580078125	-2.199595675413673	-9.988105053346876	3.633036929122421	14.28345881869966	-12.2460335760356	11.559208648825	-0.0815450643776824	-0.9933035714285714	0.5487528344671202
2356.475830078125	-2.219480725666048	-10.01820923314738	3.58072562782934	15.34310883116317	-11.11522247542657	12.64823022871566	-0.09012875536480687	-0.9888392857142857	0.5578231292517007
2360.382080078125	-2.313833177989792	-10.3708010621595	3.832297390815885	16.05331177397039	-10.72352008950351	13.37794172414423	-0.09012875536480687	-0.9888392857142857	0.5578231292517007
2364.288330078125	-2.517768559507667	-10.27785261743523	3.817672277297322	16.76728431794251	-10.69398938473006	14.11135032840759	-0.09012875536480687	-0.9888392857142857	0.5578231292517007
2368.194580078125	-2.588522807986982	-10.05492285272821	3.750239982371661	18.18769020355696	-9.910584612883929	15.57077331926473	-0.09012875536480687	-0.9888392857142857	0.5578231292517007
2372.100830078125	-2.58210656664476	-10.30751226766689	4.129024011414735	19.93374846414756	-10.25247580918922	16.32853785687125	-0.09012875536480687	-0.9888392857142857	0.5578231292517007
2376.007080078125	-2.716431140887402	-10.21525993101537	4.296175313229988	20.66570484278609	-10.56726802653563	17.42546159726496	-0.09012875536480687	-0.9888392857142857	0.5578231292517007
2379.913330078125	-2.683238898856192	-10.30650094434477	4.038175599904971	21.71286896406413	-12.38737665221284	17.4646059659473	-0.09012875536480687	-0.9888392857142857	0.5578231292517007
2383.819580078125	-2.631048480580721	-10.23631577782046	3.921174588684309	23.17591755018316	-11.55042560327742	20.00348303869112	-0.09656652360515021	-0.9866071428571428	0.5827664399092971
2387.725830078125	-2.691247068941907	-10.09429965052271	3.818584445211063	24.5649895387877	-11.90708215196944	20.39454327416595	-0.09656652360515021	-0.9866071428571428	0.5827664399092971
2391.632080078125	-2.744821333904297	-10.2149760290852	4.073970125123576	24.92197581077376	-11.89231679958271	20.76124757629763	-0.09656652360515021	-0.9866071428571428	0.5827664399092971
2395.538330078125	-2.766043765918337	-10.20466279466405	4.155396999996926	25.9787203932304	-11.8658695014523	21.50154245539712	-0.09656652360515021	-0.9866071428571428	0.5827664399092971
2399.444580078125	-2.783577286910021	-10.11357836854504	3.867932772634773	27.4095709111815	-10.70244428942679	23.31708636471502	-0.09656652360515021	-0.9866071428571428	0.5827664399092971
2403.350830078125	-3.091859161338435	-10.0498894891947	4.083875317517005	28.10265419048034	-11.43295446501211	23.33825313205685	-0.09656652360515021	-0.9866071428571428	0.5827664399092971
2407.257080078125	-3.040404101010465	-10.10090909030303	4.040410101046466	29.84871245107094	-11.7748456613174	24.09601766966337	-0.09656652360515021	-0.9866071428571428	0.5827664399092971
2411.163330078125	-3.12193421294933	-10.27181096090081	4.030155988810598	30.56645459620794	-12.10748663769357	24.83312338276153	-0.08798283261802575	-0.9910714285714285	0.6054421768707483
2415.069580078125	-3.338512135793491	-9.986816898844086	4.259376844655214	31.62696877982948	-12.44321102071278	25.5771153706958	-0.08798283261802575	-0.9910714285714285	0.6054421768707483
2418.975830078125	-3.490368210813676	-9.975197327992875	4.138861897694166	32.68080793227927	-13.52112752506099	25.96868354900411	-0.08798283261802575	-0.9910714285714285	0.6054421768707483
2422.882080078125	-3.645353597539025	-10.13526363574178	4.331278121249433	33.37098578157124	-15.35600150312493	25.64112361555476	-0.09442060085836909	-0.96875	0.6235827664399093
2426.788330078125	-3.870539694068921	-10.15321379497851	4.400908182402301	34.10757593253269	-17.4995008852492	26.39671487282689	-0.09442060085836909	-0.96875	0.6235827664399093
2430.694580078125	-3.644555612953138	-10.28678676710279	4.251479662660702	35.17939891964889	-18.92174031171727	27.15179818726555	-0.09442060085836909	-0.96875	0.6235827664399093
2434.600830078125	-3.975197299957249	-10.00065206740447	4.662587138581996	36.59862771757254	-22.17577030960624	27.57243529341874	-0.09442060085836909	-0.96875	0.6235827664399093
2438.507080078125	-3.840119185839832	-10.00200284854564	4.420081849289283	38.01031731316641	-24.70545694519597	27.98567818190234	-0.09227467811158799	-0.9776785714285714	0.6145124716553289
2442.413330078125	-3.993870221724732	-10.03076836848983	4.489062988799702	39.42868193993203	-26.4929514594567	28.75134488001191	-0.09227467811158799	-0.9776785714285714	0.6145124716553289
2446.319580078125	-3.876044777604473	-9.900633491617896	4.951416535957473	40.82615730202437	-29.04048685407619	28.80476974119996	-0.09227467811158799	-0.9776785714285714	0.6145124716553289
2450.225830078125	-3.913600723410154	-9.779045810947718	4.62537846346435	41.23795924916769	-31.52522575167728	29.91698985976631	-0.1137339055793991	-0.953125	0.6145124716553289
2454.132080078125	-3.854537495396483	-9.880646544237957	4.841504641689158	42.30310720511214	-33.68965729947434	30.319649364579	-0.1137339055793991	-0.953125	0.6145124716553289
2458.038330078125	-3.998108630993571	-9.869109822780976	4.912903915683648	42.72158418342722	-35.43220407574643	31.78429329277133	-0.1137339055793991	-0.953125	0.6145124716553289
2461.944580078125	-3.91684316710724	-9.930528538025898	4.949622833172993	43.79340717054342	-36.8544435022145	32.53937660721	-0.1137339055793991	-0.953125	0.6145124716553289
2465.850830078125	-3.75397486357295	-9.942258231162253	4.989323091988852	45.23266106198231	-37.88189713611646	34.0172851422411	-0.09871244635193133	-0.9419642857142857	0.6462585034013606
2469.757080078125	-3.989559043517939	-9.636872086332499	5.078353331385708	45.6122649409577	-40.04016187062746	34.40617209738154	-0.09871244635193133	-0.9419642857142857	0.6462585034013606
2473.663330078125	-4.215195647801386	-9.745726831400777	5.193034167893733	46.33464085841761	-42.20151001178149	34.80194532735811	-0.09871244635193133	-0.9419642857142857	0.6462585034013606
2477.569580078125	-4.306760204609877	-9.69430613532764	5.16581637935509	47.79855361569467	-42.8310944464743	36.99579280814554	-0.111587982832618	-0.9397321428571428	0.6507936507936508
2481.475830078125	-4.409844063681986	-9.976103579565203	5.270120653912958	49.23113247596181	-44.60074020170527	38.12127753355068	-0.111587982832618	-0.9397321428571428	0.6507936507936508
2485.382080078125	-4.246466666184042	-9.826222202025029	5.258911516363348	49.6107363549372	-46.75900493621627	38.51016448869112	-0.111587982832618	-0.9397321428571428	0.6507936507936508
2489.288330078125	-4.482325595252274	-9.904671693542427	5.375416668084426	51.04417938636238	-49.99518617507547	39.29061962213987	-0.111587982832618	-0.9397321428571428	0.6507936507936508
2493.194580078125	-4.573637625293078	-10.10577877526222	5.322946202777197	52.49851168246082	-52.47132653357591	40.78331659251016	-0.1180257510729614	-0.9665178571428571	0.6439909297052154
2497.100830078125	-4.781098280487848	-9.861279926286034	5.660848456948091	53.22842680225051	-55.35701803702919	41.18648404015631	-0.1180257510729614	-0.9665178571428571	0.6439909297052154
2501.007080078125	-4.935346289051554	-10.07185865832161	5.779526864339089	54.68362326950699	-59.29969387915787	42.33415141857021	-0.1180257510729614	-0.9665178571428571	0.6439909297052154
2504.913330078125	-5.001381317296356	-9.970188207029059	5.240172545962096	56.46274376942355	-61.43459472218149	43.47021952764626	-0.1030042918454936	-0.9375	0.6621315192743764
2508.819580078125	-4.863836480483323	-9.870553554387088	5.77140315037314	57.88487799735406	-63.58426091759184	44.23958333459063	-0.1030042918454936	-0.9375	0.6621315192743764
2512.725830078125	-4.752924250384092	-10.17469297971838	5.904669936368413	59.66109306726377	-66.82352556309408	45.0269247428755	-0.1030042918454936	-0.9375	0.6621315192743764
2516.632080078125	-4.760599085136461	-10.0130000697547	5.651745248339972	61.08032186518741	-70.07755556098306	45.44756184902869	-0.1030042918454936	-0.9375	0.6621315192743764
2520.538330078125	-4.914012745259733	-10.43570835739589	5.686988811687561	62.17389828813491	-72.2062895907206	46.5698574084325	-0.0815450643776824	-0.9084821428571428	0.6893424036281179
2524.444580078125	-5.033171489484514	-10.1920925275294	6.378373438247228	64.28825162420624	-73.61993047808801	47.70541757467508	-0.0815450643776824	-0.9084821428571428	0.6893424036281179
2528.350830078125	-4.764910222114394	-10.23517918060714	6.082858946133269	66.06823629528083	-77.22136680473989	48.49645609179475	-0.0815450643776824	-0.9084821428571428	0.6893424036281179
2532.257080078125	-4.60207828243465	-10.18630244949889	6.126195590403806	68.16546996784378	-79.75722025361569	48.92347152995059	-0.1072961373390558	-0.9040178571428571	0.6938775510204082
2536.163330078125	-4.664123346521155	-10.165479978656	6.208253019462459	69.92660663309393	-81.54779817451946	49.69602450289629	-0.1072961373390558	-0.9040178571428571	0.6938775510204082
2540.069580078125	-4.582520506873196	-10.11579095654743	6.211234360788974	71.34120165869466	-82.97312100763057	50.45799409217106	-0.1072961373390558	-0.9040178571428571	0.6938775510204082
2543.975830078125	-4.469460789141565	-10.12702256382576	6.129752383544193	74.10136180123733	-83.34211118289474	50.87659942699039	-0.1072961373390558	-0.9040178571428571	0.6938775510204082
2547.882080078125	-4.521012819748327	-10.41943633644898	6.18291462789387	76.1788832968178	-82.60057074239421	51.63015891292865	-0.09227467811158799	-0.9040178571428571	0.7120181405895691
2551.788330078125	-4.500471199899967	-10.13681346981918	6.169568969588628	77.54997145075593	-82.61290436896637	51.65770401227313	-0.09227467811158799	-0.9040178571428571	0.7120181405895691
2555.694580078125	-4.213411757485593	-10.19018911474838	6.035053299579745	79.94183651781788	-81.91014485316842	51.69851371845639	-0.09227467811158799	-0.9040178571428571	0.7120181405895691
2559.600830078125	-4.090135775611603	-10.22172490487015	5.952353071364358	81.35556737226058	-81.86893220265129	52.80551289968756	-0.1030042918454936	-0.875	0.7346938775510204
2563.507080078125	-4.121808816608413	-9.968882921934929	6.058432681249562	83.42264423550442	-81.50741220233012	53.20295146716505	-0.1030042918454936	-0.875	0.7346938775510204
2567.413330078125	-4.330176547952712	-9.896092173914415	6.487042550373217	84.45472995212289	-81.87883410340886	53.2273074005082	-0.1030042918454936	-0.875	0.7346938775510204
2571.319580078125	-4.256262684556112	-9.997841413558481	6.238513353570331	85.13564025676905	-80.05629375191708	53.58241243330204	-0.1030042918454936	-0.875	0.7346938775510204
2575.225830078125	-4.237264508311849	-9.836415233704761	6.379512055674685	87.54171955733254	-79.33568547708936	53.98304016678086	-0.08583690987124463	-0.8526785714285714	0.7414965986394558
2579.132080078125	-4.135623082136761	-9.67581548635035	6.41945107081898	88.1921601361268	-80.11974192976396	52.924752852236	-0.08583690987124463	-0.8526785714285714	0.7414965986394558
2583.038330078125	-4.136253388948906	-9.63540514287819	6.482481752033371	89.90515615739143	-78.66862347935091	53.30421381837299	-0.08583690987124463	-0.8526785714285714	0.7414965986394558
2586.944580078125	-4.022878517811201	-9.666841921892598	6.369484434181395	91.60393794515454	-77.23535378796764	53.32385675721443	-0.06008583690987124	-0.8258928571428571	0.782312925170068
2590.850830078125	-3.91390771350194	-9.59722455922862	6.696893799173557	92.65314332528142	-76.484563127538	54.05675741864432	-0.06008583690987124	-0.8258928571428571	0.782312925170068
2594.757080078125	-4.0460565171142	-9.595903071192497	6.646468037950674	93.99870844222337	-75.42823046969104	53.71339316418887	-0.06008583690987124	-0.8258928571428571	0.782312925170068
2598.663330078125	-4.086935715182627	-9.322767006484538	6.652755191732141	94.98815145833727	-75.85319864785909	52.65829501564534	-0.06008583690987124	-0.8258928571428571	0.782312925170068
2602.569580078125	-4.035981667961746	-9.212165435845636	6.659391285970475	97.07234798508949	-74.36946608602955	53.76427831120957	-0.09227467811158799	-0.8258928571428571	0.7936507936507937
2606.475830078125	-4.018005720073075	-9.03052701350634	6.902612823634065	98.11487833404462	-74.3608675469289	54.14475516301349	-0.09227467811158799	-0.8258928571428571	0.7936507936507937
2610.382080078125	-4.171047660794313	-9.231016796119331	6.900684446778296	99.44332378747818	-74.42674745059036	53.0928461804713	-0.09227467811158799	-0.8258928571428571	0.7936507936507937
2614.288330078125	-4.222357265704097	-8.91737238693892	6.929604121430131	100.464100700602	-73.71165430822023	53.10611078731007	-0.09227467811158799	-0.8191964285714285	0.8163265306122449
2618.194580078125	-4.220120888649471	-9.109313942628658	6.705966415967534	101.8418638857119	-72.98179581346338	53.48607969628053	-0.09227467811158799	-0.8191964285714285	0.8163265306122449
2622.100830078125	-4.422937071532963	-9.198194871708916	6.579421439010598	102.8379819329975	-72.66457187030241	52.78340535736298	-0.09227467811158799	-0.8191964285714285	0.8163265306122449
2626.007080078125	-4.391750902144251	-8.97628451118058	6.522028989935227	104.2090700869357	-72.67690549687457	52.81095045670746	-0.09227467811158799	-0.8191964285714285	0.8163265306122449
2629.913330078125	-4.374354755714187	-9.00676150294791	6.823230673459491	104.8699552980666	-73.08094150936979	52.10878406062338	-0.08369098712446352	-0.7678571428571428	0.8435374149659864
2633.819580078125	-4.427092652022002	-9.006234123984832	6.994979487914446	105.8831930088606	-71.64150500470043	52.11465444979257	-0.08369098712446352	-0.7678571428571428	0.8435374149659864
2637.725830078125	-4.427217905298774	-8.965828831048023	7.007504815591665	107.2655899662934	-72.74035367472145	52.15329087564143	-0.08369098712446352	-0.7678571428571428	0.8435374149659864
2641.632080078125	-4.366580930468886	-8.996738231099355	7.066256312194646	108.294770252905	-74.2161393782788	51.82892010819341	-0.06223175965665236	-0.7566964285714285	0.8594104308390023
2645.538330078125	-4.466286991496428	-9.015943190691099	6.832780782295909	108.6137475967094	-76.08362746775924	50.77483784531682	-0.06223175965665236	-0.7566964285714285	0.8594104308390023
2649.444580078125	-4.504598497391025	-8.813539873611949	6.582298718694395	110.3209327579603	-76.84123662230344	50.45684540987146	-0.06223175965665236	-0.7566964285714285	0.8594104308390023
2653.350830078125	-4.128524008414716	-8.372856174057269	6.729951861879798	110.2753846274489	-77.99914670187134	49.02866462719359	-0.06223175965665236	-0.7566964285714285	0.8594104308390023
2657.257080078125	-4.322180499151846	-8.5729398111701	6.707845833552017	110.9438090409096	-79.1275260766658	48.3338924487791	-0.06223175965665236	-0.7388392857142857	0.891156462585034
2661.163330078125	-4.465295066352959	-8.480599574588998	6.733588267948904	111.6038300808825	-78.06502660553278	47.9767556446514	-0.06223175965665236	-0.7388392857142857	0.891156462585034
2665.069580078125	-4.067024402146413	-8.494683291332072	6.702440214641289	111.201295678385	-79.23770203748741	46.18187055984185	-0.06223175965665236	-0.7388392857142857	0.891156462585034
2668.975830078125	-4.350849481720267	-8.108006656697951	6.513519600598125	112.936909306639	-79.95961367397207	46.58351417898761	-0.03433476394849785	-0.7142857142857142	0.8934240362811792
2672.882080078125	-4.351019179708152	-8.330227181940295	6.530489399386614	113.2236885822754	-81.50062760036241	44.80609875268511	-0.03433476394849785	-0.7142857142857142	0.8934240362811792
2676.788330078125	-4.370467863705966	-8.077507442575062	6.434541472637417	113.5777694242546	-82.59022605045432	44.82407635402561	-0.03433476394849785	-0.7142857142857142	0.8934240362811792
2680.694580078125	-4.289804423633798	-7.977303975965684	6.531462771543071	114.2595439000588	-82.23422118259076	44.83415179486306	-0.03433476394849785	-0.7142857142857142	0.8934240362811792
2684.600830078125	-4.42188656017939	-8.08709426571134	6.474370303653281	114.2377904642275	-81.52772657932128	44.46693954989791	-0.04291845493562232	-0.671875	0.9138321995464853
2688.507080078125	-4.054468730028212	-7.868546221790628	6.467281166086503	114.9375487746981	-81.51604463357761	44.84053012686572	-0.04291845493562232	-0.671875	0.9138321995464853
2692.413330078125	-4.065612272461514	-7.817929735861245	6.561227246151357	115.2774153831757	-82.62349184269928	44.49868970091065	-0.04291845493562232	-0.671875	0.9138321995464853
2696.319580078125	-4.21996937258886	-7.846689195163002	6.690814809906383	115.9704986624746	-83.35400201828459	44.51985646825248	-0.03862660944206009	-0.6674107142857143	0.9501133786848073
2700.225830078125	-4.084281153800713	-7.686429915734721	6.387299053540766	116.6351534747704	-84.12020971192943	43.8213871810032	-0.03862660944206009	-0.6674107142857143	0.9501133786848073
2704.132080078125	-4.104299538186427	-7.494310539971672	6.348321165581499	116.6067250077673	-84.15590722998897	43.10175112641208	-0.03862660944206009	-0.6674107142857143	0.9501133786848073
2708.038330078125	-4.237844309770455	-7.523278122558863	6.437492201535359	116.22798529995	-83.46417797910621	42.36783457931524	-0.03862660944206009	-0.6674107142857143	0.9501133786848073
2711.944580078125	-4.105881365859211	-7.383183610583833	6.506503932859921	116.5585843637818	-80.91421085867215	42.70865911960337	-0.02145922746781116	-0.6383928571428571	0.9546485260770975
2715.850830078125	-4.23007856538172	-7.331436588083558	6.681325925927109	116.5188470932841	-79.86339333328281	41.97793173850786	-0.02145922746781116	-0.6383928571428571	0.9546485260770975
2719.757080078125	-4.218878456952456	-7.139629397248658	6.581723246266092	116.5330613267856	-79.84554457425305	42.33774976580342	-0.02145922746781116	-0.6383928571428571	0.9546485260770975
2723.663330078125	-4.291400392805572	-7.169207208193158	6.691059688720533	116.1372019554599	-80.27602788487869	40.89528849061985	0.006437768240343348	-0.5959821428571428	0.9705215419501134
2727.569580078125	-4.137194808738839	-6.887920981205543	6.576623731026658	117.1617484697486	-79.92310642365818	40.91225020629343	0.006437768240343348	-0.5959821428571428	0.9705215419501134
2731.475830078125	-4.175779043542535	-6.736019987342353	6.353414558335218	117.1408592050753	-80.68314730401694	40.20000836937189	0.006437768240343348	-0.5959821428571428	0.9705215419501134
2735.382080078125	-4.168136532216431	-6.675490351849554	6.609571588990038	116.4202116299314	-81.45487013011939	39.11417595548256	0.006437768240343348	-0.5959821428571428	0.9705215419501134
2739.288330078125	-3.820153244564076	-6.396141901897795	6.505120374775022	117.4731866112232	-81.06625115083936	39.85077372574725	0.01716738197424893	-0.5848214285714285	0.981859410430839
2743.194580078125	-3.81080971293084	-6.477043418022208	6.591175374716649	116.7374606314198	-80.38928725234334	38.75015287651874	0.01716738197424893	-0.5848214285714285	0.981859410430839
2747.100830078125	-3.747988886614004	-6.275651424265174	6.431541722624899	116.372935157104	-79.67970924243083	38.37605435671747	0.01716738197424893	-0.5848214285714285	0.981859410430839
2751.007080078125	-3.473493197174397	-6.26829537105856	6.532993186827396	116.0017346516164	-79.71232335384731	37.64953202729023	0.03004291845493562	-0.5446428571428571	0.9750566893424036
2754.913330078125	-3.789845868326911	-6.224727803942995	6.535607240854331	116.0046400816233	-78.60795955136869	37.9982587280814	0.03004291845493562	-0.5446428571428571	0.9750566893424036
2758.819580078125	-3.655133412969103	-5.9533476557693	6.32966782752253	115.2839925064794	-79.37968237747113	36.91242631419207	0.03004291845493562	-0.5446428571428571	0.9750566893424036
2762.725830078125	-3.613757242221871	-6.044670508385863	6.273683405860486	115.266008671813	-79.03535945535127	36.54891117806172	0.03004291845493562	-0.5446428571428571	0.9750566893424036
2766.632080078125	-3.696634836993108	-5.821619510215928	6.398177576861793	114.9127920009918	-79.41229648888763	36.18590398476483	0.02145922746781116	-0.5133928571428571	1.00453514739229
2770.538330078125	-3.391538840265818	-5.794367439880172	6.500822802092039	114.5349164643325	-80.18710272163311	35.10695784571162	0.02145922746781116	-0.5133928571428571	1.00453514739229
2774.444580078125	-3.696317663372894	-5.508491368820818	6.366460214840449	114.1779301923464	-80.20186807401983	34.74025354357993	0.02145922746781116	-0.5133928571428571	1.00453514739229
2778.350830078125	-3.583211480716009	-5.428814349839305	6.280331745070249	113.4677272495392	-80.5935704599429	34.01054204815136	0.05150214592274678	-0.5044642857142857	1.015873015873016
2782.257080078125	-3.685018564450699	-5.144967996173676	6.256958485886146	112.7717385402335	-80.9674240868362	33.64064858001836	0.05150214592274678	-0.5044642857142857	1.015873015873016
2786.163330078125	-3.430686714814991	-5.208117375276093	6.333977603948082	111.7187635589417	-81.35604306611623	32.90405080975367	0.05150214592274678	-0.5044642857142857	1.015873015873016
2790.069580078125	-3.340404993986344	-4.804979788443976	6.489478990471141	110.6695581788149	-82.10683372654587	32.17115014832378	0.05150214592274678	-0.5044642857142857	1.015873015873016
2793.975830078125	-3.297996493812811	-4.764999833041672	6.330261626179117	109.9735694695091	-82.48068735343917	31.80125668019076	0.05150214592274678	-0.4799107142857142	1.034013605442177
2797.882080078125	-3.277101336489693	-4.734905754311871	6.281562220397855	108.2246057789117	-83.24315995961253	30.69476544179307	0.05150214592274678	-0.4799107142857142	1.034013605442177
2801.788330078125	-3.032280696260966	-4.606040829401027	6.289294115892505	106.8363979614652	-84.35303889454875	29.95867561436184	0.05150214592274678	-0.4799107142857142	1.034013605442177
2805.694580078125	-2.948287943283628	-4.667486817536862	6.053284124281123	106.5003009541524	-83.60776336657671	30.30421314915169	0.07939914163090128	-0.4575892857142857	1.040816326530612
2809.600830078125	-3.155789002761227	-4.523997665527944	6.395226806734991	105.1149985667127	-83.61327849903431	29.91685002251165	0.07939914163090128	-0.4575892857142857	1.040816326530612
2813.507080078125	-3.461719347928951	-4.339120180258085	6.376016425548152	103.3651707049572	-82.90921562157938	29.15538837607034	0.07939914163090128	-0.4575892857142857	1.040816326530612
2817.413330078125	-2.992369180766311	-4.444823782939813	6.379775219488259	101.997852152184	-83.25905367615685	29.13154038556065	0.07939914163090128	-0.4575892857142857	1.040816326530612
2821.319580078125	-3.176991232633852	-4.210654330097904	6.474633467466854	100.6058747335726	-84.00676092994347	28.39175344929463	0.1094420600858369	-0.4308035714285714	1.061224489795918
2825.225830078125	-3.02350888522977	-4.070775012157803	6.43252117603821	99.24232578196424	-84.71877066567055	28.37160256761973	0.1094420600858369	-0.4308035714285714	1.061224489795918
2829.132080078125	-2.921200788387992	-4.011192032520161	6.405793124513438	97.14391502171048	-86.22035198652983	26.90580124475994	0.1094420600858369	-0.4308035714285714	1.061224489795918
2833.038330078125	-2.830690783361357	-3.820177940651236	6.538466091237694	94.72739108881038	-87.32098070153694	26.14905259282035	0.1137339055793991	-0.3883928571428571	1.056689342403628
2836.944580078125	-3.076915472418416	-3.797513673558645	6.671139078576381	93.33164406903407	-87.70651627417394	25.40556854771955	0.1137339055793991	-0.3883928571428571	1.056689342403628
2840.850830078125	-2.860394115570218	-3.819880907329147	6.447574822327929	91.26079760462534	-87.70586459334545	25.00443287140726	0.1137339055793991	-0.3883928571428571	1.056689342403628
2844.757080078125	-2.790072192917182	-3.658967964939516	6.558239699881408	89.53649277986605	-88.07046800030965	24.61388057876589	0.1137339055793991	-0.3883928571428571	1.056689342403628
2848.663330078125	-2.719334106150999	-3.518261204393036	6.627288166120257	87.81218795510677	-88.43507140727382	24.22332828612452	0.1330472103004292	-0.3816964285714285	1.065759637188209
2852.569580078125	-3.125538192520023	-3.584906234236417	6.431370272410462	85.7346664595263	-89.17661184777435	23.46976880018626	0.1330472103004292	-0.3816964285714285	1.065759637188209
2856.475830078125	-2.707509751552016	-3.356763286322864	6.465260869487296	84.3606728755813	-90.26864202368083	23.09349700005059	0.1330472103004292	-0.3816964285714285	1.065759637188209
2860.382080078125	-2.627971570756656	-3.56967988025203	6.674708096073768	82.62969301965025	-91.37543755197402	22.35052089778325	0.1545064377682404	-0.3660714285714285	1.074829931972789
2864.288330078125	-2.586841866134685	-3.418576025783098	6.643370286937864	80.88826853138256	-92.86225352044657	21.25142387705514	0.1545064377682404	-0.3660714285714285	1.074829931972789
2868.194580078125	-2.608023893865895	-3.307253094394675	6.72075673352824	80.17806558857534	-93.25395590636965	20.52171238162657	0.1545064377682404	-0.3660714285714285	1.074829931972789
2872.100830078125	-2.547437424389543	-3.085636736867216	6.784558765484938	77.73978821984393	-93.64809001810727	19.39775148472184	0.1545064377682404	-0.3660714285714285	1.074829931972789
2876.007080078125	-2.780635731433436	-3.053001723493747	6.635001714772194	77.04961037055193	-91.81321604004334	19.72531141817118	0.1545064377682404	-0.3660714285714285	1.074829931972789
2879.913330078125	-2.258345646548833	-3.159234725352694	6.446809552842476	75.29774124994762	-93.68005244869529	18.27009347898231	0.1545064377682404	-0.3660714285714285	1.074829931972789
2883.819580078125	-2.199310701533144	-2.876996791974568	6.665764030865366	73.56589722285854	-93.32031249336023	17.87214696867135	0.1545064377682404	-0.3660714285714285	1.074829931972789
2887.725830078125	-2.108923929569139	-2.817294599088147	6.810760303852692	72.84438547655665	-92.62549983583445	17.1313441467384	0.1952789699570815	-0.3169642857142857	1.077097505668934
2891.632080078125	-2.077412505703647	-2.969124864841954	6.720842407099383	70.40610810782522	-93.01963394757207	16.00738324983367	0.1952789699570815	-0.3169642857142857	1.077097505668934
2895.538330078125	-1.597433950713785	-2.771904448371651	6.68217058158255	68.66381944839952	-93.03991443241641	15.25331582106194	0.1952789699570815	-0.3169642857142857	1.077097505668934
2899.444580078125	-1.536986876013196	-2.823013969623707	6.759912091115508	67.60330526477797	-92.7041900493972	14.50932383312766	0.1952789699570815	-0.3169642857142857	1.077097505668934
2903.350830078125	-1.44495362952388	-2.81383329198759	6.740260911571655	66.18580480917039	-92.3832310187647	13.3986275430617	0.1952789699570815	-0.3169642857142857	1.077097505668934
2907.257080078125	-1.374809485715294	-2.693322612213554	6.868703673570218	65.80620093019499	-90.22496628425372	13.00974058792126	0.1952789699570815	-0.3169642857142857	1.077097505668934
2911.163330078125	-1.242387953193932	-2.644141777033718	6.891856543883029	63.35747892912695	-90.99912083617073	11.52965877255576	0.1952789699570815	-0.3169642857142857	1.077097505668934
2915.069580078125	-1.189698542025513	-2.563860590337321	6.72495624336764	63.3168774874712	-88.48176782715315	11.14396098341664	0.2489270386266094	-0.2924107142857142	1.072562358276644
2918.975830078125	-1.136695997665164	-2.837117888508197	6.526742623659207	62.26303833502141	-87.40385132280494	10.75239280510834	0.2489270386266094	-0.2924107142857142	1.072562358276644
2922.882080078125	-1.109295709577597	-2.53436158835877	6.847938304698475	60.82378444358253	-86.37639768890298	9.274484270077227	0.2489270386266094	-0.2924107142857142	1.072562358276644
2926.788330078125	-0.9951875007065339	-2.777926912871723	6.661607213510526	58.71320070867609	-85.32492848268518	8.14262121266944	0.2489270386266094	-0.2924107142857142	1.072562358276644
2930.694580078125	-1.039442476605385	-2.434050019678391	7.005472150334449	58.27673989569461	-83.23805878429323	6.314462148346753	0.2489270386266094	-0.2924107142857142	1.072562358276644
2934.600830078125	-1.058830554178955	-2.282340987387504	6.903463581160792	56.2552111629622	-82.44166870504647	7.345204363547119	0.2489270386266094	-0.2924107142857142	1.072562358276644
2938.507080078125	-0.9982642868440184	-2.363754730868934	6.969285827258976	54.50915290237161	-82.09977750874118	6.5874398259406	0.2489270386266094	-0.2924107142857142	1.072562358276644
2942.413330078125	-0.907732059461827	-2.546478234960938	7.099736558427598	54.15507206039241	-81.01017905864929	6.569462224600097	0.2811158798283262	-0.25	1.056689342403628
2946.319580078125	-1.121451379295783	-2.312017809439366	7.043097113251821	53.42688528291878	-81.0575585224525	5.476235593041174	0.2811158798283262	-0.25	1.056689342403628
2950.225830078125	-1.019315000656032	-2.302938163124753	7.033540881929688	52.39479956630029	-80.68613662137376	5.451879659698017	0.2811158798283262	-0.25	1.056689342403628
2954.132080078125	-0.7434698081699106	-2.356201665554665	7.000042041480863	50.62031283870663	-80.37994294312799	3.974479067500377	0.2811158798283262	-0.25	1.056689342403628
2958.038330078125	-0.5099401860068139	-2.267627870867205	7.116467580273222	49.89880109240475	-79.6851302856022	3.233676245567427	0.2811158798283262	-0.25	1.056689342403628
2961.944580078125	-0.6534951598907697	-2.114677169613214	7.186250682954522	49.85529422074215	-78.27214107906326	2.49925175563713	0.2811158798283262	-0.25	1.056689342403628
2965.850830078125	-0.7256675986974084	-2.053349384619087	7.26063742076124	48.12721979481796	-78.27457280487782	2.105002354160965	0.2811158798283262	-0.25	1.056689342403628
2969.757080078125	-0.6648063800978147	-1.952947895794982	7.296964540393716	47.39903301734432	-78.32195226868103	1.011775722602042	0.3240343347639485	-0.2477678571428571	1.049886621315193
2973.663330078125	-0.4003128121015686	-1.945491821373934	7.37821998566706	47.03827714419337	-77.97454593991813	0.641374311635567	0.3240343347639485	-0.2477678571428571	1.049886621315193
2977.569580078125	-0.2261716724289214	-1.8866271721646	7.31104479391255	46.28166189971668	-78.05762292178086	-1.171488374514476	0.3240343347639485	-0.2477678571428571	1.049886621315193
2981.475830078125	-0.214082669777404	-1.997859173302226	7.12255269202611	44.92769340928693	-76.92307673370033	-0.490488745772222	0.3240343347639485	-0.2477678571428571	1.049886621315193
2985.382080078125	-0.09527540158438232	-1.988946235883146	7.486723831907619	44.54518410030469	-75.86917580166795	-1.228102401703845	0.3240343347639485	-0.2477678571428571	1.049886621315193
2989.288330078125	0.04367748325640643	-2.050941825337615	6.856741470277724	43.80945812050128	-75.19221190317192	-2.328723250932356	0.3240343347639485	-0.2477678571428571	1.049886621315193
2993.194580078125	-0.001019919539430664	-1.979787780602586	7.24484909680021	43.11260524003755	-74.099530046437	-2.35358712710898	0.3240343347639485	-0.2477678571428571	1.049886621315193
2997.100830078125	-0.1837389296856911	-1.887051499592032	7.149403172650742	43.07663757070471	-73.41088420219728	-3.080617399369689	0.3476394849785407	-0.2053571428571428	1.058956916099773
3001.007080078125	0.02287727599793756	-2.07093584346705	6.895945869593999	42.35512582440283	-72.71607154467148	-3.821420221302639	0.3476394849785407	-0.2053571428571428	1.058956916099773
3004.913330078125	0.174111125062545	-1.718912828422343	7.078683412112842	42.00104498242363	-71.62647309457958	-3.839397822643142	0.3476394849785407	-0.2053571428571428	1.058956916099773
3008.819580078125	0.04037847356335838	-1.939797724129573	7.18664243958253	41.60055183877497	-70.22824924042736	-4.940526614705119	0.3476394849785407	-0.2053571428571428	1.058956916099773
3012.725830078125	0.2725646533223665	-1.800705444513022	7.437412218783765	41.25691562913241	-68.75863035015607	-4.602383297584856	0.3476394849785407	-0.2053571428571428	1.058956916099773
3016.632080078125	0.3444865855754606	-1.781222643633533	7.388076136331485	40.87817592131506	-68.06690109927332	-5.336299844681685	0.3476394849785407	-0.2053571428571428	1.058956916099773
3020.538330078125	0.4877001432695052	-1.701846698402392	7.352434652641312	40.15666417501316	-67.37208844174754	-6.077102666614635	0.3476394849785407	-0.2053571428571428	1.058956916099773
3024.444580078125	0.4789404535231582	-1.752264152009979	7.207995464010716	40.487263238845	-64.82212132131347	-5.736278126326512	0.3755364806866953	-0.1785714285714285	1.047619047619048
3028.350830078125	0.5194701545451079	-1.611255307606057	7.236658014876971	40.0800950640246	-64.16608958849025	-7.189830728014462	0.3755364806866953	-0.1785714285714285	1.047619047619048
3032.257080078125	0.622416639055596	-1.773900934067324	7.146091196481215	39.74690348671867	-62.31645025803958	-6.495566492433433	0.3755364806866953	-0.1785714285714285	1.047619047619048
3036.163330078125	0.7049245346389416	-1.380786619083763	7.058566944269117	38.65419123492919	-61.65425171193029	-7.962891643793624	0.3755364806866953	-0.1785714285714285	1.047619047619048
3040.069580078125	0.6321480518039982	-1.491169965366525	7.193358084906293	39.01989379693583	-58.32639495210769	-6.550007239288408	0.3755364806866953	-0.1785714285714285	1.047619047619048
3043.975830078125	0.5296561154753446	-1.581054136912329	7.238470085118595	38.62984528562382	-56.54815065777608	-7.295015112889619	0.3755364806866953	-0.1785714285714285	1.047619047619048
3047.882080078125	0.7205348117679305	-1.633467974380306	7.538355557900819	38.24733597664157	-55.49424972574371	-8.032628768821242	0.3755364806866953	-0.1785714285714285	1.047619047619048
3051.788330078125	0.6260409444542835	-1.582017985202119	7.804068819877774	38.56458497812991	-54.42866684796765	-8.396651847785064	0.4248927038626609	-0.1763392857142857	1.027210884353742
3055.694580078125	0.7291934908072033	-1.583049510665648	7.69289581723885	38.89895364312664	-52.24087140868322	-8.052130198662146	0.4248927038626609	-0.1763392857142857	1.027210884353742
3059.600830078125	1.047562335672922	-1.283202896084002	7.488664391891527	39.20198841111346	-51.19313728993692	-8.775971304921526	0.4248927038626609	-0.1763392857142857	1.027210884353742
3063.507080078125	0.9251914097343169	-1.413292318137747	7.480859026568302	38.81193989980144	-49.41489299560531	-9.520979178522738	0.4248927038626609	-0.1763392857142857	1.027210884353742
3067.413330078125	0.6066124625978843	-1.531318649878504	7.706100678987089	39.1471727359562	-48.69363303994911	-9.521487121356206	0.4248927038626609	-0.1763392857142857	1.027210884353742
3071.319580078125	0.8625665441892053	-1.604585261401488	7.62089660148763	39.8347580717741	-46.12890056712833	-8.813958278936401	0.4248927038626609	-0.1763392857142857	1.027210884353742
3075.225830078125	0.8437017020782809	-1.483184491768258	7.466564486049461	39.79502080127638	-45.078083041739	-9.544685660031902	0.4248927038626609	-0.1763392857142857	1.027210884353742
3079.132080078125	0.8532694774812227	-1.432775119017237	7.530195109020584	40.12648403626625	-43.99465140493318	-9.548890711700164	0.4484978540772532	-0.1473214285714286	1.038548752834467
3083.038330078125	0.7201489508669066	-1.158716641023821	7.576941648003219	39.76572816311531	-43.64724507617029	-9.91929212266664	0.4484978540772532	-0.1473214285714286	1.038548752834467
3086.944580078125	0.8536250351701244	-1.351970593786045	7.494639340130415	40.44286886659657	-41.46253304352889	-9.567884198707601	0.4484978540772532	-0.1473214285714286	1.038548752834467
3090.850830078125	1.038251127465948	-1.424523925416074	7.399377049323522	39.73934095496109	-41.11204330812295	-9.945171884510197	0.4463519313304721	-0.140625	1.002267573696145
3094.757080078125	0.8315945174994901	-1.341649278508328	7.656874780663239	40.10590768812576	-39.2507220319286	-8.877317071961365	0.4463519313304721	-0.140625	1.002267573696145
3098.663330078125	0.7638079635940194	-1.351072423070284	7.292673028353158	39.0311792710027	-38.93284640793915	-9.981127087191203	0.4463519313304721	-0.140625	1.002267573696145
3102.569580078125	0.6804071333601367	-1.097713162242693	7.469490745618975	39.39397640300248	-36.70935345059519	-8.916969383477165	0.4463519313304721	-0.140625	1.002267573696145
3106.475830078125	0.924963125536329	-1.201168823174555	7.503687446367103	38.34304268055955	-34.52707314376836	-8.959810860994292	0.4656652360515021	-0.140625	1.020408163265306
3110.382080078125	0.8318834081217227	-1.149732975495359	7.627985718439977	38.64984704971125	-33.84151070617168	-9.679954858418878	0.4656652360515021	-0.140625	1.020408163265306
3114.288330078125	0.524749015325673	-1.146661631567399	7.729180100085755	37.61108630192103	-34.21228092642195	-10.05673460138801	0.4656652360515021	-0.140625	1.020408163265306
3118.194580078125	0.8622150269285865	-1.018723160370296	7.656048327549501	38.29953580889695	-33.1140839372294	-9.694235350924588	0.4763948497854077	-0.1071428571428571	1.00907029478458
3122.100830078125	1.045574444957698	-1.000354734348567	7.687453463413835	37.62153093425766	-33.83226048624257	-9.700613682927242	0.4763948497854077	-0.1071428571428571	1.00907029478458
3126.007080078125	0.8809929998314271	-0.8269917481801325	7.819067363796062	37.99273143974525	-33.79964637482608	-8.9740913535	0.4763948497854077	-0.1071428571428571	1.00907029478458
3129.913330078125	1.114298378224819	-0.869728842368107	7.957917279558925	36.94643148962523	-33.4460732327771	-9.358265314138718	0.4763948497854077	-0.1071428571428571	1.00907029478458
3133.819580078125	1.013931707173009	-0.7980181049505181	7.790502752086809	35.91434577300675	-33.07465133169836	-9.382621247481875	0.4785407725321889	-0.1272321428571428	1.002267573696145
3137.725830078125	0.9741373640985609	-0.8178221817217939	7.688304406470431	35.93437086652199	-30.84807496771136	-8.325349818603957	0.4785407725321889	-0.1272321428571428	1.002267573696145
3141.632080078125	1.117809510402723	-0.8293599132858456	7.606804061768507	34.87385668290046	-30.51235058469215	-9.069341806538235	0.4785407725321889	-0.1272321428571428	1.002267573696145
3145.538330078125	0.8898658215696975	-0.796777446094485	7.952193353234333	34.17700380243673	-29.41966872795721	-9.094205682714859	0.463519313304721	-0.1116071428571428	1.024943310657596
3149.444580078125	1.084675854581617	-0.6674124151114729	7.858945154083212	33.83627302280103	-26.84568603520731	-8.407335664803417	0.463519313304721	-0.1116071428571428	1.024943310657596
3153.350830078125	1.023844939194146	-0.8183192574727497	7.819587713238505	32.77952844034439	-26.87213333333772	-9.147630543902901	0.463519313304721	-0.1116071428571428	1.024943310657596
3157.257080078125	1.195937581727325	-0.8806462445041422	7.957262235430763	31.77587119072895	-26.46501391419946	-8.452350422654938	0.463519313304721	-0.1116071428571428	1.024943310657596
3161.163330078125	1.020760072200095	-0.7273793178937182	8.128074412643549	30.39056880328929	-26.47052904665707	-8.839713549294983	0.5	-0.08705357142857142	0.9954648526077098
3165.069580078125	1.105164948862297	-0.4655971040340776	7.850852052545836	30.76090513761885	-24.97137945161234	-7.768161627911356	0.5	-0.08705357142857142	0.9954648526077098
3168.975830078125	1.348306791139448	-0.5690386234669502	8.026463743198045	29.03950574286641	-24.2316190560979	-7.809987219761549	0.5	-0.08705357142857142	0.9954648526077098
3172.882080078125	1.11372867783692	-0.4252787009197834	8.014887318348855	27.65420335542675	-24.23713418855551	-8.197350346401594	0.5128755364806867	-0.07142857142857142	1.00453514739229
3176.788330078125	1.257786685042106	-0.4065172607898151	7.894800883544532	27.3285509804506	-23.11183822040408	-7.495691893150976	0.5128755364806867	-0.07142857142857142	1.00453514739229
3180.694580078125	1.198012341650632	-0.4665255779619609	7.749786243100061	26.29269566266723	-22.37824463817573	-7.523744935328927	0.5128755364806867	-0.07142857142857142	1.00453514739229
3184.600830078125	1.154373531064934	-0.476190199957114	8.032034648608635	25.26437954721363	-22.36899441824661	-7.544403759837291	0.5128755364806867	-0.07142857142857142	1.00453514739229
3188.507080078125	1.409887205973411	-0.488846346807209	7.990871239393589	24.92828253990085	-21.62371889027457	-7.198866225047439	0.5150214592274678	-0.07589285714285714	1.006802721088435
3192.413330078125	1.278837398854119	-0.4673338285339958	7.83054582887382	23.20688314514841	-20.88395849476013	-7.240691816897632	0.5150214592274678	-0.07589285714285714	1.006802721088435
3196.319580078125	1.431125799700583	-0.3577456014313493	7.90782819320705	21.47590328921736	-21.99075402305332	-7.983667919164976	0.5150214592274678	-0.07589285714285714	1.006802721088435
3200.225830078125	1.278106081334901	-0.4269224749547632	7.903677580795645	20.82459853926506	-19.74016208675048	-6.580351012663741	0.5150214592274678	-0.05803571428571428	0.9909297052154196
3204.132080078125	1.358680631984843	-0.3469201396531818	8.009487821923841	19.79251282264658	-19.36874018567174	-6.604706946006898	0.5150214592274678	-0.05803571428571428	0.9909297052154196
3208.038330078125	1.358967502392934	-0.4883371497714042	7.980800781114727	18.4147496375367	-20.09859868042858	-6.984675854977355	0.5150214592274678	-0.05803571428571428	0.9909297052154196
3211.944580078125	1.329320736180035	-0.2456164396850327	7.884252912608798	17.72834138940961	-18.62589638351427	-6.653418812693213	0.5150214592274678	-0.05803571428571428	0.9909297052154196
3215.850830078125	1.236313746474522	-0.3153934404950483	8.001278413772319	16.35725323547148	-18.61356275694211	-6.680963912037696	0.4914163090128755	-0.06473214285714285	1.018140589569161
3219.757080078125	1.31754890714873	-0.3263068022028005	8.041027652473893	15.3213979176881	-17.87996917471375	-6.709016954215648	0.4914163090128755	-0.06473214285714285	1.018140589569161
3223.663330078125	1.614077134473114	-0.5009892561932161	7.980041654729418	14.2713283664032	-17.16422435151516	-7.096888023689159	0.4914163090128755	-0.06473214285714285	1.018140589569161
3227.569580078125	1.132270285685206	-0.3446560361901854	8.201542860050813	13.24968728212135	-16.41278201025704	-6.76512303857155	0.51931330472103	-0.05803571428571428	0.9773242630385488
3231.475830078125	1.337001631574828	-0.4174104203561524	8.136571536394793	12.57458783748892	-16.02659475679158	-6.422774669783026	0.51931330472103	-0.05803571428571428	0.9773242630385488
3235.382080078125	1.40882659354913	-0.2363104881577135	8.09693248182165	10.80300653990213	-14.61603727606719	-7.551448561189487	0.51931330472103	-0.05803571428571428	0.9773242630385488
3239.288330078125	1.550413878859278	-0.3084334317178858	8.22391823652117	9.45076639178844	-16.41456205524313	-7.560508116360002	0.51931330472103	-0.05803571428571428	0.9773242630385488
3243.194580078125	1.357355371508028	-0.3267048668463935	8.14201386960538	9.121344415647407	-14.92709440594209	-6.862546771944178	0.5214592274678111	-0.0625	0.9909297052154196
3247.100830078125	1.529518721536159	-0.3385275104476849	8.272617642302434	8.771897345991125	-15.66620312062805	-7.221856856406271	0.5214592274678111	-0.0625	0.9909297052154196
3251.007080078125	1.651526008929296	-0.1074243509983839	8.316786862172421	8.439569939843228	-15.28309927380563	-6.872622212781626	0.5214592274678111	-0.0625	0.9909297052154196
3254.913330078125	1.467675678863803	-0.3177070598189411	8.334472929946218	7.399945020894966	-14.18733401042765	-6.904372363794371	0.51931330472103	-0.05133928571428571	0.981859410430839
3258.819580078125	1.508526593934249	-0.2070044578585344	8.331014075962832	7.053403381245547	-13.82207892263499	-6.914955747465286	0.51931330472103	-0.05133928571428571	0.981859410430839
3262.725830078125	1.458166489670964	-0.2974099477249925	8.264983685964784	6.688877906929713	-13.11250091272248	-7.289054267266556	0.51931330472103	-0.05133928571428571	0.981859410430839
3266.632080078125	1.520843880783755	-0.5303599539593528	8.119693554277593	5.985349995294235	-12.76201117731655	-7.666341953069152	0.51931330472103	-0.05133928571428571	0.981859410430839
3270.538330078125	1.809244745388077	-0.4625368918983253	7.85103566527398	5.631269153315039	-11.67241272722465	-7.684319554409655	0.5171673819742489	-0.05803571428571428	0.9795918367346939
3274.444580078125	1.602262880944839	-0.5109721237589434	8.141058844291637	4.645595738366014	-11.60961623020624	-6.625524297031337	0.5171673819742489	-0.05803571428571428	0.9795918367346939
3278.350830078125	1.396044657447083	-0.3169907496047739	8.354717928761088	4.27816483404332	-12.00440202277235	-7.348349517623785	0.5171673819742489	-0.05803571428571428	0.9795918367346939
3282.257080078125	1.571597926804629	-0.5914735550256222	8.146329768516646	3.606834990575779	-11.98038645045651	-7.002304040000467	0.5107296137339056	-0.04910714285714286	0.9909297052154196
3286.163330078125	1.587662752115453	-0.5916342032787304	8.580663563964894	1.874990963486703	-11.62064649512146	-7.400250550311426	0.5107296137339056	-0.04910714285714286	0.9909297052154196
3290.069580078125	1.323643934442456	-0.54858997469796	8.451933086366608	1.56355282201208	-10.47750176794027	-6.338774069765249	0.5107296137339056	-0.04910714285714286	0.9909297052154196
3293.975830078125	1.395016368449066	-0.2866774364117635	8.457546828562771	0.1356077340678502	-10.53656317748716	-7.805591278291973	0.5107296137339056	-0.04910714285714286	0.9909297052154196
3297.882080078125	1.270227246183102	-0.4268436866032452	8.691561095975525	-0.1900446409082969	-9.411267209335739	-7.103932825041356	0.5321888412017167	-0.04241071428571428	0.9863945578231292
3301.788330078125	1.332963223505995	-0.5890872079926358	8.540412343278019	-1.20414652286037	-9.384168230376858	-6.764773622254158	0.5321888412017167	-0.04241071428571428	0.9863945578231292
3305.694580078125	1.363030194260325	-0.6903979787102801	8.59493975764102	-1.865031733991274	-8.980132217881634	-6.062607226170075	0.5321888412017167	-0.04241071428571428	0.9863945578231292
3309.600830078125	1.322189380260586	-0.6495855301662422	8.597388504553663	-1.518490094341854	-9.345387305674294	-6.052023842499159	0.5257510729613734	-0.078125	0.981859410430839
3313.507080078125	1.536880423096597	-0.6517324405946024	8.556855649523921	-1.847047899324862	-9.324455140001492	-5.69909209003972	0.5257510729613734	-0.078125	0.981859410430839
3317.413330078125	1.537385476631969	-0.6517374911299562	8.506350295986749	-2.864055211283796	-10.40171996352123	-5.708659588043702	0.5257510729613734	-0.078125	0.981859410430839
3321.319580078125	1.463857474136393	-0.5196890797918692	8.716293402687237	-2.835626744280746	-10.36602244546171	-4.989023533452581	0.5257510729613734	-0.078125	0.981859410430839
3325.225830078125	1.453578583355648	-0.7317075030052738	8.723774317496453	-3.513631618920036	-11.08419899447487	-4.995401865455235	0.5321888412017167	-0.046875	1.006802721088435
3329.132080078125	1.311158969819207	-0.6191721957587982	8.680021385426191	-3.82130015922977	-10.3032259484433	-3.930228276074264	0.5321888412017167	-0.046875	1.006802721088435
3333.038330078125	1.392921406384344	-0.4987776989123284	8.667043035034959	-5.202832945504538	-10.67091276205053	-4.313894293879514	0.5321888412017167	-0.046875	1.006802721088435
3336.944580078125	1.598527504997229	-0.682651941716639	8.514596439052559	-4.810743175343681	-9.878257770275274	-2.87513012753074	0.5493562231759657	-0.05580357142857142	0.9705215419501134
3340.850830078125	1.545367383933844	-0.6518173102029748	8.72856772906459	-5.500056853477635	-9.509919275839575	-2.892599786037776	0.5493562231759657	-0.05580357142857142	0.9705215419501134
3344.757080078125	1.55522607017316	-0.5812088263582973	8.763107268398302	-5.832384259625531	-9.126815429017155	-2.543365142413131	0.5493562231759657	-0.05580357142857142	0.9705215419501134
3348.663330078125	1.361816045561291	-0.5186686655061181	8.716354627544382	-6.489499869591547	-9.084951097671551	-1.837501637494252	0.5493562231759657	-0.05580357142857142	0.9705215419501134
3352.569580078125	1.636954163097891	-0.5719250971865346	8.753563282047597	-6.143822401100154	-7.98367070183597	-1.481888661866953	0.5386266094420601	-0.04241071428571428	0.9954648526077098
3356.475830078125	1.598711344484105	-0.6523507498084775	8.496212490365028	-7.157924283052227	-7.956571722877089	-1.142729459079756	0.5386266094420601	-0.04241071428571428	0.9954648526077098
3360.382080078125	1.50537505987353	-0.5100032455482303	8.646167482034784	-7.504465922701647	-7.59131663508443	-1.153312842750671	0.5386266094420601	-0.04241071428571428	0.9954648526077098
3364.288330078125	1.30951855593632	-0.5787517512159289	8.844062773714924	-7.854777163515956	-6.863889866142153	-1.16759333525638	0.5407725321888412	-0.0625	0.9750566893424036
3368.194580078125	1.594175963736467	-0.5007902444858496	8.949750565128831	-7.81590406417627	-6.448171907903244	-0.09183636220449296	0.5407725321888412	-0.0625	0.9750566893424036
3372.100830078125	1.606703352856687	-0.5009155183770518	8.717419816372125	-8.523201576976636	-5.73551049134769	-0.4728211568418832	0.5407725321888412	-0.0625	0.9750566893424036
3376.007080078125	1.413768078568067	-0.3878750545230544	8.623192143193265	-7.833887898842683	-6.103848985783388	-0.4553514983348471	0.5407725321888412	-0.0625	0.9750566893424036
3379.913330078125	1.676528302830918	-0.5218157880788143	8.877781961806182	-9.215420685117451	-6.471535799390614	-0.8390175161400977	0.5472103004291845	-0.05357142857142857	0.981859410430839
3383.819580078125	1.821659043745233	-0.7757923480132101	8.650422156088906	-8.851759381959644	-5.714578325674888	-0.119889404382444	0.5472103004291845	-0.05357142857142857	0.981859410430839
3387.725830078125	1.52374494951979	-0.4798839141416626	8.849994843939381	-8.865973615461169	-5.732427084704651	-0.4797074316780042	0.5472103004291845	-0.05357142857142857	0.981859410430839
3391.632080078125	1.483294036849358	-0.752206677742231	8.813453457921327	-8.865973615461169	-5.732427084704651	-0.4797074316780042	0.5407725321888412	-0.05357142857142857	0.9795918367346939
3395.538330078125	1.583442524773887	-0.4602788696921834	9.002686298121501	-8.880187848962693	-5.750275843734414	-0.8395254589735645	0.5407725321888412	-0.05357142857142857	0.9795918367346939
3399.444580078125	1.564086770626581	-0.5307923828577811	8.897445386321465	-9.216284856275479	-5.005000315762373	-0.4939879241837132	0.5407725321888412	-0.05357142857142857	0.9795918367346939
3403.350830078125	1.639544077627278	-0.5113449357257678	8.494571829108981	-8.887727051292471	-5.025932481435175	-0.8469196766431524	0.5407725321888412	-0.05357142857142857	0.9795918367346939
3407.257080078125	1.820485299329029	-0.5030533378417752	8.767796597709292	-9.223824058605254	-4.280656953463134	-0.5013821418533011	0.5515021459227468	-0.05133928571428571	0.9886621315192744
3411.163330078125	1.532595548902504	-0.5809825211455908	8.985343068933286	-9.944471633749117	-5.052379779565582	-1.587214555742636	0.5515021459227468	-0.05133928571428571	0.9886621315192744
3415.069580078125	1.625798499379741	-0.5011064698422824	8.848721490597343	-9.256022126773191	-3.954182790373041	-1.224715305279215	0.5515021459227468	-0.05133928571428571	0.9886621315192744
3418.975830078125	1.666901941217873	-0.6429316456748052	8.820009959845372	-10.29101327339854	-4.687124691772924	-1.597797939413551	0.5515021459227468	-0.0625	0.9795918367346939
3422.882080078125	1.594953746180939	-0.4502929718052439	8.871972320681586	-9.58081033059131	-4.295422305849858	-0.8680864439849824	0.5515021459227468	-0.0625	0.9795918367346939
3426.788330078125	1.687946594387462	-0.6936471427115515	8.756360969417106	-9.963319639573557	-3.241521373817486	-1.605700099916606	0.5515021459227468	-0.0625	0.9795918367346939
3430.694580078125	1.61343272739084	-0.6019929131324944	9.064890526222152	-9.274870132597631	-2.143324384624944	-1.243200849453185	0.5515021459227468	-0.0625	0.9795918367346939
3434.600830078125	1.726088402294174	-0.6132204799825377	9.02381283180711	-8.582651024456817	-1.407299076582021	-0.8770044901549708	0.5386266094420601	-0.05357142857142857	0.9750566893424036
3438.507080078125	1.68719709494097	-0.6229325770100159	8.83131091406627	-8.918748031769601	-0.6620235486099804	-0.5314669553651196	0.5386266094420601	-0.05357142857142857	0.9750566893424036
