Time Stamp	Accelerometer X	Accelerometer Y	Accelerometer Z	Gyroscope X	Gyroscope Y	Gyroscope Z	Magnetometer X	Magnetometer Y	Magnetometer Z
1016.632080078125	-1.389842187744118	-9.481051073072054	1.229116733595475	-1.685431725419614	0.05111455127472191	0.6852046804105152	-0.08798283261802575	-1.017857142857143	0.5306122448979592
1020.538330078125	-2.762769081252706	-9.103685440500607	1.787112206903298	-46.26139846810896	67.80972329541294	-0.8839007418846543	-0.0815450643776824	-1	0.5487528344671202
1024.444580078125	-2.743144638624583	-9.144285725330928	1.865484270621559	0.03685976007555804	56.7833920910851	-2.005945646572649	-0.0815450643776824	-1	0.5487528344671202
1028.350830078125	-2.731356647880147	-8.92218138301615	1.707093359443274	31.61772501826898	83.64166260047415	-2.002623276718499	-0.0815450643776824	-1	0.5487528344671202
1032.257080078125	-2.589478451733625	-8.974105215482666	1.804988030505384	35.74345204184105	107.0356450346613	-4.312321941883893	-0.0815450643776824	-1	0.5487528344671202
1036.163330078125	-2.578571274354878	-9.135830448872614	1.734678455895927	32.15481589459634	126.6772961602604	-3.501374485437297	-0.07725321888412018	-1.008928571428571	0.5283446712018141
1040.069580078125	-2.678261173669289	-9.013621428667349	1.499586754684	26.53185220690099	138.6604473854567	-4.093377501658994	-0.07725321888412018	-1.008928571428571	0.5283446712018141
1043.975830078125	-2.670622702771468	-9.114707914386429	1.756147828167118	6.030972704245984	6.374345145969627	-1.741685148453914	-0.07725321888412018	-1.008928571428571	0.5283446712018141
1047.882080078125	-2.821977764684564	-8.759659010231944	1.585531570497195	3.773949107961968	-5.900059407586392	-1.304369344628206	-0.0815450643776824	-1	0.5192743764172336
1051.788330078125	-2.741534527953818	-9.134200816336625	1.704473203545056	2.699533607371688	-0.07821353023360249	-1.024363883197712	-0.0815450643776824	-1	0.5192743764172336
1055.694580078125	-2.701715942309672	-9.154801022395086	1.804247292191649	0.9743646114543602	1.023718546430452	-1.069886583882699	-0.0815450643776824	-1	0.5192743764172336
1059.600830078125	-2.783009689193984	-9.214594145532304	1.770356674500386	-1.089806821782612	1.766562348587926	-1.118598450569014	-0.0815450643776824	-1	0.5192743764172336
1063.507080078125	-2.67977027363298	-9.023707347768722	1.650496751053069	-1.076456759439115	3.250946591245929	-0.413750831317069	-0.1008583690987124	-0.9977678571428571	0.546485260770975
1067.413330078125	-2.56731055950137	-9.04503396511206	1.629015133810449	-3.135130249195145	0.6985477449973039	-1.148824773081358	-0.1008583690987124	-0.9977678571428571	0.546485260770975
1071.319580078125	-2.669269159296671	-9.013711348811077	1.620793480687498	-3.477902287679678	0.7016311516403432	-1.155711047917479	-0.1008583690987124	-0.9977678571428571	0.546485260770975
1075.225830078125	-2.741558770523516	-9.093796533506888	1.70689746051484	-2.771468946037339	1.455505218713029	-0.4296966613237044	-0.06008583690987124	-1.017857142857143	0.5419501133786848
1079.132080078125	-2.91417464851934	-9.001161283817838	1.621546484587092	-2.752620940212899	-0.3553531870350679	-0.4112111171497347	-0.06008583690987124	-1.017857142857143	0.5419501133786848
1083.038330078125	-2.821658570850209	-9.123298565806651	1.553612187061702	-2.059537660914057	-1.085863362620385	-0.3900443498079046	-0.06008583690987124	-1.017857142857143	0.5419501133786848
1086.944580078125	-2.744364847966041	-8.962455341419332	1.987505204767366	-2.04909302857742	-0.705842922441003	-0.03392343134713838	-0.06008583690987124	-1.017857142857143	0.5419501133786848
1090.850830078125	-2.751764933595167	-8.921977300159	1.707105604414703	-1.37776318510988	-0.7298584947568444	-0.3799689089704565	-0.08583690987124463	-0.9955357142857142	0.5555555555555556
1094.757080078125	-2.708639257401407	-9.23553987005225	1.476170638099896	-1.371088153938131	0.0123336265721571	-0.02754509934448419	-0.08583690987124463	-0.9955357142857142	0.5555555555555556
1098.663330078125	-2.792627969950462	-9.012477760704538	1.711776586882981	-1.720535223594412	-0.7267750881138051	-0.3868551838065776	-0.08583690987124463	-0.9955357142857142	0.5555555555555556
1102.569580078125	-2.731336445738732	-9.124201787057766	1.705073145301787	-1.02454651428871	-0.3529214612205015	-0.01696171567356919	-0.09227467811158799	-0.9888392857142857	0.526077097505669
1106.475830078125	-2.699239159772209	-9.074017709412379	1.556569038445359	-2.056632230907196	0.01850043985823565	-0.04131764901672629	-0.09227467811158799	-0.9888392857142857	0.526077097505669
1110.382080078125	-2.701693719954115	-9.023488113305509	1.802025056636013	-2.063307262078945	-0.7236916814707658	-0.3937414586426986	-0.09227467811158799	-0.9888392857142857	0.526077097505669
1114.288330078125	-2.902269485354698	-9.142694476863626	1.451438331388183	-2.081291096745358	-0.3793687593509092	-0.7572565947730527	-0.09227467811158799	-0.9888392857142857	0.526077097505669
1118.194580078125	-2.660491287623051	-8.993597107325792	1.763414476590756	-1.713860192422664	0.01541703321519637	-0.03443137418060524	-0.09012875536480687	-0.9799107142857142	0.5510204081632654
1122.100830078125	-2.671515637422004	-8.973284843625784	1.845441293220837	-1.717629793587552	0.3775887143648157	-0.03812848301539919	-0.09012875536480687	-0.9799107142857142	0.5510204081632654
1126.007080078125	-2.85352151197632	-8.890656704072157	1.678681809876883	-1.717629793587552	0.3775887143648157	-0.03812848301539919	-0.09012875536480687	-0.9799107142857142	0.5510204081632654
1129.913330078125	-2.722558574065112	-9.104087545572483	1.847694141205046	-2.059537660914057	-1.085863362620385	-0.3900443498079046	-0.08583690987124463	-0.9977678571428571	0.526077097505669
1133.819580078125	-2.509578652606939	-9.116318354888074	1.978273423959241	-1.356873920436606	0.03018238560191986	0.332272927951076	-0.08583690987124463	-0.9977678571428571	0.526077097505669
1137.725830078125	-2.854149798574322	-9.021963552519308	1.741510469677125	-1.714724363580691	1.481952516843436	0.3105982177757792	-0.08583690987124463	-0.9977678571428571	0.526077097505669
1141.632080078125	-2.610020071581984	-9.256728082112465	1.818333688810626	-2.052862629742309	-0.3436712412913837	-0.03762054018193234	-0.08583690987124463	-0.9977678571428571	0.526077097505669
1145.538330078125	-2.80274726381403	-9.153790709180042	1.70329780997445	-2.056632230907196	0.01850043985823565	-0.04131764901672629	-0.07510729613733906	-1	0.5283446712018141
1149.444580078125	-2.791104728487781	-9.194311174937347	1.559452440614871	-1.360643521601494	0.3923540667515392	0.3285758191162821	-0.07510729613733906	-1	0.5283446712018141
1153.350830078125	-2.652331601476725	-8.953274663783212	1.967854025223513	-1.713860192422664	0.01541703321519637	-0.03443137418060524	-0.07510729613733906	-1	0.5283446712018141
1157.257080078125	-2.742255744402329	-8.942274412252949	1.776594848396137	-1.371088153938131	0.0123336265721571	-0.02754509934448419	-0.06866952789699571	-0.9888392857142857	0.5215419501133787
1161.163330078125	-2.825478795791761	-9.153563393860265	1.935634681216869	-2.388095465897065	-1.064931196947583	-0.03711259734846548	-0.06866952789699571	-0.9888392857142857	0.5215419501133787
1165.069580078125	-2.803306863131222	-9.062876022277779	1.759257741693637	-1.34933471810683	-0.6941609766973188	0.3396671456206639	-0.06866952789699571	-0.9888392857142857	0.5215419501133787
1168.975830078125	-2.915402938717364	-9.142563142329999	1.744375504389494	-1.699645958921139	0.03326579224495914	0.325386653114955	-0.06866952789699571	-0.9888392857142857	0.5215419501133787
1172.882080078125	-2.751417456762832	-9.164405017351564	1.672357921181129	-2.031109193911008	-1.05016584456086	0.3295917047832158	-0.09442060085836909	-1.004464285714286	0.54421768707483
1176.788330078125	-2.628622285854515	-9.23634003976772	1.637738789533129	-1.695876357756251	-0.3289058889046602	0.3290837619497489	-0.09442060085836909	-1.004464285714286	0.54421768707483
1180.694580078125	-2.577383388439683	-9.095438287327726	1.615889864376499	-1.663678289588313	-0.655380051994754	1.052416925375663	-0.09442060085836909	-1.004464285714286	0.54421768707483
1184.600830078125	-2.610508963404224	-9.1153090517801	1.867222871034609	-1.342659686935082	0.04803114463168263	0.6920909552466362	-0.0815450643776824	-0.9910714285714285	0.5351473922902494
1188.507080078125	-2.843658785308721	-9.163482604066107	1.712817306382297	-1.353104319271718	-0.3319892955476995	0.33597003678587	-0.0815450643776824	-0.9910714285714285	0.5351473922902494
1192.413330078125	-2.853858887737948	-9.001764441425651	1.712419386039714	-1.34642928809997	0.410202825781302	0.6883938464118423	-0.0815450643776824	-0.9910714285714285	0.5351473922902494
1196.319580078125	-2.773270195589015	-9.113681439458253	1.816815477268869	-2.045323427412533	-1.068014603590622	-0.03022632251234443	-0.0815450643776824	-0.9910714285714285	0.5351473922902494
1200.225830078125	-2.884047071340766	-9.203482761609825	1.670013256525633	-1.671217491918089	0.06896331030448466	1.045022707706075	-0.09227467811158799	-0.9933035714285714	0.5578231292517007
1204.132080078125	-2.743829491218547	-9.012965745491858	1.933969530017964	-1.695876357756251	-0.3289058889046602	0.3290837619497489	-0.09227467811158799	-0.9933035714285714	0.5578231292517007
1208.038330078125	-2.628771781700985	-9.155530464001172	1.652688374180132	-1.363548951608355	-0.7120097357270816	-0.02015088167489629	-0.09227467811158799	-0.9933035714285714	0.5578231292517007
1211.944580078125	-2.478978345319257	-9.096422337758931	1.97946718498699	-0.9676895802826111	-0.2815264251014504	1.422310393508672	-0.07296137339055794	-1.011160714285714	0.526077097505669
1215.850830078125	-2.505804892590642	-9.176962153094296	1.600897422329494	-1.003657249615437	0.4071194191382627	0.6952801212479633	-0.07296137339055794	-1.011160714285714	0.526077097505669
1219.757080078125	-2.812201907225049	-9.224403233453003	1.628353987811002	-1.360643521601494	0.3923540667515392	0.3285758191162821	-0.07296137339055794	-1.011160714285714	0.526077097505669
1223.663330078125	-2.803577571826181	-9.285095537413051	1.786328611189561	-1.7243048247593	-0.3646034069641857	-0.3905522926413715	-0.07296137339055794	-1.011160714285714	0.526077097505669
1227.569580078125	-2.934409195818193	-9.122171059556971	1.604184887941734	-1.7243048247593	-0.3646034069641857	-0.3905522926413715	-0.05579399141630902	-1.006696428571429	0.5306122448979592
1231.475830078125	-2.764605455907318	-9.073364046451029	1.970749672364454	-1.353968490429745	1.134546188080541	0.6809996287422544	-0.05579399141630902	-1.006696428571429	0.5306122448979592
1235.382080078125	-2.793104740487853	-8.891260871787042	1.759453640622071	-1.374857755103019	0.3745053077217764	-0.03124220817927815	-0.05579399141630902	-1.006696428571429	0.5306122448979592
1239.288330078125	-2.649507342106926	-9.114919067993073	1.685428088243648	-1.374857755103019	0.3745053077217764	-0.03124220817927815	-0.08583690987124463	-0.9955357142857142	0.5419501133786848
1243.194580078125	-2.648980066215998	-8.983611209438852	1.632700499150841	-0.6646548122957918	0.7662076936448428	0.6984692872492905	-0.08583690987124463	-0.9955357142857142	0.5419501133786848
1247.100830078125	-2.688772389076306	-9.17513247812944	1.530300132120315	-0.6646548122957918	0.7662076936448428	0.6984692872492905	-0.08583690987124463	-0.9955357142857142	0.5419501133786848
1251.007080078125	-2.771963117039473	-9.10359350014274	1.686107622314668	-1.374857755103019	0.3745053077217764	-0.03124220817927815	-0.08583690987124463	-0.9955357142857142	0.5419501133786848
1254.913330078125	-2.762490291701182	-9.06328418799208	1.759233251750779	-0.6788690457973167	0.7483589346150801	0.3386512599537302	-0.09012875536480687	-0.9955357142857142	0.5238095238095238
1258.819580078125	-2.781902611844449	-8.871170872871456	1.659648939546905	-1.02164108428185	0.7514423412581193	0.3317649851176092	-0.09012875536480687	-0.9955357142857142	0.5238095238095238
1262.725830078125	-2.823559592357348	-9.153582585894609	1.743714337775617	-2.063307262078945	-0.7236916814707658	-0.3937414586426986	-0.09012875536480687	-0.9955357142857142	0.5238095238095238
1266.632080078125	-2.913431209715273	-9.061774778811939	1.547202604180375	-1.032085716618486	0.3714219010787372	-0.0243559333431571	-0.06437768240343347	-1.013392857142857	0.526077097505669
1270.538330078125	-2.751364931195154	-9.083597461799162	1.667105364413263	-1.710090591257776	-0.346754647934423	-0.03073426534581129	-0.06437768240343347	-1.013392857142857	0.526077097505669
1274.444580078125	-2.385739030987474	-9.077152710700229	1.839209221196371	-0.3181131726463711	0.4009526058521842	0.7090526709202054	-0.06437768240343347	-1.013392857142857	0.526077097505669
1278.350830078125	-2.525566709780387	-9.075754433912298	1.536262814773343	-0.6817744758041775	-0.3560048678635408	-0.01007544083744814	-0.06437768240343347	-1.013392857142857	0.526077097505669
1282.257080078125	-2.759583203551581	-9.194626390186709	1.468524436790818	-0.6713298434675408	0.02401557231584131	0.3460454776233181	-0.06866952789699571	-1.006696428571429	0.5328798185941043
1286.163330078125	-2.791876450289829	-9.254909518325388	1.636624620819669	-1.381532786274768	-0.367686813607225	-0.3836660178052504	-0.06866952789699571	-1.006696428571429	0.5328798185941043
1290.069580078125	-2.610284719634519	-8.983998162904667	1.844798494064104	-1.014101881952074	0.02709897895888059	0.3391592027871971	-0.06866952789699571	-1.006696428571429	0.5328798185941043
1293.975830078125	-2.690936038421837	-9.104403770928915	1.746665066673559	-1.324675852268669	-0.296291777488174	1.05560609137699	-0.07296137339055794	-1.008928571428571	0.5351473922902494
1297.882080078125	-2.640891087564625	-8.993793109326377	1.844210797278802	-1.032085716618486	0.3714219010787372	-0.0243559333431571	-0.07296137339055794	-1.008928571428571	0.5351473922902494
1301.788330078125	-2.710410985203491	-9.144613061865138	1.653343418308294	-1.042530348955123	-0.008598539100644939	-0.3804768518039234	-0.07296137339055794	-1.008928571428571	0.5351473922902494
1305.694580078125	-2.669733808549213	-8.912696601308449	1.667258405941695	-0.9819038137841359	-0.2993751841312132	1.062492366213111	-0.07296137339055794	-1.008928571428571	0.5351473922902494
1309.600830078125	-2.629585928000004	-9.145421312437174	1.734103004082053	-1.017871483116962	0.3892706601084999	0.3354620939524031	-0.09871244635193133	-1.011160714285714	0.5510204081632654
1313.507080078125	-2.497043182630153	-9.298261891406023	1.745134589545942	-1.028316115453598	0.009250219929117825	-0.02065882450836315	-0.09871244635193133	-1.011160714285714	0.5510204081632654
1317.413330078125	-2.742956758709425	-8.952368412210888	1.846696279105731	-1.063419613628397	-0.7686394194594092	-1.092718688725456	-0.09871244635193133	-1.011160714285714	0.5510204081632654
1321.319580078125	-2.772449988647572	-9.133891661729688	1.734794783124502	-1.391977418611404	-0.7477072537866071	-0.7397869362660168	-0.06652360515021459	-0.9955357142857142	0.5238095238095238
1325.225830078125	-2.537126416326835	-9.004931766139764	1.671825306152827	-0.3465416396494207	0.3652550877926586	-0.010583383670915	-0.06652360515021459	-0.9955357142857142	0.5238095238095238
1329.132080078125	-2.668945925034033	-9.215734783173906	1.588470054423708	-1.032085716618486	0.3714219010787372	-0.0243559333431571	-0.06652360515021459	-0.9955357142857142	0.5238095238095238
1333.038330078125	-2.476719745909076	-9.157050984359092	1.753607243968758	-1.05297498129176	-0.388618979280027	-0.7365977702646896	-0.06652360515021459	-0.9955357142857142	0.5238095238095238
1336.944580078125	-2.578892488403374	-9.1055242064291	1.766799860745568	-0.6750994446324288	0.3861872534654606	0.3423483687885241	-0.06866952789699571	-1.008928571428571	0.5328798185941043
1340.850830078125	-2.495447213458378	-9.096257649077538	1.585537672368479	-0.6930832792988414	0.7305101755853173	-0.02116676734183	-0.06866952789699571	-1.008928571428571	0.5328798185941043
1344.757080078125	-2.678653095212738	-9.033819529653934	1.538778909028845	-0.3607558731509455	0.3474063287628959	-0.3704014109664752	-0.06866952789699571	-1.008928571428571	0.5328798185941043
1348.663330078125	-2.741732508939684	-8.972582674910607	1.724271302131627	-0.3503112408143086	0.727426768942278	-0.01428049250570896	-0.09442060085836909	-1.011160714285714	0.5306122448979592
1352.569580078125	-2.628890974335333	-9.1252262417718	1.664607637614905	-0.3398666084776718	1.10744720912166	0.3418404259550573	-0.09442060085836909	-1.011160714285714	0.5306122448979592
1356.475830078125	-2.484659228713979	-9.227678660238114	1.527147361193794	-0.01130880349466385	1.086515043448858	-0.01109132650438186	-0.09442060085836909	-1.011160714285714	0.5306122448979592
1360.382080078125	-2.78353494487077	-9.012568690955334	1.822882242179044	-1.050069551284899	0.7157448231985937	-0.3878710694735113	-0.09442060085836909	-1.011160714285714	0.5306122448979592
1364.288330078125	-2.578910670330647	-9.075220994306797	1.768618053472906	-1.060514183621536	0.3357243830192116	-0.7439919879342776	-0.06866952789699571	-1.013392857142857	0.5283446712018141
1368.194580078125	-2.72909198782754	-8.992911100323747	1.480627354182596	-0.7035279116354782	0.3504897354059351	-0.3772876858025963	-0.06866952789699571	-1.013392857142857	0.5283446712018141
1372.100830078125	-2.660056941582631	-9.044106501291246	1.719979872548788	-1.385302387439656	-0.005515132457605664	-0.3873631266400444	-0.06866952789699571	-1.013392857142857	0.5283446712018141
1376.007080078125	-2.853050802081353	-9.001772522282218	1.631610820380239	-0.7072975128003661	0.7126614165555545	-0.3809847946373902	-0.09871244635193133	-1.020089285714286	0.5283446712018141
1379.913330078125	-2.652992211500991	-8.862358966773881	2.033915027650133	-1.756502892927238	-0.03812924387409192	-1.113885456067286	-0.09871244635193133	-1.020089285714286	0.5283446712018141
1383.819580078125	-2.577046012678055	-8.984330549974231	1.582152288213668	-1.75273329176235	-0.4003009250237112	-1.110188347232492	-0.09871244635193133	-1.020089285714286	0.5283446712018141
1387.725830078125	-2.466553987120253	-8.924829409623749	1.757439528351868	-1.046299950120011	0.3535731420489744	-0.3841739606387173	-0.09871244635193133	-1.020089285714286	0.5283446712018141
1391.632080078125	-2.689457241670269	-9.04381249829037	1.59878539151672	-1.050069551284899	0.7157448231985937	-0.3878710694735113	-0.07296137339055794	-1.004464285714286	0.5306122448979592
1395.538330078125	-2.872513627578158	-9.06218395463331	1.537077043530083	-1.056744582456648	-0.0264472981304077	-0.7402948790994835	-0.07296137339055794	-1.004464285714286	0.5306122448979592
1399.444580078125	-2.80314120557162	-9.002271618247315	1.742691985733444	-1.064283784786424	0.697896064168831	-0.7476890967690715	-0.07296137339055794	-1.004464285714286	0.5306122448979592
1403.350830078125	-2.710156438221664	-9.063807526526876	1.62788872012556	-1.042530348955123	-0.008598539100644939	-0.3804768518039234	-0.06437768240343347	-1.006696428571429	0.5170068027210885
1407.257080078125	-2.935421323103077	-8.95044376656695	1.705397616430226	-0.6893136781339535	0.3683384944356979	-0.01746965850703605	-0.06437768240343347	-1.006696428571429	0.5170068027210885
1411.163330078125	-2.68913198719349	-8.912502619522005	1.566259943838781	-1.046299950120011	0.3535731420489744	-0.3841739606387173	-0.06437768240343347	-1.006696428571429	0.5170068027210885
1415.069580078125	-2.477600559274764	-9.035830055013315	1.841688580537586	-0.6997583104705902	-0.01168194574368421	-0.3735905769678023	-0.06437768240343347	-1.006696428571429	0.5170068027210885
1418.975830078125	-2.719962598893301	-9.05360845481915	1.588096624023983	-0.7035279116354782	0.3504897354059351	-0.3772876858025963	-0.0815450643776824	-1.002232142857143	0.5306122448979592
1422.882080078125	-2.740156741909324	-9.07360853359101	1.566694599095651	-1.046299950120011	0.3535731420489744	-0.3841739606387173	-0.0815450643776824	-1.002232142857143	0.5306122448979592
1426.788330078125	-2.679822799200658	-9.104514903321126	1.655749307820935	-1.056744582456648	-0.0264472981304077	-0.7402948790994835	-0.0815450643776824	-1.002232142857143	0.5306122448979592
1430.694580078125	-2.57755510664171	-9.145941620650756	1.633061684579137	-0.6997583104705902	-0.01168194574368421	-0.3735905769678023	-0.07510729613733906	-0.9977678571428571	0.546485260770975
1434.600830078125	-2.681879377196692	-9.043888276935105	1.861407107424298	-1.060514183621536	0.3357243830192116	-0.7439919879342776	-0.07510729613733906	-0.9977678571428571	0.546485260770975
1438.507080078125	-2.822371706442154	-9.113190424349723	1.624925746256189	-1.050069551284899	0.7157448231985937	-0.3878710694735113	-0.07510729613733906	-0.9977678571428571	0.546485260770975
1442.413330078125	-2.618474708992967	-8.973815252910073	1.643389266643578	-0.7072975128003661	0.7126614165555545	-0.3809847946373902	-0.07510729613733906	-0.9977678571428571	0.546485260770975
1446.319580078125	-2.596531060530416	-9.176054891414898	1.489840746919147	-0.7110671139652541	1.074833097705174	-0.3846819034721842	-0.06437768240343347	-1.011160714285714	0.54421768707483
1450.225830078125	-2.597070457706193	-9.287160608554251	1.543780464496846	-0.6968528804637294	1.092681856734937	-0.02486387617662396	-0.06437768240343347	-1.011160714285714	0.54421768707483
1454.132080078125	-2.801337154343273	-9.315420971890912	1.562286862898667	-1.392841589769432	0.718828229841633	-0.3947573443096323	-0.06437768240343347	-1.011160714285714	0.54421768707483
1458.038330078125	-2.943888081798909	-9.152379301000193	1.53166532274807	-1.060514183621536	0.3357243830192116	-0.7439919879342776	-0.06437768240343347	-0.9933035714285714	0.5351473922902494
1461.944580078125	-2.732643524288274	-9.134289726373281	1.835781000255988	-1.064283784786424	0.697896064168831	-0.7476890967690715	-0.06437768240343347	-0.9933035714285714	0.5351473922902494
1465.850830078125	-2.79325019590604	-9.153885679859123	1.773999182440776	-1.04339452011315	1.457936944527595	-0.03544725984753896	-0.06437768240343347	-0.9933035714285714	0.5351473922902494
1469.757080078125	-2.578674305276093	-8.964112246846231	1.744981548017509	-0.721511746301891	0.6948126575257918	-0.7408028219329504	-0.06437768240343347	-0.9933035714285714	0.5351473922902494
1473.663330078125	-2.496629038731148	-9.146750881329861	1.703720199645461	-0.6864082481270926	1.472702296914319	0.3312570422841423	-0.0815450643776824	-0.9933035714285714	0.5192743764172336
1477.569580078125	-2.831600085869326	-9.22420925166656	1.527355525708088	-0.7006224816286173	1.454853537884556	-0.02856098501141791	-0.0815450643776824	-0.9933035714285714	0.5192743764172336
1481.475830078125	-3.036818303367045	-9.181753029087544	1.64101401017394	-1.053839152449787	1.077916504348213	-0.3915681783083053	-0.0815450643776824	-0.9933035714285714	0.5192743764172336
1485.382080078125	-2.832701102576436	-9.072683089984338	1.637457196419122	-1.403286222106068	0.3388077896622509	-0.7508782627703986	-0.06652360515021459	-0.9821428571428571	0.5328798185941043
1489.288330078125	-2.882596557587179	-9.264103327353421	1.524961881166876	-1.035855317783374	0.7335935822283565	-0.02805304217795105	-0.06652360515021459	-0.9821428571428571	0.5328798185941043
1493.194580078125	-2.738989058135544	-9.336246473055009	1.44992622171771	-0.6826386469622047	1.110530615764699	0.3349541511189363	-0.06652360515021459	-0.9821428571428571	0.5328798185941043
1497.100830078125	-2.741677963157864	-9.063492311277514	1.718816723949612	-1.035855317783374	0.7335935822283565	-0.02805304217795105	-0.06652360515021459	-0.9821428571428571	0.5328798185941043
1501.007080078125	-2.659424614556345	-9.256234036682722	1.656747169920249	-0.3398666084776718	1.10744720912166	0.3418404259550573	-0.0815450643776824	-1.008928571428571	0.5328798185941043
1504.913330078125	-2.505495799826994	-9.187066254122945	1.569988145964745	-2.092599900240022	0.7071462840979489	-0.7683479212774347	-0.0815450643776824	-1.008928571428571	0.5328798185941043
1508.819580078125	-2.966716584055431	-8.990534854361469	1.773699221869625	-1.742288659425713	-0.02028048484432915	-0.7540674287717257	-0.0815450643776824	-1.008928571428571	0.5328798185941043
1512.725830078125	-2.862030695169123	-9.021884743553361	1.509191965891849	-0.6684244134606798	1.128379374794462	0.6947721784144965	-0.09012875536480687	-1.002232142857143	0.5419501133786848
1516.632080078125	-2.752433624476	-9.154293845573422	1.773974692497918	-1.039624918948262	1.095765263377976	-0.031750151012745	-0.09012875536480687	-1.002232142857143	0.5419501133786848
1520.538330078125	-2.699659364313638	-9.215427648781107	1.598589492588286	-1.035855317783374	0.7335935822283565	-0.02805304217795105	-0.09012875536480687	-1.002232142857143	0.5419501133786848
1524.444580078125	-2.671394424573515	-9.175306257774469	1.833320008371916	-0.6901778492919806	1.834873978063938	0.3275599334493484	-0.09012875536480687	-1.002232142857143	0.5419501133786848
1528.350830078125	-2.760795332036474	-9.19461426890186	1.58973728528003	-1.039624918948262	1.095765263377976	-0.031750151012745	-0.07510729613733906	-0.9866071428571428	0.5374149659863946
1532.257080078125	-2.638151677188768	-9.014022523632155	1.570269759693182	-1.029180286611625	1.475785703557358	0.3243707674480213	-0.07510729613733906	-0.9866071428571428	0.5374149659863946
1536.163330078125	-2.861911502534775	-9.052188965782735	1.497272702457077	-1.025410685446737	1.113614022407738	0.3280678762828152	-0.07510729613733906	-0.9866071428571428	0.5374149659863946
1540.069580078125	-2.874509599149947	-9.102568035321635	1.736674200708985	-0.6864082481270926	1.472702296914319	0.3312570422841423	-0.09442060085836909	-0.9933035714285714	0.5124716553287982
1543.975830078125	-2.700738158665192	-8.932588578009309	1.706468927743684	-1.403286222106068	0.3388077896622509	-0.7508782627703986	-0.09442060085836909	-0.9933035714285714	0.5124716553287982
1547.882080078125	-2.872935852333729	-9.031876702082727	1.579299519087158	-1.386166558597683	1.461020351170635	-0.04233353468366001	-0.09442060085836909	-0.9933035714285714	0.5124716553287982
1551.788330078125	-2.547387125180306	-9.24725340147547	1.677488028234704	-1.72139939475244	0.7397603955144351	-0.04182559185019315	-0.09442060085836909	-0.9933035714285714	0.5124716553287982
1555.694580078125	-2.638899156421119	-9.115025149849933	1.645017682928196	-1.036719488941401	2.200129065856597	0.3169765497784334	-0.09442060085836909	-0.9933035714285714	0.5124716553287982
1559.600830078125	-2.740445632531557	-9.265524836603978	1.595583661318913	-0.6864082481270926	1.472702296914319	0.3312570422841423	-0.09442060085836909	-0.9933035714285714	0.5124716553287982
1563.507080078125	-2.90344120955676	-9.041672658611503	1.568610751594421	-1.039624918948262	1.095765263377976	-0.031750151012745	-0.09442060085836909	-0.9933035714285714	0.5124716553287982
1567.413330078125	-2.84282847729657	-9.032177775833098	1.629786505167186	-1.725168995917328	1.101932076664054	-0.0455227006849871	-0.09227467811158799	-1.004464285714286	0.5192743764172336
1571.319580078125	-2.54657701930957	-8.913928169200844	1.596477441161081	-0.6901778492919806	1.834873978063938	0.3275599334493484	-0.09227467811158799	-1.004464285714286	0.5192743764172336
1575.225830078125	-2.637497127806927	-9.094837149934055	1.504814821509008	-0.0008641711580270224	1.46653548362824	0.3450295919563844	-0.09227467811158799	-1.004464285714286	0.5192743764172336
1579.132080078125	-2.609195824212257	-9.115322183172021	1.735908951837962	-1.728938597082216	1.464103757813674	-0.04921980951978105	-0.09227467811158799	-1.004464285714286	0.5192743764172336
1583.038330078125	-2.741041595703295	-9.11400372545711	1.655179978492776	-1.36818272393127	1.116697429050778	0.3211816014466942	-0.09227467811158799	-1.004464285714286	0.5192743764172336
1586.944580078125	-2.535259738460101	-9.085758513726512	1.48515751947944	-1.02164108428185	0.7514423412581193	0.3317649851176092	-0.09227467811158799	-1.004464285714286	0.5192743764172336
1590.850830078125	-2.885006673057973	-8.950947913067401	1.765973428246259	-1.371952325096158	1.478869110200397	0.3174844926119002	-0.09227467811158799	-1.004464285714286	0.5192743764172336
1594.757080078125	-2.829794014426837	-9.204025292178965	1.346748381459161	-0.329421976141035	1.487467649301042	0.6979613444158236	-0.07939914163090128	-0.9866071428571428	0.5351473922902494
1598.663330078125	-2.874618690713587	-8.920748762587817	1.747583357073014	-1.371952325096158	1.478869110200397	0.3174844926119002	-0.07939914163090128	-0.9866071428571428	0.5351473922902494
1602.569580078125	-2.54785379464699	-8.974521462053533	1.724154974903051	-0.6684244134606798	1.128379374794462	0.6947721784144965	-0.07939914163090128	-0.9866071428571428	0.5351473922902494
1606.475830078125	-2.619977748314233	-8.994002242718881	1.793693198770201	-1.02164108428185	0.7514423412581193	0.3317649851176092	-0.07939914163090128	-0.9866071428571428	0.5351473922902494
1610.382080078125	-2.638501174235246	-9.104928119570781	1.605219464340905	-1.007426850780325	0.7692911002878819	0.6915830124131694	-0.07939914163090128	-0.9866071428571428	0.5351473922902494
1614.288330078125	-2.689867345140991	-9.033707387154653	1.639795738588903	-1.360643521601494	0.3923540667515392	0.3285758191162821	-0.07939914163090128	-0.9866071428571428	0.5351473922902494
1618.194580078125	-2.791961299283772	-9.113494528421306	1.645109520213914	-1.374857755103019	0.3745053077217764	-0.03124220817927815	-0.07939914163090128	-0.9866071428571428	0.5351473922902494
1622.100830078125	-2.799632093607857	-8.790185497245741	1.391780789357175	-1.696740528914278	1.13762959472358	0.6741133539061334	-0.07296137339055794	-1	0.526077097505669
1626.007080078125	-2.722114126953984	-9.003081889033492	1.803249430092334	-1.007426850780325	0.7692911002878819	0.6915830124131694	-0.07296137339055794	-1	0.526077097505669
1629.913330078125	-2.752100289142654	-9.204802229431806	1.740641159163385	-1.72139939475244	0.7397603955144351	-0.04182559185019315	-0.07296137339055794	-1	0.526077097505669
1633.819580078125	-2.760096337943519	-9.012803077024607	1.519837875984585	-1.72139939475244	0.7397603955144351	-0.04182559185019315	-0.07296137339055794	-1	0.526077097505669
1637.725830078125	-2.638341577318069	-9.034222644832882	1.589259772623159	-1.353968490429745	1.134546188080541	0.6809996287422544	-0.07296137339055794	-1	0.526077097505669
1641.632080078125	-2.78142988173534	-9.154003883000829	1.612375928636112	-1.725168995917328	1.101932076664054	-0.0455227006849871	-0.07296137339055794	-1	0.526077097505669
1645.538330078125	-2.782439988806084	-9.153993781930122	1.713386635710456	-1.717629793587552	0.3775887143648157	-0.03812848301539919	-0.07296137339055794	-1	0.526077097505669
1649.444580078125	-2.739673910729508	-9.20492649321594	1.518411481114115	-1.025410685446737	1.113614022407738	0.3280678762828152	-0.07939914163090128	-1.011160714285714	0.5374149659863946
1653.350830078125	-2.701550284750069	-9.094196618364622	1.787681536231457	-1.72139939475244	0.7397603955144351	-0.04182559185019315	-0.07939914163090128	-1.011160714285714	0.5374149659863946
1657.257080078125	-2.649620474098849	-9.094715916471134	1.696741287435975	-1.735613628253964	0.7219116364846723	-0.4016436191457534	-0.07939914163090128	-1.011160714285714	0.5374149659863946
1661.163330078125	-2.640038557196917	-9.236225877054297	1.758957760508056	-1.025410685446737	1.113614022407738	0.3280678762828152	-0.07939914163090128	-1.011160714285714	0.5374149659863946
1665.069580078125	-2.741651700374025	-9.275613786026565	1.716190445565679	-2.064171433236972	0.7428438021574744	-0.0487118666863142	-0.07939914163090128	-1.011160714285714	0.5374149659863946
1668.975830078125	-2.628246526024198	-9.357555918578143	1.600162806501473	-1.386166558597683	1.461020351170635	-0.04233353468366001	-0.07939914163090128	-1.011160714285714	0.5374149659863946
1672.882080078125	-2.547453792246976	-9.136141623693693	1.684154734901611	-2.082155267903385	1.087166724277331	-0.4122270028166684	-0.07939914163090128	-1.011160714285714	0.5374149659863946
1676.788330078125	-2.606092775290933	-9.236565334873356	1.425604059705579	-1.735613628253964	0.7219116364846723	-0.4016436191457534	-0.08798283261802575	-1.013392857142857	0.546485260770975
1680.694580078125	-2.781460184947463	-9.103498529463659	1.615406249848343	-2.064171433236972	0.7428438021574744	-0.0487118666863142	-0.08798283261802575	-1.013392857142857	0.546485260770975
1684.600830078125	-2.945019401718142	-8.950347785780799	1.644797314671334	-2.074616065573609	0.3628233619780922	-0.4048327851470805	-0.08798283261802575	-1.013392857142857	0.546485260770975
1688.507080078125	-2.875281320951995	-9.163166378709674	1.813846380913784	-2.074616065573609	0.3628233619780922	-0.4048327851470805	-0.08798283261802575	-1.013392857142857	0.546485260770975
1692.413330078125	-2.915087785311293	-9.162768314066081	1.712860163782298	-2.417388104058142	0.3659067686211315	-0.4117190599832015	-0.08798283261802575	-1.013392857142857	0.546485260770975
1696.319580078125	-2.92451414572433	-9.1121689999569	1.635088041820768	-1.72139939475244	0.7397603955144351	-0.04182559185019315	-0.08798283261802575	-1.013392857142857	0.546485260770975
1700.225830078125	-2.49703914220187	-9.136645770194143	1.744730546717645	-2.406943471721505	0.7459272088005136	-0.05559814152243525	-0.08798283261802575	-1.013392857142857	0.546485260770975
1704.132080078125	-2.526403078434962	-9.196958191437876	1.6198996802309	-2.406943471721505	0.7459272088005136	-0.05559814152243525	-0.09012875536480687	-1.002232142857143	0.5192743764172336
1708.038330078125	-2.56767823847512	-9.105636348928384	1.66578303118551	-2.056632230907196	0.01850043985823565	-0.04131764901672629	-0.09012875536480687	-1.002232142857143	0.5192743764172336
1711.944580078125	-2.492564367878477	-9.187195568442428	1.297253114378303	-2.042417997405672	0.03634919888799841	0.3185003782788339	-0.09012875536480687	-1.002232142857143	0.5192743764172336
1715.850830078125	-2.874246971311554	-9.20358076261012	1.710411416869656	-3.081178745195907	-0.3344210213622659	-0.05827936469029548	-0.09012875536480687	-1.002232142857143	0.5192743764172336
1719.757080078125	-2.884170304403397	-9.334794660592332	1.682336562788703	-2.403173870556617	0.3837555276508943	-0.0519010326876413	-0.09012875536480687	-1.002232142857143	0.5192743764172336
1723.663330078125	-2.879471286310299	-9.254033569965182	1.212434753478857	-2.042417997405672	0.03634919888799841	0.3185003782788339	-0.09012875536480687	-1.002232142857143	0.5192743764172336
1727.569580078125	-2.865155966446003	-9.031954500941602	1.821719093579868	-3.073639542866131	-1.058764383661504	-0.05088514702070757	-0.09012875536480687	-1.002232142857143	0.5192743764172336
1731.475830078125	-2.774080301459751	-8.941956166682374	1.897826064342492	-1.703415560086027	0.3954374733945785	0.3216895442801611	-0.09012875536480687	-1.004464285714286	0.54421768707483
1735.382080078125	-2.658885217380568	-9.145128319543367	1.60280745234255	-1.699645958921139	0.03326579224495914	0.325386653114955	-0.09012875536480687	-1.004464285714286	0.54421768707483
1739.288330078125	-2.730843513488209	-9.104004696178251	1.655779920249507	-2.04909302857742	-0.705842922441003	-0.03392343134713838	-0.09012875536480687	-1.004464285714286	0.54421768707483
1743.194580078125	-2.742342613610413	-9.13419273548006	1.78528176920453	-1.67412292192495	-1.035400492174136	0.6962960069148971	-0.09012875536480687	-1.004464285714286	0.54421768707483
1747.100830078125	-2.721776751192357	-8.891974151679998	1.769511853929504	-1.010332280787186	-0.3350727021907388	0.342856311621991	-0.09012875536480687	-1.004464285714286	0.54421768707483
1751.007080078125	-2.710950382379268	-9.255718779004493	1.707283135885994	-1.34933471810683	-0.6941609766973188	0.3396671456206639	-0.09012875536480687	-1.004464285714286	0.54421768707483
1754.913330078125	-2.753029587647738	-9.002772734426554	1.833571009671781	-2.055768059749169	-1.448035043770004	-0.3863472409731107	-0.09012875536480687	-1.004464285714286	0.54421768707483
1758.819580078125	-2.507750358808893	-8.964821486310903	1.79544404415468	-0.9961180472856607	-0.317223943160976	0.7026743389175513	-0.06866952789699571	-1.011160714285714	0.5328798185941043
1762.725830078125	-2.648757842660434	-9.185633633694609	1.610478143594485	-1.006562679622298	-0.6972443833403581	0.346553420456785	-0.06866952789699571	-1.011160714285714	0.5328798185941043
1766.632080078125	-2.518617131904811	-9.207137061004186	1.861713190481163	-1.02454651428871	-0.3529214612205015	-0.01696171567356919	-0.06866952789699571	-1.011160714285714	0.5328798185941043
1770.538330078125	-2.639670878223167	-9.175623493237971	1.722189863132995	-1.37776318510988	-0.7298584947568444	-0.3799689089704565	-0.08369098712446352	-0.9866071428571428	0.5192743764172336
1774.444580078125	-2.731263718029638	-9.245414635546977	1.697800374392434	-0.6533460088011279	-0.3203073498040153	0.7095606137536723	-0.08369098712446352	-0.9866071428571428	0.5192743764172336
1778.350830078125	-2.65137401997366	-9.034092320406325	1.872095874917035	-0.6750994446324288	0.3861872534654606	0.3423483687885241	-0.08369098712446352	-0.9866071428571428	0.5192743764172336
1782.257080078125	-2.621248463009228	-9.064696606279	1.920764668269725	-0.6893136781339535	0.3683384944356979	-0.01746965850703605	-0.08369098712446352	-0.9866071428571428	0.5192743764172336
1786.163330078125	-2.619874717393017	-9.165720444745265	1.783390106648618	0.002905430006860929	1.104363802478621	0.3487267007911783	-0.09442060085836909	-0.9910714285714285	0.5419501133786848
1790.069580078125	-2.7101241147954	-9.28603007198336	1.624656377499181	-1.046299950120011	0.3535731420489744	-0.3841739606387173	-0.09442060085836909	-0.9910714285714285	0.5419501133786848
1793.975830078125	-2.834600103869434	-9.274684301991611	1.827357325718888	-0.3578504431440845	1.451770131241517	-0.02167471017529686	-0.09442060085836909	-0.9910714285714285	0.5419501133786848
1797.882080078125	-2.568023695093315	-9.034925823655131	1.700328693004935	-0.3578504431440845	1.451770131241517	-0.02167471017529686	-0.08583690987124463	-0.9955357142857142	0.5306122448979592
1801.788330078125	-2.651176038987794	-9.195710461832347	1.852297776330464	-1.04339452011315	1.457936944527595	-0.03544725984753896	-0.08583690987124463	-0.9955357142857142	0.5306122448979592
1805.694580078125	-2.882010695486148	-9.062088983954229	1.466375671063757	-0.3436362096425598	1.469618890271279	0.3381433171202634	-0.08583690987124463	-0.9955357142857142	0.5306122448979592
1809.600830078125	-2.771458063504102	-9.103598550678093	1.635602268777497	-0.3616200443089725	1.813941812391136	-0.02537181901009081	-0.08583690987124463	-0.9955357142857142	0.5306122448979592
1813.507080078125	-2.77203988517685	-9.143996772865407	1.693784436052319	-0.01507840465955181	1.448686724598477	-0.01478843533917581	-0.09227467811158799	-0.9799107142857142	0.526077097505669
1817.413330078125	-2.690465328526871	-9.215519589138976	1.699594077176914	-0.7394955809683037	1.039135579645648	-1.104317958063305	-0.09227467811158799	-0.9799107142857142	0.526077097505669
1821.319580078125	-3.007686691760225	-9.0709332340925	1.789077339287784	-0.01130880349466385	1.086515043448858	-0.01109132650438186	-0.09227467811158799	-0.9799107142857142	0.526077097505669
1825.225830078125	-2.97387626420172	-9.182382449479197	1.469259073233269	0.002905430006860929	1.104363802478621	0.3487267007911783	-0.09871244635193133	-0.9955357142857142	0.526077097505669
1829.132080078125	-2.781031899549468	-9.143906852721679	1.572577710048821	0.3172490014883441	1.065582877776056	-0.364023078963821	-0.09871244635193133	-0.9955357142857142	0.526077097505669
1833.038330078125	-2.887053149983299	-9.243856741227441	1.970621120778879	-0.6893136781339535	0.3683384944356979	-0.01746965850703605	-0.09871244635193133	-0.9955357142857142	0.526077097505669
1836.944580078125	-2.638606225370603	-9.266543230675589	1.615724577876637	-0.328557804983008	0.02093216567280204	0.3529317524594392	-0.09871244635193133	-0.9955357142857142	0.526077097505669
1840.850830078125	-2.599399764611328	-9.277036305384192	1.776711155010282	-0.007539202329775903	0.7243433622992387	-0.007394217669587907	-0.06652360515021459	-1	0.5374149659863946
1844.757080078125	-2.607007932297027	-9.226455173202284	1.517119760314934	-0.3181131726463711	0.4009526058521842	0.7090526709202054	-0.06652360515021459	-1	0.5374149659863946
1848.663330078125	-2.739952700281034	-9.245327745724463	1.546290436266634	-0.3390024373196448	-0.35908827450658	-0.003189166001327095	-0.06652360515021459	-1	0.5374149659863946
1852.569580078125	-2.873790402915578	-9.122777247485999	1.664754577272053	0.3390024373196448	0.35908827450658	0.003189166001327095	-0.08798283261802575	-1	0.5328798185941043
1856.475830078125	-2.82059997864007	-9.204117232536834	1.44775296604779	-0.7026637404774512	-1.116045748222305	-0.7223172777589807	-0.08798283261802575	-1	0.5328798185941043
1860.382080078125	-2.740435531460849	-9.114009786099535	1.59457355424817	0.328557804983008	-0.02093216567280204	-0.3529317524594392	-0.08798283261802575	-1	0.5328798185941043
1864.288330078125	-2.742710292584163	-9.194795119296383	1.822049666579591	-0.7026637404774512	-1.116045748222305	-0.7223172777589807	-0.08798283261802575	-1	0.5328798185941043
1868.194580078125	-2.62903642975352	-9.387851049843881	1.67915317943361	0.6788690457973167	-0.7483589346150801	-0.3386512599537302	-0.07939914163090128	-0.9955357142857142	0.5238095238095238
1872.100830078125	-2.487408740160542	-9.358964296436779	1.802098505850158	0	0	0	-0.07939914163090128	-0.9955357142857142	0.5238095238095238
1876.007080078125	-2.770037852962636	-9.113713762884517	1.49358121463097	-0.01044463233663683	-0.3800204401793821	-0.3561209184607663	-0.07939914163090128	-0.9955357142857142	0.5238095238095238
1879.913330078125	-2.688796631646003	-9.134728195299703	1.532724389090099	-0.003769601164887951	0.3621716811496193	-0.003697108834793953	-0.09656652360515021	-1	0.526077097505669
1883.819580078125	-2.599288652833546	-9.125522264986818	1.765599977232104	-0.7064333416423392	-0.7538740670726856	-0.7260143865937746	-0.09656652360515021	-1	0.526077097505669
1887.725830078125	-2.597632077237527	-9.024528729732676	1.599942417630181	0.6855440769690655	-0.00616681328607855	0.0137725496722421	-0.09656652360515021	-1	0.526077097505669
1891.632080078125	-2.690788562789509	-9.013496154776147	1.731917503440704	-0.7035279116354782	0.3504897354059351	-0.3772876858025963	-0.09656652360515021	-1	0.526077097505669
1895.538330078125	-2.670285327009839	-9.003600177032935	1.722410252004287	-0.6959887093057022	-0.3738536268933035	-0.3698934681330084	-0.07081545064377683	-0.9955357142857142	0.5374149659863946
1899.444580078125	-2.617826220253549	-9.044528808504538	1.57854039270185	0.3352328361547569	0.7212599556561994	-0.000507942833466858	-0.07081545064377683	-0.9955357142857142	0.5374149659863946
1903.350830078125	-2.699150270349983	-9.053816578104582	1.547680096222816	-0.7319563786385278	0.3147922173464096	-1.096923740393717	-0.07081545064377683	-0.9955357142857142	0.5374149659863946
1907.257080078125	-2.546419442606534	-9.176556007594137	1.580719770857483	-0.3465416396494207	0.3652550877926586	-0.010583383670915	-0.08369098712446352	-1.008928571428571	0.5102040816326531
1911.163330078125	-2.738310266184005	-8.952414877136141	1.382047026563751	-0.7499402133049405	0.6591151394662662	-1.460438876524071	-0.08369098712446352	-1.008928571428571	0.5102040816326531
1915.069580078125	-2.711974630949002	-9.063789344599602	1.809707992859378	-0.02175343583130069	0.7064946032694759	-0.3672122449651481	-0.08369098712446352	-1.008928571428571	0.5102040816326531
1918.975830078125	-2.678129859750093	-9.06412779231159	1.486455362764335	-0.7319563786385278	0.3147922173464096	-1.096923740393717	-0.08369098712446352	-1.008928571428571	0.5102040816326531
1922.882080078125	-2.607337227202089	-9.014330668132022	1.55004925082117	-0.05018190283435026	0.6707970852099504	-1.086848299556268	-0.09227467811158799	-1.002232142857143	0.5192743764172336
1926.788330078125	-2.691774427290555	-9.053890336535177	1.830503953545264	-0.7281867774736398	-0.04737946380320975	-1.093226631558923	-0.09227467811158799	-1.002232142857143	0.5192743764172336
1930.694580078125	-2.728750571637629	-9.225237746808878	1.446485735191468	-1.067189214793285	-0.4064677383097898	-1.09641579756025	-0.09227467811158799	-1.002232142857143	0.5192743764172336
1934.600830078125	-2.619749464116245	-9.206125737682072	1.770864778971399	-0.3854147389891071	-0.05046287044624902	-1.086340356722802	-0.07725321888412018	-1.004464285714286	0.5351473922902494
1938.507080078125	-2.842151705559172	-8.981679493045419	1.562109331427376	-1.067189214793285	-0.4064677383097898	-1.09641579756025	-0.07725321888412018	-1.004464285714286	0.5351473922902494
1942.413330078125	-2.86177008754487	-8.951180278922532	1.483131203466669	-0.7177421451370031	0.3326409763761723	-0.7371057130981565	-0.07725321888412018	-1.004464285714286	0.5351473922902494
1946.319580078125	-2.617987837384868	-8.943517091323123	1.594702105833744	-0.7424010109751646	-0.0652282228329725	-1.453044658854483	-0.07725321888412018	-1.004464285714286	0.5351473922902494
1950.225830078125	-2.851717460747972	-9.203806057715754	1.498276687042106	-0.3712005054875823	-0.03261411141648625	-0.7265223294272415	-0.08798283261802575	-1	0.5147392290249433
1954.132080078125	-2.86310140866411	-8.92086393540831	1.616263315390653	-0.3854147389891071	-0.05046287044624902	-1.086340356722802	-0.08798283261802575	-1	0.5147392290249433
1958.038330078125	-2.841733521231884	-9.173602866807885	1.520290898698598	-1.077633847129921	-0.786488178489172	-1.452536716021016	-0.08798283261802575	-1	0.5147392290249433
1961.944580078125	-2.771490386930365	-9.386426510272113	1.638834611403876	-1.049205380126872	-0.7507906604296464	-0.7329006614298957	-0.1094420600858369	-0.9977678571428571	0.5328798185941043
1965.850830078125	-2.731039474259934	-9.114103746671542	1.67537599742193	-0.7139725439721151	-0.02953070477344698	-0.7334086042633625	-0.1094420600858369	-0.9977678571428571	0.5328798185941043
1969.757080078125	-2.739441586103238	-9.255433866967254	1.495179018487016	-1.05297498129176	-0.388618979280027	-0.7365977702646896	-0.1094420600858369	-0.9977678571428571	0.5328798185941043
1973.663330078125	-2.677624806214721	-9.064132842846945	1.435950009227164	-1.056744582456648	-0.0264472981304077	-0.7402948790994835	-0.1094420600858369	-0.9977678571428571	0.5328798185941043
1977.569580078125	-2.924520206366755	-9.102067929249467	1.635694106063214	-0.3427720384845327	0.003083406643039275	-0.006886274836121049	-0.09442060085836909	-0.9977678571428571	0.5192743764172336
1981.475830078125	-2.68778652457526	-9.134738296370411	1.431713682015756	-0.6893136781339535	0.3683384944356979	-0.01746965850703605	-0.09442060085836909	-0.9977678571428571	0.5192743764172336
1985.382080078125	-2.862384232643883	-9.274406460703865	1.544545713367869	-0.7281867774736398	-0.04737946380320975	-1.093226631558923	-0.09442060085836909	-0.9977678571428571	0.5192743764172336
1989.288330078125	-2.498180563191811	-9.086129305479195	1.858872645711653	-1.05297498129176	-0.388618979280027	-0.7365977702646896	-0.07510729613733906	-1.006696428571429	0.5283446712018141
1993.194580078125	-2.782005642765665	-9.204503175895576	1.669952031668488	-1.038760747790235	-0.3707702202502642	-0.3767797429691294	-0.07510729613733906	-1.006696428571429	0.5283446712018141
1997.100830078125	-2.843612320383467	-9.072573977806268	1.708170813856877	-1.028316115453598	0.009250219929117825	-0.02065882450836315	-0.07510729613733906	-1.006696428571429	0.5283446712018141
2001.007080078125	-2.882087463623524	-9.102492256676898	1.474052484801407	-1.02454651428871	-0.3529214612205015	-0.01696171567356919	-0.07510729613733906	-1.006696428571429	0.5283446712018141
2004.913330078125	-2.810961495742176	-9.103203516355713	1.504312839523708	-1.02454651428871	-0.3529214612205015	-0.01696171567356919	-0.06866952789699571	-0.9955357142857142	0.5328798185941043
2008.819580078125	-2.944288084198924	-8.990759139360033	1.57166556274951	-0.6750994446324288	0.3861872534654606	0.3423483687885241	-0.06866952789699571	-0.9955357142857142	0.5328798185941043
2012.725830078125	-2.780064216975696	-9.073209458840346	1.4758094526716	-0.9781342126192479	-0.6615468652808326	1.066189475047906	-0.06866952789699571	-0.9955357142857142	0.5328798185941043
2016.632080078125	-2.914661520127439	-9.031459445404789	1.670233645396925	-1.028316115453598	0.009250219929117825	-0.02065882450836315	-0.08798283261802575	-0.9933035714285714	0.5215419501133787
2020.538330078125	-2.811834228251298	-9.163800849636681	1.591586090435941	-1.695876357756251	-0.3289058889046602	0.3290837619497489	-0.08798283261802575	-0.9933035714285714	0.5215419501133787
2024.444580078125	-2.739251685973938	-9.235233745766525	1.476189005557039	-1.010332280787186	-0.3350727021907388	0.342856311621991	-0.08798283261802575	-0.9933035714285714	0.5215419501133787
2028.350830078125	-2.700451288257101	-9.07400558812753	1.677781886934571	-1.342659686935082	0.04803114463168263	0.6920909552466362	-0.08798283261802575	-0.9933035714285714	0.5215419501133787
2032.257080078125	-2.789710780730156	-8.992304912394721	1.420057664852277	-1.017871483116962	0.3892706601084999	0.3354620939524031	-0.09871244635193133	-0.9955357142857142	0.5328798185941043
2036.163330078125	-2.810426138994682	-9.153713920428237	1.450777164774306	-0.9856734149490239	0.06279649701840612	1.058795257378317	-0.09871244635193133	-0.9955357142857142	0.5328798185941043
2040.069580078125	-2.872632820212506	-9.031879732403938	1.548996306964855	-1.014101881952074	0.02709897895888059	0.3391592027871971	-0.09871244635193133	-0.9955357142857142	0.5328798185941043
2043.975830078125	-2.769971185895967	-9.224825540666295	1.486914507964063	-1.003657249615437	0.4071194191382627	0.6952801212479633	-0.08798283261802575	-0.9955357142857142	0.5124716553287982
2047.882080078125	-2.800626038965469	-9.153811921428527	1.491175325118329	-0.6930832792988414	0.7305101755853173	-0.02116676734183	-0.08798283261802575	-0.9955357142857142	0.5124716553287982
2051.788330078125	-2.678610670715766	-9.104527024605975	1.534536459331723	-1.356873920436606	0.03018238560191986	0.332272927951076	-0.08798283261802575	-0.9955357142857142	0.5124716553287982
2055.694580078125	-2.832349585315817	-9.153494685965024	1.602305470357251	-1.032085716618486	0.3714219010787372	-0.0243559333431571	-0.08798283261802575	-0.9955357142857142	0.5124716553287982
2059.600830078125	-3.087224872555584	-8.858016640163335	1.579630112701311	-1.353104319271718	-0.3319892955476995	0.33597003678587	-0.07510729613733906	-0.9933035714285714	0.526077097505669
2063.507080078125	-2.537389044165228	-8.90391903885128	1.698088089992156	-1.010332280787186	-0.3350727021907388	0.342856311621991	-0.07510729613733906	-0.9933035714285714	0.526077097505669
2067.413330078125	-2.688774409290446	-9.003415286210128	1.530502153534464	-1.014101881952074	0.02709897895888059	0.3391592027871971	-0.07510729613733906	-0.9933035714285714	0.526077097505669
2071.319580078125	-2.496323986395784	-9.318471103570387	1.673214966109009	-1.003657249615437	0.4071194191382627	0.6952801212479633	-0.07510729613733906	-1.011160714285714	0.5396825396825397
2075.225830078125	-2.861327660647885	-9.183507935514735	1.438888513768106	-0.3143435714814832	0.03878092470256481	0.7127497797549994	-0.07510729613733906	-1.011160714285714	0.5396825396825397
2079.132080078125	-2.80204018886451	-9.153797779929537	1.63259031502241	-1.363548951608355	-0.7120097357270816	-0.02015088167489629	-0.07510729613733906	-1.011160714285714	0.5396825396825397
2083.038330078125	-2.740380985679029	-9.204919422466444	1.589118976066155	-1.034991146625347	-0.7329419013998837	-0.3730826341343355	-0.07510729613733906	-1.011160714285714	0.5396825396825397
2086.944580078125	-2.851070992222696	-9.102802421390907	1.433629834514526	-1.338890085770194	-0.3141405365179367	0.6957880640814302	-0.0815450643776824	-1.002232142857143	0.5328798185941043
2090.850830078125	-2.823068680320967	-8.961668303095783	1.694623134137486	-1.367318552773243	-0.3498380545774623	-0.02384799050969024	-0.0815450643776824	-1.002232142857143	0.5328798185941043
2094.757080078125	-2.763720602113347	-9.032968854584929	1.882264292967329	-1.367318552773243	-0.3498380545774623	-0.02384799050969024	-0.0815450643776824	-1.002232142857143	0.5328798185941043
2098.663330078125	-2.741912307998276	-8.841267745606887	1.74225120799086	-0.9998876484505487	0.04494773798864335	0.6989772300827574	-0.08798283261802575	-1.008928571428571	0.5238095238095238
2102.569580078125	-2.618401981283873	-9.095028101399285	1.636116495734225	-1.720535223594412	-0.7267750881138051	-0.3868551838065776	-0.08798283261802575	-1.008928571428571	0.5238095238095238
2106.475830078125	-2.820892909690585	-9.052599151711178	1.47704607109935	-0.6608852111309039	0.4040360124952234	0.7021663960840844	-0.08798283261802575	-1.008928571428571	0.5238095238095238
2110.382080078125	-2.692024933844099	-8.973079750661562	1.855554608899701	-1.02454651428871	-0.3529214612205015	-0.01696171567356919	-0.08798283261802575	-1.008928571428571	0.5238095238095238
2114.288330078125	-2.484980442762475	-9.1973724177946	1.559268766043436	-1.695876357756251	-0.3289058889046602	0.3290837619497489	-0.08369098712446352	-1.004464285714286	0.5396825396825397
2118.194580078125	-2.86357615898736	-8.971364238410128	1.663738347715595	-1.342659686935082	0.04803114463168263	0.6920909552466362	-0.08369098712446352	-1.004464285714286	0.5396825396825397
2122.100830078125	-2.517150456438092	-9.126343646950774	1.715045643809217	-1.713860192422664	0.01541703321519637	-0.03443137418060524	-0.08369098712446352	-1.004464285714286	0.5396825396825397
2126.007080078125	-2.680200579245116	-9.316632337641893	1.693527312266739	-1.332215054598445	0.4280515848110647	1.048211873707402	-0.07296137339055794	-0.9977678571428571	0.5396825396825397
2129.913330078125	-2.639285017322142	-9.145324321543953	1.683603773030596	-1.003657249615437	0.4071194191382627	0.6952801212479633	-0.07296137339055794	-0.9977678571428571	0.5396825396825397
2133.819580078125	-2.721017150675157	-9.316224171927594	1.693551802209597	-1.706320990092888	-0.7089263290840423	-0.02703715651101733	-0.07296137339055794	-0.9977678571428571	0.5396825396825397
2137.725830078125	-2.84304666042385	-9.173589735415964	1.651604817895244	-0.9961180472856607	-0.317223943160976	0.7026743389175513	-0.07296137339055794	-0.9977678571428571	0.5396825396825397
2141.632080078125	-2.710263509571162	-9.053705445712371	1.63859585507544	-1.014101881952074	0.02709897895888059	0.3391592027871971	-0.09227467811158799	-0.9910714285714285	0.5351473922902494
2145.538330078125	-2.618365617429326	-9.15563452564389	1.632480110279549	-1.695876357756251	-0.3289058889046602	0.3290837619497489	-0.09227467811158799	-0.9910714285714285	0.5351473922902494
2149.444580078125	-2.751215435348683	-9.164407037565706	1.65215577976626	-1.706320990092888	-0.7089263290840423	-0.02703715651101733	-0.09227467811158799	-0.9910714285714285	0.5351473922902494
2153.350830078125	-2.536429442448021	-9.156453887393702	1.60212791827153	-1.003657249615437	0.4071194191382627	0.6952801212479633	-0.08798283261802575	-1.004464285714286	0.5192743764172336
2157.257080078125	-2.701014928002575	-9.144707022437148	1.734145861482054	-0.9856734149490239	0.06279649701840612	1.058795257378317	-0.08798283261802575	-1.004464285714286	0.5192743764172336
2161.163330078125	-2.669467140282537	-9.35714371243556	1.640591579274069	-1.356873920436606	0.03018238560191986	0.332272927951076	-0.08798283261802575	-1.004464285714286	0.5192743764172336
2165.069580078125	-2.821519176074446	-9.35562319207764	1.539672709485443	-2.073751894415582	-1.103712121650148	-0.7498623771034649	-0.08798283261802575	-1.004464285714286	0.5192743764172336
2168.975830078125	-2.709419060060021	-9.114319950813542	1.554150903961289	-1.017871483116962	0.3892706601084999	0.3354620939524031	-0.09442060085836909	-0.9977678571428571	0.5238095238095238
2172.882080078125	-2.688845116785399	-9.053919629640228	1.537572903029668	-1.014101881952074	0.02709897895888059	0.3391592027871971	-0.09442060085836909	-0.9977678571428571	0.5238095238095238
2176.788330078125	-2.659687242394738	-9.155221309394236	1.683009953759579	-1.038760747790235	-0.3707702202502642	-0.3767797429691294	-0.09442060085836909	-0.9977678571428571	0.5238095238095238
2180.694580078125	-2.667996424387534	-9.114734177170268	1.493519989773825	-1.003657249615437	0.4071194191382627	0.6952801212479633	-0.1030042918454936	-1.002232142857143	0.5306122448979592
2184.600830078125	-2.639386028029217	-9.145323311436883	1.69370484373803	-1.028316115453598	0.009250219929117825	-0.02065882450836315	-0.1030042918454936	-1.002232142857143	0.5306122448979592
2188.507080078125	-2.791353214827184	-9.285217780983043	1.584301074555159	-1.713860192422664	0.01541703321519637	-0.03443137418060524	-0.1030042918454936	-1.002232142857143	0.5306122448979592
2192.413330078125	-2.620539367845566	-9.23642086894781	1.849855151903536	-1.032085716618486	0.3714219010787372	-0.0243559333431571	-0.1030042918454936	-1.002232142857143	0.5306122448979592
2196.319580078125	-2.620046435595043	-9.216223778068295	1.800561926851256	-0.6750994446324288	0.3861872534654606	0.3423483687885241	-0.06652360515021459	-0.9955357142857142	0.5170068027210885
2200.225830078125	-2.780098560616101	-9.184320226515052	1.479243816712128	-1.409961253277817	-0.4033843316667505	-1.103302072396371	-0.06652360515021459	-0.9955357142857142	0.5170068027210885
2204.132080078125	-2.616379746928245	-9.266765495460012	1.43389306017139	-1.032085716618486	0.3714219010787372	-0.0243559333431571	-0.06652360515021459	-0.9955357142857142	0.5170068027210885
2208.038330078125	-2.546936617426755	-9.156348815643915	1.632437252879547	-1.042530348955123	-0.008598539100644939	-0.3804768518039234	-0.06437768240343347	-1.024553571428571	0.5328798185941043
2211.944580078125	-2.772023723463718	-9.002582793068395	1.692168264739129	-1.042530348955123	-0.008598539100644939	-0.3804768518039234	-0.06437768240343347	-1.024553571428571	0.5328798185941043
2215.850830078125	-2.864067071023741	-9.163278521208957	1.712829551353726	-0.6930832792988414	0.7305101755853173	-0.02116676734183	-0.06437768240343347	-1.024553571428571	0.5328798185941043
2219.757080078125	-2.599716938231541	-9.085113941728798	1.808428517031626	-1.028316115453598	0.009250219929117825	-0.02065882450836315	-0.06437768240343347	-1.024553571428571	0.5328798185941043
2223.663330078125	-2.650095224422099	-9.145216219472951	1.744216319760916	-0.6750994446324288	0.3861872534654606	0.3423483687885241	-0.0815450643776824	-0.9977678571428571	0.5192743764172336
2227.569580078125	-2.689348150106629	-9.225631771024188	1.587876235152691	-1.39951662094118	-0.02336389148736843	-0.7471811539356047	-0.0815450643776824	-0.9977678571428571	0.5192743764172336
2231.475830078125	-2.680067245111779	-9.033805388154944	1.680193898932926	-1.050069551284899	0.7157448231985937	-0.3878710694735113	-0.0815450643776824	-0.9977678571428571	0.5192743764172336
2235.382080078125	-2.618654508051559	-9.34755082865686	1.661369172502811	-0.6893136781339535	0.3683384944356979	-0.01746965850703605	-0.09656652360515021	-1	0.5396825396825397
2239.288330078125	-2.658802388600767	-9.114826117528136	1.594524574362454	-1.070958815958173	-0.04429605716017047	-1.100112906395044	-0.09656652360515021	-1	0.5396825396825397
2243.194580078125	-2.688582488947005	-9.154932356928713	1.511310119190338	-1.056744582456648	-0.0264472981304077	-0.7402948790994835	-0.09656652360515021	-1	0.5396825396825397
2247.100830078125	-2.730249570530612	-9.083808615405808	1.596385624489793	-1.056744582456648	-0.0264472981304077	-0.7402948790994835	-0.09656652360515021	-1	0.5396825396825397
2251.007080078125	-2.763512520056774	-9.043071945506505	1.861456087310014	-0.6997583104705902	-0.01168194574368421	-0.3735905769678023	-0.06437768240343347	-1.006696428571429	0.5351473922902494
2254.913330078125	-2.638668852008989	-8.993815331681933	1.621987241715246	-0.7072975128003661	0.7126614165555545	-0.3809847946373902	-0.06437768240343347	-1.006696428571429	0.5351473922902494
2258.819580078125	-2.566763081469027	-9.115746510599454	1.574267330576154	-0.7177421451370031	0.3326409763761723	-0.7371057130981565	-0.06437768240343347	-1.006696428571429	0.5351473922902494
2262.725830078125	-2.464863067883829	-9.217775611745408	1.588347604709418	-0.3787397078173582	0.6917292508827525	-0.7339165470968294	-0.0815450643776824	-1.004464285714286	0.5374149659863946
2266.632080078125	-2.568296424002416	-9.08542814687109	1.727601583915008	-0.3607558731509455	0.3474063287628959	-0.3704014109664752	-0.0815450643776824	-1.004464285714286	0.5374149659863946
2270.538330078125	-2.369870207677235	-9.259129580751512	1.272735053437738	-0.3854147389891071	-0.05046287044624902	-1.086340356722802	-0.0815450643776824	-1.004464285714286	0.5374149659863946
2274.444580078125	-2.690200680474337	-8.983199003296269	1.673129271923437	-1.085173049459697	-0.06214481618993323	-1.459930933690604	-0.0815450643776824	-1.004464285714286	0.5374149659863946
2278.350830078125	-2.894245153555853	-9.213481790888686	1.669413314768902	-0.03596766933282547	0.6886458442397132	-0.7270302722607084	-0.0815450643776824	-1.004464285714286	0.5374149659863946
2282.257080078125	-2.578595516924575	-9.095426166042877	1.737102712865711	-0.0464123016694623	0.3086254040603311	-1.083151190721475	-0.0815450643776824	-1.004464285714286	0.5374149659863946
2286.163330078125	-2.639602190942356	-8.953401957888557	1.71532113505194	-1.074728417123061	0.3178756239894489	-1.103810015229838	-0.0815450643776824	-1.004464285714286	0.5374149659863946
2290.069580078125	-2.609902899161778	-9.115315112422525	1.806616446790003	-0.3749701066524703	0.3295575697331331	-0.7302194382620355	-0.08798283261802575	-1.002232142857143	0.5351473922902494
2293.975830078125	-2.668018646743091	-9.246047086259845	1.49574222532946	-1.067189214793285	-0.4064677383097898	-1.09641579756025	-0.08798283261802575	-1.002232142857143	0.5351473922902494
2297.882080078125	-2.722409078218641	-9.184897121339029	1.832744556558043	-0.3891843401539951	0.3117088107033704	-1.090037465557596	-0.08798283261802575	-1.002232142857143	0.5351473922902494
2301.788330078125	-2.619371684071787	-8.994008303361305	1.733086774525595	-1.413730854442705	-0.04121265051713119	-1.106999181231165	-0.08798283261802575	-1.002232142857143	0.5351473922902494
2305.694580078125	-2.730936443338718	-9.285821948697926	1.665072905300347	-0.7461706121400526	0.2969434583166468	-1.456741767689277	-0.08798283261802575	-1.002232142857143	0.5351473922902494
2309.600830078125	-2.720223206517553	-9.124312919449979	1.614157386449163	0.2925901356501825	0.6677136785669111	-1.079962024720148	-0.08798283261802575	-1.002232142857143	0.5351473922902494
2313.507080078125	-2.761716549684992	-9.174403036523353	1.681859050131832	-1.088942650624585	0.3000268649596861	-1.463628042525398	-0.08798283261802575	-1.002232142857143	0.5351473922902494
2317.413330078125	-2.701681598669266	-9.043690254720378	1.800812928151121	0.2925901356501825	0.6677136785669111	-1.079962024720148	-0.06866952789699571	-1.024553571428571	0.5215419501133787
2321.319580078125	-2.659428654984628	-8.912799652844095	1.657151212748547	-0.392953941318883	0.6738804918529897	-1.09373457439239	-0.06866952789699571	-1.024553571428571	0.5215419501133787
2325.225830078125	-2.730154620465962	-9.073708554805442	1.586890618024805	-0.392953941318883	0.6738804918529897	-1.09373457439239	-0.06866952789699571	-1.024553571428571	0.5215419501133787
2329.132080078125	-2.935168796335392	-9.20297154435988	1.68014493966164	-0.7424010109751646	-0.0652282228329725	-1.453044658854483	-0.06866952789699571	-1.024553571428571	0.5215419501133787
2333.038330078125	-2.770585330994979	-9.043001217397123	1.548329017865264	-0.7566152444766894	-0.08307698186273527	-1.812862686150043	-0.06866952789699571	-1.024553571428571	0.5215419501133787
2336.944580078125	-2.691893619924902	-9.023586114305804	1.842423216980036	-0.05018190283435026	0.6707970852099504	-1.086848299556268	-0.06866952789699571	-1.024553571428571	0.5215419501133787
2340.850830078125	-2.628337435660565	-9.206039857966628	1.609253770138164	-0.06062653517098708	0.2907766450305683	-1.442969218017035	-0.06866952789699571	-1.024553571428571	0.5215419501133787
2344.757080078125	-2.731544527795305	-9.114098696136189	1.725881350959102	-0.7461706121400526	0.2969434583166468	-1.456741767689277	-0.06223175965665236	-0.9977678571428571	0.5374149659863946
2348.663330078125	-2.699655323885355	-9.053811527569229	1.598185449759988	-0.3891843401539951	0.3117088107033704	-1.090037465557596	-0.06223175965665236	-0.9977678571428571	0.5374149659863946
2352.569580078125	-2.661256948782674	-9.064296521421266	1.839980592553108	-1.109831915297859	-0.4600140153990781	-2.17586987944693	-0.06223175965665236	-0.9977678571428571	0.5374149659863946
2356.475830078125	-2.783415752236422	-9.042872913184707	1.810962978744272	-0.7281867774736398	-0.04737946380320975	-1.093226631558923	-0.06223175965665236	-0.9977678571428571	0.5374149659863946
2360.382080078125	-2.473992456818068	-9.157078257250001	1.480878334868031	-0.06062653517098708	0.2907766450305683	-1.442969218017035	-0.06223175965665236	-0.9977678571428571	0.5374149659863946
2364.288330078125	-2.922302011239402	-9.263706272816901	1.413874593327956	-0.4138432059921567	-0.08616038850577454	-1.805976411313922	-0.06223175965665236	-0.9977678571428571	0.5374149659863946
2368.194580078125	-2.719425221931666	-9.275836050810989	1.534358927860432	-1.095617681796334	-0.4421652563693153	-1.81605185215137	-0.06223175965665236	-0.9977678571428571	0.5374149659863946
2372.100830078125	-2.761538770840541	-9.134000773907758	1.664081165686747	-0.04264270050457435	-0.05354627708928829	-1.079454081886681	-0.1030042918454936	-0.9933035714285714	0.5351473922902494
2376.007080078125	-2.618163596015177	-9.155636545858032	1.61227796886468	-0.3891843401539951	0.3117088107033704	-1.090037465557596	-0.1030042918454936	-0.9933035714285714	0.5351473922902494
2379.913330078125	-2.750276035772892	-9.214921482066515	1.558215822187121	-0.07107116750762392	-0.08924379514881382	-1.799090136477801	-0.1030042918454936	-0.9933035714285714	0.5351473922902494
2383.819580078125	-2.671556041704835	-9.074294540593055	1.849481721503811	-0.3958593713257439	-0.4304833106256311	-1.442461275183568	-0.1030042918454936	-0.9933035714285714	0.5351473922902494
2387.725830078125	-2.822793931197725	-9.082883171799137	1.667148221813264	-0.7348618086453887	-0.7895715851322112	-1.445650441184895	-0.1030042918454936	-0.9933035714285714	0.5351473922902494
2391.632080078125	-2.681154120319898	-9.074198559806904	1.78888141974492	-0.3854147389891071	-0.05046287044624902	-1.086340356722802	-0.1030042918454936	-0.9933035714285714	0.5351473922902494
2395.538330078125	-2.719978760606433	-9.195022434616162	1.589712795337172	-0.7348618086453887	-0.7895715851322112	-1.445650441184895	-0.1030042918454936	-0.9933035714285714	0.5351473922902494
2399.444580078125	-2.843014336997587	-9.39581228087245	1.648372475268866	-0.3636613031578064	-0.7569574737157249	-0.7191281117576536	-0.09012875536480687	-1	0.5487528344671202
2403.350830078125	-2.751851802803252	-9.11389562338611	1.715792525223097	-0.3854147389891071	-0.05046287044624902	-1.086340356722802	-0.09012875536480687	-1	0.5487528344671202
2407.257080078125	-2.719158553664989	-9.215232656887595	1.507692101192805	-0.3958593713257439	-0.4304833106256311	-1.442461275183568	-0.09012875536480687	-1	0.5487528344671202
2411.163330078125	-2.782084431117183	-9.07318925669893	1.677830866820287	-0.7490760421469135	-0.8074203441619739	-1.805468468480455	-0.09012875536480687	-1	0.5487528344671202
2415.069580078125	-2.649475018680662	-9.337141613449559	1.682195745617269	-0.7348618086453887	-0.7895715851322112	-1.445650441184895	-0.09012875536480687	-1	0.5487528344671202
2418.975830078125	-2.862505445492372	-9.072385046555178	1.556666998216791	0.3105739703165952	0.3233907564470545	-0.7164468885897933	-0.09012875536480687	-1	0.5487528344671202
2422.882080078125	-2.810454421992663	-9.274925758810378	1.453605464572388	-0.3854147389891071	-0.05046287044624902	-1.086340356722802	-0.09012875536480687	-1	0.5487528344671202
2426.788330078125	-2.761560993196098	-9.265313682997332	1.666303401242383	-0.3816451378242192	-0.4126345515958683	-1.082643247888008	-0.08798283261802575	-1	0.526077097505669
2430.694580078125	-2.719104007883169	-9.306142293254505	1.502237523010791	-0.3532166708211696	-0.3769370335363428	-0.3630071932968873	-0.08798283261802575	-1	0.526077097505669
2434.600830078125	-2.699683606883336	-9.175023365951368	1.60101374955807	0.3076685403097343	-0.7809730460315663	-1.065173589380972	-0.08798283261802575	-1	0.526077097505669
2438.507080078125	-2.711641295615657	-9.114297728457986	1.776374459524845	-0.7139725439721151	-0.02953070477344698	-0.7334086042633625	-0.08798283261802575	-1	0.526077097505669
2442.413330078125	-2.741326445897245	-9.144303907258202	1.683664997887741	-0.3778755366593312	-0.7748062327454877	-1.078946139053214	-0.08798283261802575	-1	0.526077097505669
2446.319580078125	-2.944956775079756	-9.223075684774457	1.638534650832725	-0.01044463233663683	-0.3800204401793821	-0.3561209184607663	-0.08798283261802575	-1	0.526077097505669
2450.225830078125	-2.996056277718825	-9.091251558434935	1.646444098413096	-1.088078479466558	-1.166508618668554	-1.808657634481782	-0.08798283261802575	-1	0.526077097505669
2454.132080078125	-2.862303424078223	-9.07238706676932	1.536464856801922	0.3323274061478959	-0.3831038468224214	-0.3492346436246452	-0.08369098712446352	-1.015625	0.5306122448979592
2458.038330078125	-2.693160294191615	-8.932664356654044	1.969090643651263	-0.02088926467327366	-0.7600408803587642	-0.7122418369215325	-0.08369098712446352	-1.015625	0.5306122448979592
2461.944580078125	-2.781215739036343	-9.17420804462984	1.590961658736352	-0.04931773167632323	-0.7957383984182897	-1.431877891512653	-0.08369098712446352	-1.015625	0.5306122448979592
2465.850830078125	-2.741879984572012	-9.063490291063372	1.739018865364481	-0.3778755366593312	-0.7748062327454877	-1.078946139053214	-0.08369098712446352	-1.015625	0.5306122448979592
2469.757080078125	-2.395476504378301	-8.844732103643086	1.792548397013739	-0.3636613031578064	-0.7569574737157249	-0.7191281117576536	-0.08369098712446352	-1.015625	0.5306122448979592
2473.663330078125	-2.752029581647702	-9.154297886001705	1.733570409668181	0.325652374976147	-1.125295968151423	-0.7016584532506176	-0.08369098712446352	-1.015625	0.5306122448979592
2477.569580078125	-2.595985602712215	-9.075050244982981	1.435294965099001	0.329421976141035	-1.487467649301042	-0.6979613444158236	-0.08369098712446352	-1.015625	0.5306122448979592
2481.475830078125	-2.833798078855264	-9.264591312140741	1.747154824301859	-0.03510349817479845	-0.777889639388527	-1.072059864217093	-0.07939914163090128	-0.9866071428571428	0.5283446712018141
2485.382080078125	-2.923665655784906	-9.011167383846194	1.55023904787832	-0.01421423350152478	-0.01784875902976276	-0.3598180272955602	-0.07939914163090128	-0.9866071428571428	0.5283446712018141
2489.288330078125	-2.69176836664813	-9.063991407242611	1.829897889302817	-0.3636613031578064	-0.7569574737157249	-0.7191281117576536	-0.07939914163090128	-0.9866071428571428	0.5283446712018141
2493.194580078125	-2.883786463716515	-9.132778296978998	1.643952494100452	-0.02088926467327366	-0.7600408803587642	-0.7122418369215325	-0.07296137339055794	-1.008928571428571	0.5238095238095238
2497.100830078125	-2.658491275622978	-8.791596905425591	1.563413276583556	0.3218827738112591	-0.7631242870018035	-0.7053555620854115	-0.07296137339055794	-1.008928571428571	0.5238095238095238
2501.007080078125	-2.446072973696139	-9.046246340970109	1.750154512471087	0.3323274061478959	-0.3831038468224214	-0.3492346436246452	-0.07296137339055794	-1.008928571428571	0.5238095238095238
2504.913330078125	-2.678501579152126	-9.286346297339792	1.523627302967694	-0.00667503117174888	-0.7421921213290015	-0.3524238096259723	-0.07296137339055794	-1.008928571428571	0.5238095238095238
2508.819580078125	-2.98642991610578	-8.970135700838945	1.704216100373906	0.003769601164887951	-0.3621716811496193	0.003697108834793953	-0.07510729613733906	-1.002232142857143	0.5396825396825397
2512.725830078125	-2.721643417059018	-9.114197707243553	1.75617844059569	0.007539202329775903	-0.7243433622992387	0.007394217669587907	-0.07510729613733906	-1.002232142857143	0.5396825396825397
2516.632080078125	-2.863176156587346	-9.13298440005029	1.623738107714155	0.01798383466641273	-0.3443229221198566	0.3635151361303542	-0.07510729613733906	-1.002232142857143	0.5396825396825397
2520.538330078125	-2.84415979841581	-9.001861432318874	1.762918617091171	0.3427720384845327	-0.003083406643039275	0.006886274836121049	-0.07296137339055794	-1.013392857142857	0.546485260770975
2524.444580078125	-2.945716375596955	-9.303876169577366	1.714494702552631	-0.01044463233663683	-0.3800204401793821	-0.3561209184607663	-0.07296137339055794	-1.013392857142857	0.546485260770975
2528.350830078125	-2.638307233677663	-8.923111877158176	1.585825408582631	0.3607558731509455	-0.3474063287628959	0.3704014109664752	-0.07296137339055794	-1.013392857142857	0.546485260770975
2532.257080078125	-2.844539598674409	-9.042261674720327	1.800898642951124	0.3398666084776718	-1.10744720912166	-0.3418404259550573	-0.07296137339055794	-1.013392857142857	0.546485260770975
2536.163330078125	-3.067984270614343	-9.100633288606991	1.696386245107824	0.007539202329775903	-0.7243433622992387	0.007394217669587907	-0.07939914163090128	-1.004464285714286	0.5283446712018141
2540.069580078125	-2.741350688466943	-9.103899624428465	1.686089254857525	0.3712005054875823	0.03261411141648625	0.7265223294272415	-0.07939914163090128	-1.004464285714286	0.5283446712018141
2543.975830078125	-2.647196217129065	-9.094740159040832	1.45431559045755	0.6893136781339535	-0.3683384944356979	0.01746965850703605	-0.07939914163090128	-1.004464285714286	0.5283446712018141
2547.882080078125	-2.70000078050355	-8.983101002295976	1.632731111579414	0.3891843401539951	-0.3117088107033704	1.090037465557596	-0.09012875536480687	-0.9821428571428571	0.5192743764172336
2551.788330078125	-2.935752638222282	-9.07165257462788	1.738529128350611	0.01130880349466385	-1.086515043448858	0.01109132650438186	-0.09012875536480687	-0.9821428571428571	0.5192743764172336
2555.694580078125	-2.820456543436025	-9.274825737595945	1.433409445643234	0.02175343583130069	-0.7064946032694759	0.3672122449651481	-0.09012875536480687	-0.9821428571428571	0.5192743764172336
2559.600830078125	-2.729827345775041	-9.114115867956391	1.554163148932718	-0.32478820381812	-0.3412395154768173	0.3566288612942332	-0.09012875536480687	-0.9821428571428571	0.5192743764172336
2563.507080078125	-2.974797481850239	-9.162171217100692	1.56138083808507	0.02175343583130069	-0.7064946032694759	0.3672122449651481	-0.07939914163090128	-0.9955357142857142	0.5396825396825397
2567.413330078125	-2.699715930309599	-8.952800820494884	1.604246092184449	0.7177421451370031	-0.3326409763761723	0.7371057130981565	-0.07939914163090128	-0.9955357142857142	0.5396825396825397
2571.319580078125	-2.588704709717436	-9.085224064013939	1.727613828886437	0.01798383466641273	-0.3443229221198566	0.3635151361303542	-0.07939914163090128	-0.9955357142857142	0.5396825396825397
2575.225830078125	-2.628189960028237	-9.115132241813861	1.59450620690531	0.3749701066524703	-0.3295575697331331	0.7302194382620355	-0.07725321888412018	-1.024553571428571	0.5215419501133787
2579.132080078125	-2.874402527800448	-9.112670116136139	1.725967065759105	0.3607558731509455	-0.3474063287628959	0.3704014109664752	-0.07725321888412018	-1.024553571428571	0.5215419501133787
2583.038330078125	-2.750138661211271	-9.275528916418191	1.54447836602501	0.02175343583130069	-0.7064946032694759	0.3672122449651481	-0.07725321888412018	-1.024553571428571	0.5215419501133787
2586.944580078125	-2.802723021244332	-9.194194992009781	1.700873553004666	-0.3172490014883441	-1.065582877776056	0.364023078963821	-0.07725321888412018	-1.024553571428571	0.5215419501133787
2590.850830078125	-2.709528151623661	-8.932500678079723	1.565060060325318	0.03219806816793752	-0.3264741630900938	0.7233331634259144	-0.08798283261802575	-0.9910714285714285	0.5374149659863946
2594.757080078125	-2.90401090994466	-9.102273022213687	1.625580790384351	0.01798383466641273	-0.3443229221198566	0.3635151361303542	-0.08798283261802575	-0.9910714285714285	0.5374149659863946
2598.663330078125	-2.741914328212418	-9.174601058738078	1.742453229405009	-0.32478820381812	-0.3412395154768173	0.3566288612942332	-0.08798283261802575	-0.9910714285714285	0.5374149659863946
2602.569580078125	-2.781947056555562	-9.133796691050607	1.664093410658176	-0.3314632349898689	-1.083431636805819	0.004205051668260811	-0.07296137339055794	-0.9955357142857142	0.5328798185941043
2606.475830078125	-2.710489773555009	-9.013299142668492	1.661222253460093	-1.027451944295571	-1.457285263699122	-0.3656884164647475	-0.07296137339055794	-0.9955357142857142	0.5328798185941043
2610.382080078125	-2.598450263964829	-9.176035699380554	1.681761090360399	0.03219806816793752	-0.3264741630900938	0.7233331634259144	-0.07296137339055794	-0.9955357142857142	0.5328798185941043
2614.288330078125	-2.783510702301072	-9.052972973785071	1.82045798520926	-0.6704656723095137	-1.442519911312399	0.001015885666933716	-0.07296137339055794	-0.9955357142857142	0.5328798185941043
2618.194580078125	-2.577276317090184	-9.105540368142231	1.605182729426618	-0.6742352734744016	-1.080348230162779	-0.002681223167860238	-0.08369098712446352	-1.011160714285714	0.5328798185941043
2622.100830078125	-2.780359168240353	-8.749974186095375	1.505304579137308	0.0464123016694623	-0.3086254040603311	1.083151190721475	-0.08369098712446352	-1.011160714285714	0.5328798185941043
2626.007080078125	-2.73377888463579	-9.093874332365765	1.949317035007549	-0.3030347679868193	-1.047734118746293	0.7238411062593813	-0.08369098712446352	-1.011160714285714	0.5328798185941043
2629.913330078125	-2.732613221076151	-9.184795079910453	1.832750679043757	-0.9885788449558849	-1.041567305460215	0.7100685565871392	-0.07296137339055794	-1.006696428571429	0.5170068027210885
2633.819580078125	-2.680265226097644	-9.377237751779429	1.699991997519497	-0.2963597368150704	-0.3055419974172918	1.076264915885354	-0.07296137339055794	-1.006696428571429	0.5170068027210885
2637.725830078125	-2.681321798093641	-8.963085771918054	1.805649197119261	-1.356009749278579	-1.43635309802632	-0.01275666400530838	-0.07296137339055794	-1.006696428571429	0.5170068027210885
2641.632080078125	-2.854468992408677	-9.163374501995106	1.773429853112617	-0.2888205344852945	-1.029885359716531	1.083659133554941	-0.07296137339055794	-1.006696428571429	0.5170068027210885
2645.538330078125	-2.783361206454602	-9.133782549551617	1.805508400562257	-0.3030347679868193	-1.047734118746293	0.7238411062593813	-0.07725321888412018	-1.006696428571429	0.5510204081632654
2649.444580078125	-2.700705835238928	-9.154811123465793	1.703236585117305	-0.2992651668219314	-1.409905799895913	0.7275382150941753	-0.07725321888412018	-1.006696428571429	0.5510204081632654
2653.350830078125	-2.611175634070914	-9.014292284063334	1.933889937703675	-0.2888205344852945	-1.029885359716531	1.083659133554941	-0.07725321888412018	-1.006696428571429	0.5510204081632654
2657.257080078125	-2.487198637889828	-9.035734074227165	1.781088278778694	-0.6278229718049394	-1.38897363422311	1.080469967553614	-0.09442060085836909	-1.026785714285714	0.5374149659863946
2661.163330078125	-2.597666420877932	-9.135639497407382	1.603376781670709	-0.2954955656570434	-1.772077481045532	0.7312353239289692	-0.09442060085836909	-1.026785714285714	0.5374149659863946
2665.069580078125	-2.669208552872426	-9.114722055885419	1.614732838263037	0.396723542483771	-1.036052173002609	1.097431683227184	-0.09442060085836909	-1.026785714285714	0.5374149659863946
2668.975830078125	-2.659359967703817	-9.195628622545186	1.650282484667491	0.04350687166260137	-1.412989206538952	0.7344244899302963	-0.09442060085836909	-1.026785714285714	0.5374149659863946
2672.882080078125	-2.712455441914676	-9.104188576893987	1.857789089426765	0.05772110516412615	-1.395140447509189	1.094242517225857	-0.07939914163090128	-0.9977678571428571	0.5328798185941043
2676.788330078125	-2.772088370316245	-9.063188207205931	1.698632949991887	-0.3097097991585682	-1.789926240075295	0.3714172966334089	-0.07939914163090128	-0.9977678571428571	0.5328798185941043
2680.694580078125	-2.607702885961698	-9.246650243867657	1.586615126782082	-0.6591568688148498	-2.529034954761257	0.01210721217131558	-0.07939914163090128	-0.9977678571428571	0.5328798185941043
2684.600830078125	-2.526623281776384	-9.16665295910143	1.641920014373107	0.04727647282748933	-1.775160887688571	0.7381215987650902	-0.07510729613733906	-1	0.526077097505669
2688.507080078125	-2.364243870064334	-9.036963621905418	1.730509455412948	-0.3059401979936803	-2.152097921224914	0.3751144054682029	-0.07510729613733906	-1	0.526077097505669
2692.413330078125	-2.354132657057332	-9.218882915853671	1.739796317978073	0.04727647282748933	-1.775160887688571	0.7381215987650902	-0.07510729613733906	-1	0.526077097505669
2696.319580078125	-2.579338955728643	-9.034812671048776	1.811446593272428	0.01884800582443976	-1.810858405748097	0.01848554417396977	-0.07510729613733906	-1	0.526077097505669
2700.225830078125	-2.597058336421344	-9.307362749969121	1.542568336011954	0.04350687166260137	-1.412989206538952	0.7344244899302963	-0.07296137339055794	-1.004464285714286	0.5351473922902494
2704.132080078125	-2.558898346587358	-9.257239299362411	1.80820200567462	0.3540808419791966	-1.089598450091897	0.01797760134050291	-0.07296137339055794	-1.004464285714286	0.5351473922902494
2708.038330078125	-2.457602377030465	-9.025929026734747	1.88268668263834	-0.009580461178609809	-1.846555923807622	-0.7011505104171507	-0.07296137339055794	-1.004464285714286	0.5351473922902494
2711.944580078125	-2.70141493040259	-8.983086860796986	1.774146101483494	0.3436362096425598	-1.469618890271279	-0.3381433171202634	-0.0815450643776824	-1.006696428571429	0.526077097505669
2715.850830078125	-2.476921767323224	-9.15704896414495	1.773809385383627	1.035855317783374	-0.7335935822283565	0.02805304217795105	-0.0815450643776824	-1.006696428571429	0.526077097505669
2719.757080078125	-2.477531871993953	-9.318659024714405	1.83481985245653	1.035855317783374	-0.7335935822283565	0.02805304217795105	-0.0815450643776824	-1.006696428571429	0.526077097505669
2723.663330078125	-2.567860057747854	-9.307654732755859	1.683964958458891	-0.0313338970099105	-1.140061320538146	-1.068362755382299	-0.0815450643776824	-1.006696428571429	0.526077097505669
2727.569580078125	-2.496218935260427	-9.156855992465578	1.662709852573278	0.3114381414746222	-1.143144727181185	-1.061476480546178	-0.09227467811158799	-0.9866071428571428	0.5578231292517007
2731.475830078125	-2.781555135012113	-9.113598590064022	1.624901256313331	1.017871483116962	-0.3892706601084999	-0.3354620939524031	-0.09227467811158799	-0.9866071428571428	0.5578231292517007
2735.382080078125	-2.659341785776544	-9.225931834667488	1.648464291940153	0.6608852111309039	-0.4040360124952234	-0.7021663960840844	-0.09227467811158799	-0.9866071428571428	0.5578231292517007
2739.288330078125	-2.517635307832049	-9.328359000457036	1.763530783204902	0.6646548122957918	-0.7662076936448428	-0.6984692872492905	-0.09442060085836909	-0.9933035714285714	0.5419501133786848
2743.194580078125	-2.76201352116379	-9.184501076909577	1.711556198011689	0.6504405787942671	-0.7840564526746056	-1.058287314544851	-0.09442060085836909	-0.9933035714285714	0.5419501133786848
2747.100830078125	-2.599870474506294	-9.16592048717413	1.823782144506926	0.6646548122957918	-0.7662076936448428	-0.6984692872492905	-0.09442060085836909	-0.9933035714285714	0.5419501133786848
2751.007080078125	-2.661622607542283	-9.296616097156901	1.876546468514021	0.6684244134606798	-1.128379374794462	-0.6947721784144965	-0.09442060085836909	-0.9933035714285714	0.5419501133786848
2754.913330078125	-2.630290982735383	-9.31713143360699	1.804608477619945	1.000751819608576	-1.511483221616883	-1.044006822039142	-0.07510729613733906	-0.9799107142857142	0.5306122448979592
2758.819580078125	-2.506166510921968	-9.247665607618055	1.637059255462109	0.3047631103028733	-1.885336848510187	-1.41390029017215	-0.07510729613733906	-0.9799107142857142	0.5306122448979592
2762.725830078125	-2.720897958040809	-9.346528394156969	1.681632538774825	1.004521420773464	-1.873654902766503	-1.040309713204348	-0.07510729613733906	-0.9799107142857142	0.5306122448979592
2766.632080078125	-2.772546958926363	-8.97227453041074	1.744491811003639	1.014966053110101	-1.493634462587121	-0.6841887947435815	-0.07510729613733906	-0.9866071428571428	0.5215419501133787
2770.538330078125	-2.569821685679238	-9.236928045769472	1.880127751597267	1.014966053110101	-1.493634462587121	-0.6841887947435815	-0.07510729613733906	-0.9866071428571428	0.5215419501133787
2774.444580078125	-2.640242598825207	-9.06450666492084	1.779361923337073	0.9978463896017147	-2.615847024095504	-1.39273352283032	-0.07510729613733906	-0.9866071428571428	0.5215419501133787
2778.350830078125	-2.384557205714704	-9.026659478447906	1.721026693919389	0.6692885846187069	-2.594914858422702	-1.039801770370881	-0.07510729613733906	-0.9866071428571428	0.5215419501133787
2782.257080078125	-2.313958513724284	-9.158678596680939	1.804014637734498	0.655074351117182	-2.612763617452465	-1.399619797666441	-0.0815450643776824	-0.9776785714285714	0.5374149659863946
2786.163330078125	-2.508499858255385	-9.399157425659871	1.870393988803843	0.6588439522820699	-2.974935298602084	-1.395922688831647	-0.0815450643776824	-0.9776785714285714	0.5374149659863946
2790.069580078125	-2.538362787381424	-9.469565867075682	1.795462411611823	1.015830224268127	-2.960169946215361	-1.029218386699966	-0.0815450643776824	-0.9776785714285714	0.5374149659863946
2793.975830078125	-2.517429245989617	-9.166744899459298	1.742924598961736	1.372816496254185	-2.945404593828637	-0.6625140845682846	-0.08369098712446352	-0.984375	0.5374149659863946
2797.882080078125	-2.591939072557956	-9.418525053718868	2.051050112938485	1.376586097419073	-3.307576274978257	-0.6588169757334907	-0.08369098712446352	-0.984375	0.5374149659863946
2801.788330078125	-2.479069254955625	-9.449956782197919	1.988558148623681	0.9987105607597417	-4.082382507723745	-1.737763114786705	-0.08369098712446352	-0.984375	0.5374149659863946
2805.694580078125	-2.274473263413483	-9.633820923931523	1.937122259715624	1.32726836574275	-4.103314673396547	-2.090694867246144	-0.08369098712446352	-0.984375	0.5374149659863946
2809.600830078125	-2.275432865130689	-9.381286075389099	2.033082431436251	3.033589355835637	-3.394388344312504	-2.063657710735126	-0.07510729613733906	-1.013392857142857	0.5328798185941043
2813.507080078125	-2.356334690471552	-9.420881097539732	1.959999659400142	2.672833482684692	-3.046982015549609	-2.434059121701602	-0.07510729613733906	-1.013392857142857	0.5328798185941043
2817.413330078125	-2.232579917846029	-9.240300463447806	1.829420356031516	2.993852085337924	-2.343570818923171	-2.794385091830629	-0.07510729613733906	-1.013392857142857	0.5328798185941043
2821.319580078125	-1.999163427674856	-9.131523517238405	1.957159094016201	2.996757515344785	-1.239207016444551	-2.44565839103945	-0.07081545064377683	-1.002232142857143	0.5192743764172336
2825.225830078125	-2.195498722363598	-9.412388447119799	2.20293346084958	3.339529553829318	-1.24229042308759	-2.438772116203329	-0.07081545064377683	-1.002232142857143	0.5192743764172336
2829.132080078125	-2.052848804415028	-9.403713936198276	2.223655951706892	3.318640289156044	-2.002331303446355	-3.151013953124862	-0.07081545064377683	-1.002232142857143	0.5192743764172336
2833.038330078125	-2.144340633514425	-9.473506088614352	2.189165392258897	3.287306392146134	-3.142392623984501	-4.219376708507161	-0.07081545064377683	-1.002232142857143	0.5192743764172336
2836.944580078125	-2.03344860555661	-9.575625109904033	2.324452392395658	3.965311266785423	-2.42421607497134	-4.212998376504506	-0.06437768240343347	-1.006696428571429	0.5532879818594104
2840.850830078125	-2.004763461275057	-9.394093779528665	2.517162454036362	4.614887674421663	-1.741737044017706	-4.926256099092972	-0.06437768240343347	-1.006696428571429	0.5532879818594104
2844.757080078125	-2.054860937699949	-9.585511996683609	2.424869280198984	4.915017012401622	-1.798366727750033	-5.998823906143532	-0.06437768240343347	-1.006696428571429	0.5532879818594104
2848.663330078125	-2.219145411347422	-9.402050970128951	2.526786032701354	5.929118894353696	-1.825465706708914	-6.33798310893073	-0.09871244635193133	-0.9799107142857142	0.5328798185941043
2852.569580078125	-2.197096711749514	-9.442675497528972	2.362732399441192	6.261446300501591	-2.208569553531335	-6.687217752555375	-0.09871244635193133	-0.9799107142857142	0.5328798185941043
2856.475830078125	-1.933900121232103	-9.293792311918994	2.573685592597992	7.265103550117027	-2.615688972669598	-7.382497873803338	-0.09871244635193133	-0.9799107142857142	0.5328798185941043
2860.382080078125	-1.820638382086322	-9.305025939411461	2.472001473938343	7.22332502077048	-4.135770733387126	-8.806981547646403	-0.09871244635193133	-0.9799107142857142	0.5328798185941043
2864.288330078125	-1.923518199530141	-9.253492090731973	2.555901585667193	7.897560294244882	-3.055422503224347	-8.804300324478543	-0.06866952789699571	-1	0.5215419501133787
2868.194580078125	-1.587320882408082	-9.367965175014303	2.609639261216314	8.550906303046011	-2.735115153420332	-9.513860938232215	-0.06866952789699571	-1	0.5215419501133787
2872.100830078125	-1.436400166535404	-9.167454180152829	2.823690122928205	9.207157741853997	-1.310444001137696	-9.874694851194709	-0.06866952789699571	-1	0.5215419501133787
2876.007080078125	-1.606593807775586	-9.408176486164669	2.496115471436181	9.863409180661987	0.1142271511449403	-10.2355287641572	-0.07725321888412018	-0.9888392857142857	0.526077097505669
2879.913330078125	-1.780389490830039	-9.537751660647256	2.528745001371266	10.17398315097858	0.4376179075919948	-10.951975652747	-0.07725321888412018	-0.9888392857142857	0.526077097505669
2883.819580078125	-1.637610279176414	-9.40786632145066	2.536538121723062	11.50156443325411	1.83827348755879	-11.65885504333281	-0.07725321888412018	-0.9888392857142857	0.526077097505669
2887.725830078125	-1.56805199746886	-9.489369985075818	2.723567093824744	12.51857174521305	2.91553831107853	-11.64928754532883	-0.07725321888412018	-0.9888392857142857	0.526077097505669
2891.632080078125	-1.741017372511162	-9.487640331325395	2.673165822544719	13.53557905717198	3.99280313459827	-11.63972004732485	-0.06866952789699571	-1.002232142857143	0.54421768707483
2895.538330078125	-1.721756568428505	-9.427226878760163	2.787901740809744	13.84992262865346	3.954022209895705	-12.35246982707985	-0.06866952789699571	-1.002232142857143	0.54421768707483
2899.444580078125	-1.75217101601517	-9.588538895900456	2.768122009680317	14.49195983395993	5.360844603148578	-13.0731217673379	-0.06866952789699571	-1.002232142857143	0.54421768707483
2903.350830078125	-1.834400122046991	-9.436201453324987	2.827767306739895	15.53362601175703	6.835978625877464	-12.34761532357759	-0.06008583690987124	-1	0.5487528344671202
2907.257080078125	-1.671347979025825	-9.417629954553178	2.849083616868224	16.18697202055815	7.156285975681478	-13.05717593733126	-0.06008583690987124	-1	0.5487528344671202
2911.163330078125	-1.725027295123573	-9.699921444220482	3.114974410316469	16.83654842819439	7.838765006635113	-13.77043365991973	-0.06008583690987124	-1	0.5487528344671202
2915.069580078125	-1.906657409847572	-9.738509183477284	2.910638943940859	18.2285258468058	8.58647226042172	-13.03064672365371	-0.06008583690987124	-1	0.5487528344671202
2918.975830078125	-1.765845886767755	-9.52779608658687	3.115200921673476	18.87433265327715	9.631122972524974	-13.74760155507697	-0.06437768240343347	-0.9888392857142857	0.564625850340136
2922.882080078125	-1.717556501999494	-9.689895142050714	3.388303261173927	19.53521786440805	9.227086960029752	-14.44976795116106	-0.06437768240343347	-0.9888392857142857	0.564625850340136
2926.788330078125	-1.86827115602974	-9.728792035914452	3.153646215218871	20.23120657371375	9.600940586923056	-14.07987448302805	-0.06437768240343347	-0.9888392857142857	0.564625850340136
2930.694580078125	-1.878891463000396	-9.708483812642726	3.195268749019215	20.85612411551183	9.885550418667545	-15.50907115137284	-0.06008583690987124	-0.9799107142857142	0.546485260770975
2934.600830078125	-1.758890248249756	-9.669279784386193	3.44004523313885	22.2376569017866	10.25323723227477	-15.12540513356759	-0.06008583690987124	-0.9799107142857142	0.546485260770975
2938.507080078125	-2.114241298104973	-9.625322233483598	3.260864504374823	22.89477251175262	10.21137290092916	-15.83126863848647	-0.06008583690987124	-0.9799107142857142	0.546485260770975
2942.413330078125	-2.05387099154176	-9.71683502745832	3.346282827645431	23.55942732404841	9.445165207284322	-16.52973792573576	-0.06008583690987124	-0.9799107142857142	0.546485260770975
2946.319580078125	-2.003090682737046	-9.990070103273641	3.370292763500552	25.26951791530619	9.791919855218746	-16.49900366038995	-0.04506437768240344	-0.96875	0.564625850340136
2950.225830078125	-1.905782615895448	-9.677911870810744	3.843567711993781	26.2940644295949	10.14484131643925	-16.48204194471638	-0.04506437768240344	-0.96875	0.564625850340136
2954.132080078125	-1.789714799307143	-9.820486690390769	3.461275849081605	26.9549496407258	9.740805303944024	-17.18420834080046	-0.04506437768240344	-0.96875	0.564625850340136
2958.038330078125	-1.779789446001158	-9.860989984327869	3.489148681748409	27.64426331885975	9.372466809508326	-17.16673868229343	-0.04291845493562232	-0.9776785714285714	0.5691609977324263
2961.944580078125	-1.769009542113324	-9.810592732861696	3.431566456230319	29.00113723929636	9.342284423906408	-17.49901161024451	-0.04291845493562232	-0.9776785714285714	0.5691609977324263
2965.850830078125	-1.708978631525881	-9.841496072270603	3.550924377077906	29.99725528658202	9.659508367067382	-18.20168594916206	-0.04291845493562232	-0.9776785714285714	0.5691609977324263
2969.757080078125	-1.697661350676412	-10.01332641679627	3.439604455396265	31.01803219970584	10.3746015094375	-18.18842134232328	-0.04291845493562232	-0.9776785714285714	0.5691609977324263
2973.663330078125	-1.833268760898898	-9.971566302290002	3.735039355195934	31.99993601348998	10.67397669356872	-19.25091370853639	-0.0407725321888412	-0.984375	0.5804988662131519
2977.569580078125	-1.82141006265951	-9.698957616545123	3.569577694522445	33.40235806443803	11.80170438753471	-18.15500585380961	-0.0407725321888412	-0.984375	0.5804988662131519
2981.475830078125	-1.599042164856988	-9.529464123805978	3.781767506106996	34.37672267589238	12.82542293396516	-19.22489243769231	-0.0407725321888412	-0.984375	0.5804988662131519
2985.382080078125	-1.752069964079236	-9.921873239753149	3.778424979352186	35.05472755053167	13.54359948297832	-19.21851410568965	-0.03648068669527897	-0.9642857142857142	0.5918367346938775
2989.288330078125	-1.530093987820163	-9.772577848000589	4.029806945281582	36.74015927595129	13.49248493170359	-19.90371878610017	-0.03648068669527897	-0.9642857142857142	0.5918367346938775
2993.194580078125	-1.548890142650277	-9.934006048068449	3.868606101762359	37.40018031592415	14.55498440283661	-20.26085559022787	-0.03648068669527897	-0.9642857142857142	0.5918367346938775
2997.100830078125	-1.567866096538983	-9.964119318832591	3.725385164102369	39.10273170485216	15.62608241307027	-20.23751554255165	-0.03648068669527897	-0.9642857142857142	0.5918367346938775
3001.007080078125	-1.540037523053421	-9.701771341941186	4.003752305342116	40.46251105529563	16.70026382994698	-20.22106176971154	-0.03648068669527897	-0.9642857142857142	0.5918367346938775
3004.913330078125	-1.621943394822603	-9.751457333728544	4.031074176137905	41.45862910258129	17.01748777310795	-20.9237361086291	-0.03648068669527897	-0.9642857142857142	0.5918367346938775
3008.819580078125	-1.591496623809675	-9.812367862044734	4.047621564640953	42.81840845302476	18.09166918998465	-20.90728233578899	-0.03648068669527897	-0.9642857142857142	0.5918367346938775
3012.725830078125	-1.550078028565471	-9.974398209613337	3.987394693281787	44.18195740463312	18.80367892571173	-20.8871314541141	-0.05579399141630902	-0.9799107142857142	0.5963718820861679
3016.632080078125	-1.714273612790718	-9.770736051750882	4.080422503561615	45.20650391892183	19.15660038693223	-20.87016973844053	-0.05579399141630902	-0.9799107142857142	0.5963718820861679
3020.538330078125	-1.808674550253857	-10.04251931510352	4.336842780487729	46.56714744052332	18.76424632018069	-21.19874555755681	-0.05579399141630902	-0.9799107142857142	0.5963718820861679
3024.444580078125	-1.470335806141821	-9.853983510625451	4.176437757039242	47.91648215863015	19.45840729687801	-21.53841270317747	-0.05579399141630902	-0.9799107142857142	0.5963718820861679
3028.350830078125	-1.573803505900813	-9.832746813425841	4.319126100285359	49.61903354755814	20.52950530711168	-21.51507265550125	-0.05579399141630902	-0.9799107142857142	0.5963718820861679
3032.257080078125	-1.704309875416045	-10.0435629618519	4.104456929359594	50.29326882103254	21.60985353727446	-21.51239143233339	-0.05579399141630902	-0.9799107142857142	0.5963718820861679
3036.163330078125	-1.654590179035611	-10.06426217901773	4.234528107642776	51.63969810913252	21.19965071149316	-22.20078527874523	-0.05579399141630902	-0.9799107142857142	0.5963718820861679
3040.069580078125	-1.8708529484737	-9.799473288697083	4.432233622880196	53.0354451289088	21.58518628413014	-21.45730123364442	-0.04721030042918455	-0.9397321428571428	0.6303854875283447
3043.975830078125	-1.861949823523307	-9.819764340148607	4.562329291106236	54.7284160566582	20.80972837055618	-22.13511169638535	-0.04721030042918455	-0.9397321428571428	0.6303854875283447
3047.882080078125	-1.952358817842868	-10.0107794421246	4.419555253674545	55.7567321721118	20.80047815062706	-22.11445287187698	-0.04721030042918455	-0.9397321428571428	0.6303854875283447
3051.788330078125	-1.658572021108482	-9.993515289889928	4.632712314929837	57.11070066254155	19.66593196254652	-22.79545250061924	-0.04721030042918455	-0.9397321428571428	0.6303854875283447
3055.694580078125	-1.790223852041937	-9.81038058976241	4.532589285826377	58.47801921531479	20.01577001712398	-22.77160451010955	-0.04721030042918455	-0.9397321428571428	0.6303854875283447
3059.600830078125	-1.821026180743768	-9.830274586677412	4.551597666213498	60.20232404007408	20.38037342408817	-22.38105221746818	-0.04721030042918455	-0.9397321428571428	0.6303854875283447
3063.507080078125	-1.596102712052265	-9.711311700152208	4.50823038889996	61.18799745502311	20.31757692706976	-23.43984747484649	-0.04721030042918455	-0.9397321428571428	0.6303854875283447
3067.413330078125	-1.579423741642429	-9.893296671674486	4.881149674447006	62.2200831716416	19.94615502599103	-23.41549154150334	-0.04721030042918455	-0.9151785714285714	0.6598639455782314
3071.319580078125	-1.833505084724592	-9.910957878445686	4.779079901030634	63.57695709207822	19.91597264038911	-23.74776446945441	-0.04721030042918455	-0.9151785714285714	0.6598639455782314
3075.225830078125	-1.589046062827191	-9.852796408058598	4.822973629657899	64.95095067602318	21.00800281629557	-23.37149266931875	-0.04721030042918455	-0.9151785714285714	0.6598639455782314
3079.132080078125	-1.773064070666428	-9.951966328990308	4.857427474806038	66.31159419762469	20.61564874954404	-23.70006848843503	-0.04721030042918455	-0.9151785714285714	0.6598639455782314
3083.038330078125	-1.690432942020452	-9.932590620074746	4.75757991633087	66.97247940875559	20.21161273704881	-24.40223488451912	-0.04721030042918455	-0.9151785714285714	0.6598639455782314
3086.944580078125	-1.638664748500551	-9.832098200999845	4.682801380667283	68.37199602969677	20.23497662853618	-23.65505373058351	-0.04721030042918455	-0.9151785714285714	0.6598639455782314
3090.850830078125	-1.761310423562397	-9.840972754350236	4.70247092766828	69.69290228080055	20.89344008717397	-24.7143569307953	-0.04721030042918455	-0.9151785714285714	0.6598639455782314
3094.757080078125	-1.720768601255598	-9.720166051361183	4.729921350049644	70.37844635776962	20.88727327388789	-24.70058438112306	-0.02575107296137339	-0.9129464285714285	0.655328798185941
3098.663330078125	-1.506770491870117	-9.914225224374229	4.7586818400729	71.73155067704133	21.21926256943559	-25.03655441790893	-0.02575107296137339	-0.9129464285714285	0.655328798185941
3102.569580078125	-1.640804155276385	-9.801773776629057	4.896742058250743	72.42376978518216	21.95528787747851	-24.67035805861071	-0.02575107296137339	-0.9129464285714285	0.655328798185941
3106.475830078125	-1.618129189294616	-10.04442476871312	4.670061786604487	73.07421036397642	21.17123142480391	-25.72864537315556	-0.02575107296137339	-0.9129464285714285	0.655328798185941
3110.382080078125	-1.577581306345393	-9.933719136431497	4.696906144743404	74.0845426447636	21.50630412699465	-26.07150168477756	-0.02575107296137339	-0.9129464285714285	0.655328798185941
3114.288330078125	-1.63942434901775	-9.912898685802753	4.758761432387189	76.12609647101124	22.93649041173489	-26.0449724711	-0.02575107296137339	-0.9129464285714285	0.655328798185941
3118.194580078125	-1.722002952096047	-9.85146683916591	4.853356434094491	76.80787094681541	23.29249527959843	-26.03489703026256	-0.02575107296137339	-0.9129464285714285	0.655328798185941
3122.100830078125	-1.833636398643789	-9.860451514801442	4.792211292950299	78.87785324006612	24.7583790823982	-25.28873176199388	-0.01931330472103004	-0.8727678571428571	0.7120181405895691
3126.007080078125	-1.649244651188377	-9.710780280760847	4.720383486184653	79.53496885003213	24.71651475105259	-25.99459526691276	-0.01931330472103004	-0.8727678571428571	0.7120181405895691
3129.913330078125	-1.670590316265047	-9.831778945322199	4.814133667321073	80.20252909233479	25.05467085988637	-26.34433785337087	-0.01931330472103004	-0.8727678571428571	0.7120181405895691
3133.819580078125	-1.63873141556722	-9.720986423218067	4.689468087334189	81.22998103663036	26.5119561235855	-25.97864943690613	-0.01931330472103004	-0.8727678571428571	0.7120181405895691
3137.725830078125	-1.893309731328188	-9.92046084208066	4.637095581798394	81.56521387278511	27.23321607924169	-25.97915737973959	-0.01931330472103004	-0.8727678571428571	0.7120181405895691
3141.632080078125	-1.893946098782756	-9.869949427901062	4.70073232725523	82.59643541824559	28.32832966179119	-25.60977185444005	-0.01931330472103004	-0.8727678571428571	0.7120181405895691
3145.538330078125	-1.964805398397429	-9.808634774298856	4.643805145865302	83.60763187019079	27.19686688035369	-26.29765775801843	-0.01931330472103004	-0.8727678571428571	0.7120181405895691
3149.444580078125	-1.975542877788291	-9.929739520717069	4.69714492168627	84.97872002412892	27.18453325378154	-26.27011265867394	-0.01931330472103004	-0.8392857142857142	0.746031746031746
3153.350830078125	-2.19085412636574	-9.7356672163121	4.799698350859659	86.36692784157545	28.29441218871776	-25.53402283124272	-0.01931330472103004	-0.8392857142857142	0.746031746031746
3157.257080078125	-2.066145812665435	-9.797520360055167	4.573764940012853	87.05247191854451	28.28824537543169	-25.52025028157048	-0.01931330472103004	-0.8392857142857142	0.746031746031746
3161.163330078125	-2.057535618765558	-9.666293330681034	4.733153713290452	86.68504101422181	27.89345958286558	-26.24307550216293	-0.01931330472103004	-0.8392857142857142	0.746031746031746
3165.069580078125	-2.099934017868383	-10.0598087406294	4.891360970511732	89.09779534595704	29.3562599790223	-25.49002395905814	-0.01931330472103004	-0.8392857142857142	0.746031746031746
3168.975830078125	-2.057634609258491	-9.838009512493276	4.743052762583738	89.41967811976829	28.5931356920205	-26.19537952114355	-0.01931330472103004	-0.8392857142857142	0.746031746031746
3172.882080078125	-1.946019344638022	-9.798721624735441	4.806016096455268	90.46888349989517	29.34392635245015	-25.46247885971365	-0.01931330472103004	-0.8392857142857142	0.746031746031746
3176.788330078125	-1.882863162773699	-9.819555206756103	4.612846889614837	90.81833056955145	30.08303506713611	-25.10316877525156	-0.03433476394849785	-0.8303571428571428	0.782312925170068
3180.694580078125	-1.883109628898961	-9.577128499670607	4.637493502140977	92.19986335582621	30.45072188074334	-24.71950275744631	-0.03433476394849785	-0.8303571428571428	0.782312925170068
3184.600830078125	-2.138318251472073	-9.736192575061038	4.648151677819572	92.88163783163039	30.80672674860688	-24.70942731660886	-0.03433476394849785	-0.8303571428571428	0.782312925170068
3188.507080078125	-2.065204392875502	-9.51470149142478	4.479622961019564	92.8740986293006	31.53107011090612	-24.71682153427844	-0.03433476394849785	-0.8303571428571428	0.782312925170068
3192.413330078125	-2.191205643626359	-9.654855620331414	4.83485007692153	94.60130888406678	33.00003732034892	-23.9775425408459	-0.03433476394849785	-0.8303571428571428	0.782312925170068
3196.319580078125	-2.13006563547524	-9.514052878998784	4.843298241401488	94.23010837857919	32.96742320893244	-24.70406487027314	-0.03433476394849785	-0.8303571428571428	0.782312925170068
3200.225830078125	-1.987074301336758	-9.232654509511885	4.829879113267672	94.56911081589884	33.32651148343901	-24.70087570427181	-0.03433476394849785	-0.8303571428571428	0.782312925170068
3204.132080078125	-2.222060497895867	-9.250506667748315	4.859111014076516	95.967763265682	34.81641085855463	-23.60866495837982	-0.03433476394849785	-0.7879464285714285	0.8231292517006803
3208.038330078125	-2.301388576420512	-9.21941035666004	4.628653560418581	95.99619173268505	34.85210837661415	-22.8890289037887	-0.03433476394849785	-0.7879464285714285	0.8231292517006803
3211.944580078125	-2.263929600893623	-9.179380906011268	4.96438866079084	95.94977943101559	35.16073378067448	-23.97218009451018	-0.03433476394849785	-0.7879464285714285	0.8231292517006803
3215.850830078125	-2.223957478974723	-9.119174566624395	5.048809121962133	96.98854017880581	35.53150400092475	-23.59540035154104	-0.02575107296137339	-0.7611607142857142	0.8412698412698413
3219.757080078125	-2.041939483135559	-9.222004847592888	5.214356476821195	97.01319904464397	35.92937320013389	-22.87946140578472	-0.02575107296137339	-0.7611607142857142	0.8412698412698413
3223.663330078125	-2.346067797289076	-9.178559524047312	5.014942994213728	97.0274132781455	35.94722195916365	-22.51964337848916	-0.02575107296137339	-0.7611607142857142	0.8412698412698413
3227.569580078125	-2.318029121532799	-9.098031829996795	5.272299908382012	98.06326859592888	35.2136283769353	-22.49159033631121	-0.02575107296137339	-0.7611607142857142	0.8412698412698413
3231.475830078125	-2.53163126894655	-9.227208939835787	5.203943221185611	98.77056610872924	34.50096696037975	-22.11060554167382	-0.03218884120171674	-0.7611607142857142	0.8594104308390023
3235.382080078125	-2.440038429140078	-9.157417797526783	5.228332709926172	99.46074395802123	32.6660929823158	-22.43816547512317	-0.03218884120171674	-0.7611607142857142	0.8594104308390023
3239.288330078125	-2.402044096865694	-9.167898750950537	5.510532135549029	100.1500576361552	32.29775448788011	-22.42069581661613	-0.03218884120171674	-0.7611607142857142	0.8594104308390023
3243.194580078125	-2.267786189689721	-9.149039309820276	5.350047540400683	101.2030326174469	32.68637346716013	-21.68409804635144	-0.02789699570815451	-0.7165178571428571	0.8775510204081632
3247.100830078125	-2.239789938430416	-8.997804120817719	5.61164690426609	102.2484683964089	33.79933580873941	-20.95489449375634	-0.02789699570815451	-0.7165178571428571	0.8775510204081632
3251.007080078125	-2.248325384407058	-8.916910685549869	5.444783338664989	102.5912404348935	33.79625240209636	-20.94800821892022	-0.02789699570815451	-0.7165178571428571	0.8775510204081632
3254.913330078125	-2.380047922835465	-8.784280328852454	5.351731059056733	103.2654757083679	34.87660063225914	-20.94532699575236	-0.02789699570815451	-0.7165178571428571	0.8775510204081632
3258.819580078125	-2.302039044145211	-8.805262437841376	5.714108496153761	103.6395816438623	36.01357854615424	-19.87007796553394	-0.05579399141630902	-0.7053571428571428	0.8934240362811792
3262.725830078125	-2.331778740208619	-8.744358980274683	5.626853612698672	103.2683811383747	35.98096443473776	-20.59660029496118	-0.05579399141630902	-0.7053571428571428	0.8934240362811792
3266.632080078125	-2.333501982871308	-8.734240737747045	5.799177878967502	103.6471208461921	35.28923518385501	-19.86268374786435	-0.05579399141630902	-0.7053571428571428	0.8934240362811792
3270.538330078125	-2.568334643155664	-8.671286350538141	5.813056152301046	105.0466374671333	35.31259907534238	-19.11550259392875	-0.04506437768240344	-0.6808035714285714	0.9115646258503401
3274.444580078125	-2.710669407698162	-8.700166033195748	5.760818320836539	105.7397207464321	34.58208889975706	-19.09433582658691	-0.04506437768240344	-0.6808035714285714	0.9115646258503401
3278.350830078125	-2.620417990081637	-8.751573597876963	5.919350028571828	107.1430069685382	34.24328111009481	-18.34345756381652	-0.04506437768240344	-0.6808035714285714	0.9115646258503401
3282.257080078125	-2.639222225768317	-8.731183535318074	5.7589572707092	106.4461540880744	35.33596296682975	-18.36832143999314	-0.04506437768240344	-0.6808035714285714	0.9115646258503401
3286.163330078125	-3.058626432566676	-8.686585452846051	5.862643256667622	106.8069099612254	34.98855663806685	-17.99792002902667	-0.03648068669527897	-0.6607142857142857	0.9183673469387755
3290.069580078125	-3.245379810353486	-8.603909838260103	6.170634096573082	106.8190829358781	32.43550611098975	-18.33185829447867	-0.03648068669527897	-0.6607142857142857	0.9183673469387755
3293.975830078125	-2.998872291316617	-8.42455673163229	6.009678111253579	107.2271152818565	30.31293889453828	-17.2233352847471	-0.03648068669527897	-0.6607142857142857	0.9183673469387755
3297.882080078125	-2.765841662046468	-8.346078957116912	6.176002939340663	107.6104887619968	27.79250247887767	-16.83075122077186	-0.02575107296137339	-0.6160714285714285	0.9523809523809524
3301.788330078125	-2.89801874865671	-8.465969307462927	6.128405477915862	107.5904636684815	25.56592611489067	-17.88802264964978	-0.02575107296137339	-0.6160714285714285	0.9523809523809524
3305.694580078125	-2.6642547816532	-8.09456957339559	6.221396532666973	107.2665396358214	23.75815111578561	-17.87642338031193	-0.02575107296137339	-0.6160714285714285	0.9523809523809524
3309.600830078125	-2.881695335935776	-8.223708299165896	6.536880532353078	107.9805121797935	23.78768182055906	-17.14301477604857	-0.02575107296137339	-0.6160714285714285	0.9523809523809524
3313.507080078125	-2.944677779383931	-8.324088575741516	6.712675897576722	107.6444151724808	24.5329573485311	-16.79747724125872	-0.04721030042918455	-0.6205357142857143	0.9705215419501134
3317.413330078125	-3.076844764923464	-8.29246387558309	6.664068329081178	107.2978735328313	24.89821243632376	-16.80806062492963	-0.04721030042918455	-0.6205357142857143	0.9705215419501134
3321.319580078125	-3.023989696195444	-8.151578284856228	6.480602272605597	106.980624531343	23.8326295585477	-16.44403754596581	-0.04721030042918455	-0.6205357142857143	0.9705215419501134
3325.225830078125	-3.074438689880954	-8.262184906030484	6.423460824830092	107.7276593146411	22.06915061660281	-15.33232537023292	-0.05579399141630902	-0.5848214285714285	0.9569160997732427
3329.132080078125	-3.116247186454465	-8.29206985136778	6.522677829119955	108.4538048332659	19.54563079429916	-14.93285503142156	-0.05579399141630902	-0.5848214285714285	0.9569160997732427
3333.038330078125	-3.200476304486357	-8.341732610692512	6.782324326186734	108.8154248775749	17.73168898190803	-14.90748321241147	-0.05579399141630902	-0.5848214285714285	0.9569160997732427
3336.944580078125	-2.87425484602382	-8.163176643458955	6.813239704422767	109.1912591553854	15.93559592854665	-14.52229336610582	-0.05579399141630902	-0.5848214285714285	0.9569160997732427
3340.850830078125	-2.782175134609249	-8.063087339562999	6.788942032353495	109.2489802605495	14.54045548103747	-13.42805084887996	-0.04721030042918455	-0.5558035714285714	0.981859410430839
3344.757080078125	-2.752552610966047	-8.265403766819633	6.887914157829207	109.2460748305426	13.43609167855884	-13.77677754967114	-0.04721030042918455	-0.5558035714285714	0.981859410430839
3348.663330078125	-2.772354832438622	-8.265205744604907	6.82731997855603	109.6039252736867	11.98432154731733	-13.75510283949584	-0.04721030042918455	-0.5558035714285714	0.981859410430839
3352.569580078125	-2.670186130372606	-7.973298138696276	6.814531404607518	111.6994306039336	12.381539065698	-12.63802821742723	-0.06223175965665236	-0.5446428571428571	1.00453514739229
3356.475830078125	-2.52811197345436	-8.015122920669498	6.892829998497205	112.0070991442433	11.60056601966643	-13.7032018068082	-0.06223175965665236	-0.5446428571428571	1.00453514739229
3360.382080078125	-2.611181488569038	-8.145605356831483	7.036516203842638	113.4057515940265	13.09046539478204	-12.61099106091621	-0.06223175965665236	-0.5446428571428571	1.00453514739229
3364.288330078125	-2.672036646526208	-8.256107916363023	6.999583019967715	113.7447540313461	13.44955366928862	-12.60780189491489	-0.06223175965665236	-0.5446428571428571	1.00453514739229
3368.194580078125	-2.744805048504585	-8.043259020222026	7.133566074948296	114.1263991691704	13.86218822088449	-11.52515864702688	-0.04506437768240344	-0.5178571428571428	1.011337868480726
3372.100830078125	-2.730847347772193	-7.901984455815209	6.758204164974321	115.5363604224482	14.26557255255124	-10.42185657463051	-0.04506437768240344	-0.5178571428571428	1.011337868480726
3376.007080078125	-2.599512690458951	-7.893196792287331	6.890044556099125	116.5977387772277	12.46331268590379	-10.02289417865261	-0.04506437768240344	-0.5178571428571428	1.011337868480726
3379.913330078125	-2.55862945196224	-7.499666230732904	6.883353359489361	116.2654113710798	12.84641653272621	-9.673659535027967	-0.06437768240343347	-0.4754464285714285	1.020408163265306
3383.819580078125	-2.487210553030376	-7.651895571237374	6.884320609160103	116.2938398380829	12.88211405078574	-8.954023480436847	-0.06437768240343347	-0.4754464285714285	1.020408163265306
3387.725830078125	-2.273386182061063	-7.219690380603633	6.930454940800147	116.3071899004264	14.36649829344374	-8.249175861184902	-0.06437768240343347	-0.4754464285714285	1.020408163265306
3391.632080078125	-2.199601612369518	-7.44265044852277	6.694855114502777	115.9739983231205	16.2161376238944	-7.554911625603873	-0.06437768240343347	-0.4754464285714285	1.020408163265306
3395.538330078125	-2.261563847676221	-7.391525775664653	6.768629665581335	115.6086086776466	18.39225111743515	-7.583980553448758	-0.05793991416309013	-0.4441964285714285	1.040816326530612
3399.444580078125	-2.0167775510879	-7.373771618428516	6.779795925116512	114.5936426245365	19.88588558002228	-6.899791758705176	-0.05793991416309013	-0.4441964285714285	1.040816326530612
3403.350830078125	-2.343510123728234	-7.03717095936878	6.799991964660097	114.3001883177283	20.68470738508361	-5.474800142028645	-0.05793991416309013	-0.4441964285714285	1.040816326530612
3407.257080078125	-2.22787867339449	-7.462569698114542	6.461336727204038	113.9611858804086	20.32561911057703	-5.477989308029971	-0.06223175965665236	-0.4174107142857142	1.070294784580499
3411.163330078125	-2.364080026574573	-7.44100566438072	6.816165922763421	113.650611910092	20.00222835412997	-4.761542419440178	-0.06223175965665236	-0.4174107142857142	1.070294784580499
3415.069580078125	-2.35406174341808	-7.299691705798144	6.834745770379385	113.6468423089272	20.36440003527959	-4.765239528274972	-0.06223175965665236	-0.4174107142857142	1.070294784580499
3418.975830078125	-2.435315086019562	-7.258475131968089	6.796814724405149	114.0313928767582	21.88139838935408	-3.333869579595786	-0.06223175965665236	-0.4174107142857142	1.070294784580499
3422.882080078125	-2.497642980085875	-6.934619529795103	6.907155151444618	113.0381802594794	22.66853824867172	-2.282468539887057	-0.06008583690987124	-0.3772321428571428	1.08843537414966
3426.788330078125	-2.306311755825596	-7.067845973350837	7.161787827457538	111.6746313078711	21.95652851294464	-2.302619421561953	-0.06008583690987124	-0.3772321428571428	1.08843537414966
3430.694580078125	-2.658931476161523	-6.862299574127275	6.709474146764486	111.0108406667333	21.25620072296125	-1.949179726269047	-0.06008583690987124	-0.3772321428571428	1.08843537414966
3434.600830078125	-2.631999877754781	-6.620144647687099	7.07753879588625	110.365033860262	20.21155001085799	-1.232224894845786	-0.06652360515021459	-0.3705357142857142	1.077097505668934
3438.507080078125	-2.525681655842151	-7.01514722384562	6.649798237276335	109.4048834823091	19.2056802234573	0.1974797163324729	-0.06652360515021459	-0.3705357142857142	1.077097505668934
3442.413330078125	-2.629777642199145	-6.620166870042656	6.855315240322694	109.1018487143223	18.15794610471101	0.9213208225918543	-0.06652360515021459	-0.3705357142857142	1.077097505668934
3446.319580078125	-2.672559881988853	-6.71064813855385	7.051906566232225	108.1036894081878	15.26982287544317	0.9302388687618426	-0.06652360515021459	-0.3705357142857142	1.077097505668934
3450.225830078125	-2.58747419316097	-6.741802025745159	6.706602989566403	108.8356457868263	14.95503065809676	2.027162609155559	-0.0815450643776824	-0.3236607142857142	1.08843537414966
3454.132080078125	-2.476382164003147	-6.672205875329666	6.821889869702444	107.8224080760323	13.5155941534274	2.021292219986373	-0.0815450643776824	-0.3236607142857142	1.08843537414966
3458.038330078125	-2.670351787932208	-6.518751027575224	6.83109716056771	106.8083061940802	13.54269313238628	2.360451422773569	-0.0815450643776824	-0.3236607142857142	1.08843537414966
3461.944580078125	-2.578653896990379	-6.28734477416141	6.844981535772539	106.1369763506127	13.56670870470212	2.706496900396887	-0.07296137339055794	-0.3035714285714285	1.108843537414966
3465.850830078125	-2.375920542886687	-6.228766047096387	6.979809390709572	105.8368470126327	13.62333838843445	3.779064707447447	-0.07296137339055794	-0.3035714285714285	1.108843537414966
3469.757080078125	-2.424838214252951	-6.197973840079693	6.769535711009361	106.187158253447	12.89591161949217	3.793345199953156	-0.07296137339055794	-0.3035714285714285	1.108843537414966
3473.663330078125	-2.525253370444156	-6.04545453700263	6.606969697476814	104.4628534286877	12.53130821252799	3.402792907311785	-0.07296137339055794	-0.3035714285714285	1.108843537414966
3477.569580078125	-2.321788698821246	-6.027287163516839	6.668665800492021	104.1418348260345	11.82789701590155	3.763118877440812	-0.08583690987124463	-0.2723214285714285	1.104308390022676
3481.475830078125	-2.587037826906409	-5.953927601528916	6.662966364110287	102.7573966097529	10.35584639981571	3.030726158844383	-0.08583690987124463	-0.2723214285714285	1.104308390022676
3485.382080078125	-2.505376401048347	-5.833532094575376	6.660089084426489	102.4572672717729	10.41247608354803	4.103293965894943	-0.08583690987124463	-0.2723214285714285	1.104308390022676
3489.288330078125	-2.392882343276331	-5.743747944244006	6.635173103143341	101.0899487189997	10.06263802897057	4.079445975385252	-0.08369098712446352	-0.2410714285714285	1.106575963718821
3493.194580078125	-2.822347257728156	-5.769756325402517	6.724521691182921	100.7584854840098	8.979206392164752	4.083651027053513	-0.08369098712446352	-0.2410714285714285	1.106575963718821
3497.100830078125	-2.510784514305107	-5.742568922533717	7.200900410102523	100.7764693186762	8.634883470044894	4.447166163183867	-0.08369098712446352	-0.2410714285714285	1.106575963718821
