Time Stamp	Accelerometer X	Accelerometer Y	Accelerometer Z	Gyroscope X	Gyroscope Y	Gyroscope Z	Magnetometer X	Magnetometer Y	Magnetometer Z
1567.413330078125	0.9669131195574638	-0.2217903433167868	9.431137023845439	-0.9781342126192479	-0.6615468652808326	1.066189475047906	0.06652360515021459	-0.9977678571428571	0.562358276643991
1571.319580078125	-1.879756155881813	-9.112515569754317	2.26132987389555	-48.31860528306922	95.27879305988016	-2.638584496691841	0.04506437768240344	-0.953125	0.54421768707483
1575.225830078125	-1.888736048969582	-9.132627791025458	2.13891101940716	6.92449859793415	56.39524979513422	-1.144886986424314	0.04506437768240344	-0.953125	0.54421768707483
1579.132080078125	-2.040824448616038	-9.070500846422931	2.04162853507321	32.89426022655213	87.17965074927913	-3.451321374904195	0.04506437768240344	-0.953125	0.54421768707483
1583.038330078125	-2.073861134158353	-9.070170479567508	2.284072599508778	35.69908099902042	109.9151697248285	-4.701716839857805	0.04506437768240344	-0.953125	0.54421768707483
1586.944580078125	-2.021626271171769	-9.242409999914548	2.162627117176845	31.13231063915647	128.8952739851468	-2.824579908363303	0.04506437768240344	-0.9642857142857142	0.5238095238095238
1590.850830078125	-1.918926252786542	-9.162628919290318	2.096706911307228	26.25928716476605	140.2193100708768	-1.95614404806093	0.04506437768240344	-0.9642857142857142	0.5238095238095238
1594.757080078125	-1.674283391402265	-9.074166256995071	2.122216691246963	4.787186818756014	-4.460622902917033	-1.298498955459019	0.04506437768240344	-0.9642857142857142	0.5238095238095238
1598.663330078125	-1.623791973219784	-9.034267130772855	2.175115689325346	3.102619264494428	-5.876043835270552	-0.958323867004888	0.04721030042918455	-0.9821428571428571	0.5238095238095238
1602.569580078125	-1.958797363998367	-9.22283626878426	2.002185379428501	3.428584556003355	-1.497369550058633	-0.276166843595174	0.04721030042918455	-0.9821428571428571	0.5238095238095238
1606.475830078125	-1.888014832521071	-8.81950369005863	2.066789374556079	1.34642928809997	-0.410202825781302	-0.6883938464118423	0.04721030042918455	-0.9821428571428571	0.5238095238095238
1610.382080078125	-2.013426180742613	-9.101077859404695	2.363026237526628	-0.721511746301891	0.6948126575257918	-0.7408028219329504	0.04721030042918455	-0.9821428571428571	0.5238095238095238
1614.288330078125	-1.972217687769124	-9.081287924132411	2.323809593238925	-1.403286222106068	0.3388077896622509	-0.7508782627703986	0.04506437768240344	-0.9754464285714285	0.5487528344671202
1618.194580078125	-1.941827482752157	-8.879571624162379	2.346013581338136	-2.449586172226079	0.6923809317112253	-1.135052223409116	0.04506437768240344	-0.9754464285714285	0.5487528344671202
1622.100830078125	-1.6942492502203	-9.306289830730123	2.07798624651983	-1.735613628253964	0.7219116364846723	-0.4016436191457534	0.04506437768240344	-0.9754464285714285	0.5487528344671202
1626.007080078125	-1.880392523336381	-9.062004155574719	2.324966619352386	-2.409848901728366	-0.3584365936781072	-0.4043248423136136	0.04721030042918455	-0.9754464285714285	0.5238095238095238
1629.913330078125	-2.044555784135365	-9.080564543168748	2.414762087005836	-2.067076863243833	-0.3615200003211465	-0.3974385674774926	0.04721030042918455	-0.9754464285714285	0.5238095238095238
1633.819580078125	-1.980716769891219	-9.06100091310917	2.153309642183147	-1.39951662094118	-0.02336389148736843	-0.7471811539356047	0.04721030042918455	-0.9754464285714285	0.5238095238095238
1637.725830078125	-1.838363823421448	-9.062424442573867	2.203729280920316	-1.728074425924188	-0.002431725814566389	-0.3942494014761655	0.04721030042918455	-0.9754464285714285	0.5238095238095238
1641.632080078125	-2.022458599398061	-9.201997636228244	2.245859939806104	-0.3465416396494207	0.3652550877926586	-0.010583383670915	0.05793991416309013	-0.9888392857142857	0.5124716553287982
1645.538330078125	-1.850085147099215	-8.890590057619919	2.355453485431694	-0.6930832792988414	0.7305101755853173	-0.02116676734183	0.05793991416309013	-0.9888392857142857	0.5124716553287982
1649.444580078125	-1.807113007180208	-9.284959172958501	2.139872146592187	-1.053839152449787	1.077916504348213	-0.3915681783083053	0.05793991416309013	-0.9888392857142857	0.5124716553287982
1653.350830078125	-1.93070414246027	-9.233218211100652	2.254087715414769	-0.6968528804637294	1.092681856734937	-0.02486387617662396	0.03862660944206009	-0.9598214285714285	0.5306122448979592
1657.257080078125	-1.98173697803267	-9.212505862542908	2.255330456328234	-1.060514183621536	0.3357243830192116	-0.7439919879342776	0.03862660944206009	-0.9598214285714285	0.5306122448979592
1661.163330078125	-1.929496054403661	-9.394846453597379	2.133278909753855	-0.7035279116354782	0.3504897354059351	-0.3772876858025963	0.03862660944206009	-0.9598214285714285	0.5306122448979592
1665.069580078125	-1.735049659937209	-9.16446768521881	2.076394565149498	-1.050069551284899	0.7157448231985937	-0.3878710694735113	0.03862660944206009	-0.9598214285714285	0.5306122448979592
1668.975830078125	-2.051555867364476	-9.201706663548581	2.094362246651732	-0.7072975128003661	0.7126614165555545	-0.3809847946373902	0.06866952789699571	-0.9821428571428571	0.5328798185941043
1672.882080078125	-1.861683237714351	-9.09249427873397	2.494854383680003	-0.3682950754807214	1.071749691062134	-0.3777956286360631	0.06866952789699571	-0.9821428571428571	0.5328798185941043
1676.788330078125	-2.071800515734036	-9.474231489792157	2.078010757077118	-1.403286222106068	0.3388077896622509	-0.7508782627703986	0.06866952789699571	-0.9821428571428571	0.5328798185941043
1680.694580078125	-2.091901728899551	-9.31241431604434	2.047315747097946	-0.6855440769690655	0.00616681328607855	-0.0137725496722421	0.05150214592274678	-0.9709821428571428	0.5192743764172336
1684.600830078125	-2.05399224561911	-9.181480279564012	2.338000072115049	-0.7177421451370031	0.3326409763761723	-0.7371057130981565	0.05150214592274678	-0.9709821428571428	0.5192743764172336
1688.507080078125	-2.153419517095128	-9.160283986647231	2.076645587063793	-1.391977418611404	-0.7477072537866071	-0.7397869362660168	0.05150214592274678	-0.9709821428571428	0.5192743764172336
1692.413330078125	-1.950855860979322	-9.323925784824553	2.228443240789316	-1.402422050948042	-1.127727693965989	-1.095907854726783	0.05150214592274678	-0.9709821428571428	0.5192743764172336
1696.319580078125	-1.716342394529321	-9.528291121509254	2.246484350891263	-0.7064333416423392	-0.7538740670726856	-0.7260143865937746	0.05793991416309013	-0.984375	0.5396825396825397
1700.225830078125	-2.082006678805688	-9.302412256444269	2.078218900976981	-0.7064333416423392	-0.7538740670726856	-0.7260143865937746	0.05793991416309013	-0.984375	0.5396825396825397
1704.132080078125	-1.869503527884907	-9.193426176842365	2.256475237470267	-1.730979855931049	-1.106795528293187	-0.7429761022673438	0.05793991416309013	-0.984375	0.5396825396825397
1708.038330078125	-1.705097841388945	-9.073858112495202	2.142437200118975	-0.6855440769690655	0.00616681328607855	-0.0137725496722421	0.06223175965665236	-0.9955357142857142	0.546485260770975
1711.944580078125	-1.767403513099702	-9.123740106283146	2.25055539160281	-1.37776318510988	-0.7298584947568444	-0.3799689089704565	0.06223175965665236	-0.9955357142857142	0.546485260770975
1715.850830078125	-1.931514248331006	-9.061492938324774	2.335098302488393	-0.3503112408143086	0.727426768942278	-0.01428049250570896	0.06223175965665236	-0.9955357142857142	0.546485260770975
1719.757080078125	-2.133152646370011	-9.261496756364586	2.090774841082772	-1.39951662094118	-0.02336389148736843	-0.7471811539356047	0.06223175965665236	-0.9955357142857142	0.546485260770975
1723.663330078125	-1.866473206672676	-9.193456480054486	1.953443116247236	-1.046299950120011	0.3535731420489744	-0.3841739606387173	0.06652360515021459	-0.9665178571428571	0.5396825396825397
1727.569580078125	-2.002314961735575	-8.929471799877597	2.272312500088153	-1.035855317783374	0.7335935822283565	-0.02805304217795105	0.06652360515021459	-0.9665178571428571	0.5396825396825397
1731.475830078125	-1.9615064711621	-9.253112208015652	2.27309609580189	-0.6855440769690655	0.00616681328607855	-0.0137725496722421	0.06652360515021459	-0.9665178571428571	0.5396825396825397
1735.382080078125	-2.031335461564614	-9.39382805952577	2.113137993196131	-1.042530348955123	-0.008598539100644939	-0.3804768518039234	0.05150214592274678	-0.9776785714285714	0.54421768707483
1739.288330078125	-2.103663456860148	-9.241589628057664	2.203080379892298	-1.734749457095937	-0.7446238471435678	-0.7466732111021378	0.05150214592274678	-0.9776785714285714	0.54421768707483
1743.194580078125	-1.879475346116146	-9.243831509165105	2.233248897328882	-0.7035279116354782	0.3504897354059351	-0.3772876858025963	0.05150214592274678	-0.9776785714285714	0.54421768707483
1747.100830078125	-1.961144852830774	-9.182408753491895	2.236934262669275	-0.6930832792988414	0.7305101755853173	-0.02116676734183	0.05150214592274678	-0.9776785714285714	0.54421768707483
1751.007080078125	-1.91817675334005	-9.233343484991853	2.021756966658065	-0.7035279116354782	0.3504897354059351	-0.3772876858025963	0.06652360515021459	-0.9866071428571428	0.54421768707483
1754.913330078125	-1.797421998714635	-9.103237901224977	2.191179463300239	-0.7072975128003661	0.7126614165555545	-0.3809847946373902	0.06652360515021459	-0.9866071428571428	0.54421768707483
1758.819580078125	-1.840089086298278	-9.385639513177422	2.376255568603295	-1.053839152449787	1.077916504348213	-0.3915681783083053	0.06652360515021459	-0.9866071428571428	0.54421768707483
1762.725830078125	-1.805100873895287	-9.103161112473169	1.938658818100095	-0.7006224816286173	1.454853537884556	-0.02856098501141791	0.03004291845493562	-0.9598214285714285	0.5532879818594104
1766.632080078125	-2.000523031792077	-9.222419012106325	2.093119505738267	-0.3616200443089725	1.813941812391136	-0.02537181901009081	0.03004291845493562	-0.9598214285714285	0.5532879818594104
1770.538330078125	-2.042153749521137	-9.211901694828022	2.174558625583046	-1.064283784786424	0.697896064168831	-0.7476890967690715	0.03004291845493562	-0.9598214285714285	0.5532879818594104
1774.444580078125	-2.043283049226228	-9.181587371527939	2.287488596092162	-0.7110671139652541	1.074833097705174	-0.3846819034721842	0.03004291845493562	-0.9598214285714285	0.5532879818594104
1778.350830078125	-2.123811134950916	-9.170681080569684	2.177031862438547	-0.714836715130142	1.437004778854793	-0.3883790123069781	0.05579399141630902	-0.9732142857142857	0.5283446712018141
1782.257080078125	-2.074174267350283	-9.221682499750742	2.315385918701825	-0.3825093089822462	1.053900932032372	-0.7376136559316233	0.05579399141630902	-0.9732142857142857	0.5283446712018141
1786.163330078125	-1.960973134628748	-9.131905420168865	2.219762442466636	-1.064283784786424	0.697896064168831	-0.7476890967690715	0.05579399141630902	-0.9732142857142857	0.5283446712018141
1790.069580078125	-1.888948171454438	-9.284140821315761	2.160123267892772	-0.725281347466779	1.056984338675411	-0.7444999307677445	0.04291845493562232	-0.9821428571428571	0.526077097505669
1793.975830078125	-1.928780898597575	-9.071621281923116	2.06176332914522	-0.725281347466779	1.056984338675411	-0.7444999307677445	0.04291845493562232	-0.9821428571428571	0.526077097505669
1797.882080078125	-1.917857559505695	-9.091932535516056	1.989837583222573	-1.064283784786424	0.697896064168831	-0.7476890967690715	0.04291845493562232	-0.9821428571428571	0.526077097505669
1801.788330078125	-1.816488862239708	-8.981835111377606	2.05704948927694	-0.725281347466779	1.056984338675411	-0.7444999307677445	0.04291845493562232	-0.9821428571428571	0.526077097505669
1805.694580078125	-1.866307549113074	-9.132852076024022	1.936877360287044	-0.3578504431440845	1.451770131241517	-0.02167471017529686	0.05793991416309013	-0.9799107142857142	0.5192743764172336
1809.600830078125	-1.981377379915485	-8.970085216099838	2.219370644609768	-0.7006224816286173	1.454853537884556	-0.02856098501141791	0.05793991416309013	-0.9799107142857142	0.5192743764172336
1813.507080078125	-2.051822535631153	-9.262310057471973	2.121029073319359	-1.074728417123061	0.3178756239894489	-1.103810015229838	0.05793991416309013	-0.9799107142857142	0.5192743764172336
1817.413330078125	-2.192856282266533	-9.271000730106628	1.938689451143098	-1.749827861755489	0.7040628774549096	-0.7614616464413136	0.0815450643776824	-0.9508928571428571	0.5283446712018141
1821.319580078125	-2.153593255511296	-9.03907012805095	2.09401942868058	-0.6930832792988414	0.7305101755853173	-0.02116676734183	0.0815450643776824	-0.9508928571428571	0.5283446712018141
1825.225830078125	-1.898756352340217	-9.102224557688722	2.120533193205344	-1.035855317783374	0.7335935822283565	-0.02805304217795105	0.0815450643776824	-0.9508928571428571	0.5283446712018141
1829.132080078125	-2.093134059525858	-9.110381790717875	2.170548809728645	-0.3607558731509455	0.3474063287628959	-0.3704014109664752	0.0815450643776824	-0.9508928571428571	0.5283446712018141
1833.038330078125	-2.185427913639426	-9.190266932984819	2.216260751697679	-1.378627356267907	0.7366769888713958	-0.0349393170140721	0.04506437768240344	-0.9754464285714285	0.5283446712018141
1836.944580078125	-1.989411812785039	-9.050812952579221	2.002405768299793	-1.738519058260825	-0.3824521659939485	-0.7503703199369317	0.04506437768240344	-0.9754464285714285	0.5283446712018141
1840.850830078125	-2.145241649021528	-9.150264755226958	2.279266942969211	-1.717629793587552	0.3775887143648157	-0.03812848301539919	0.04506437768240344	-0.9754464285714285	0.5283446712018141
1844.757080078125	-2.070923742796631	-9.252018035299308	1.990333463336587	-1.371088153938131	0.0123336265721571	-0.02754509934448419	0.0536480686695279	-0.9598214285714285	0.5351473922902494
1848.663330078125	-2.040072928955405	-9.312932604043782	1.966476569009899	-1.371088153938131	0.0123336265721571	-0.02754509934448419	0.0536480686695279	-0.9598214285714285	0.5351473922902494
1852.569580078125	-2.214959527646261	-9.139466566339699	2.108197662585275	-1.360643521601494	0.3923540667515392	0.3285758191162821	0.0536480686695279	-0.9598214285714285	0.5351473922902494
1856.475830078125	-2.032656681613147	-9.211996665507103	2.245259998049372	-1.363548951608355	-0.7120097357270816	-0.02015088167489629	0.0536480686695279	-0.9598214285714285	0.5351473922902494
1860.382080078125	-2.286929945038751	-9.078140801559716	2.162382258977125	-1.356873920436606	0.03018238560191986	0.332272927951076	0.04721030042918455	-0.96875	0.5396825396825397
1864.288330078125	-1.991741119690173	-9.040688649409161	2.235336458813229	-1.356873920436606	0.03018238560191986	0.332272927951076	0.04721030042918455	-0.96875	0.5396825396825397
1868.194580078125	-1.929166759498599	-9.101920453617138	2.100349419247619	-1.37776318510988	-0.7298584947568444	-0.3799689089704565	0.04721030042918455	-0.96875	0.5396825396825397
1872.100830078125	-2.062196376476548	-8.979378036235236	2.138004994593563	-1.371088153938131	0.0123336265721571	-0.02754509934448419	0.06652360515021459	-0.96875	0.526077097505669
1876.007080078125	-1.919378780754235	-9.081816313202561	2.141959708076534	-1.385302387439656	-0.005515132457605664	-0.3873631266400444	0.06652360515021459	-0.96875	0.526077097505669
1879.913330078125	-1.972264152694378	-9.17219655039225	2.328456085764345	-1.742288659425713	-0.02028048484432915	-0.7540674287717257	0.06652360515021459	-0.96875	0.526077097505669
1883.819580078125	-2.185672359550546	-9.119557417818639	2.24070534280967	-1.39951662094118	-0.02336389148736843	-0.7471811539356047	0.06652360515021459	-0.96875	0.526077097505669
1887.725830078125	-2.076784384021085	-9.080242257169893	2.576397585781928	-1.060514183621536	0.3357243830192116	-0.7439919879342776	0.06652360515021459	-0.96875	0.526077097505669
1891.632080078125	-1.920572727311853	-9.112107404040016	2.261354363838408	-0.6930832792988414	0.7305101755853173	-0.02116676734183	0.06652360515021459	-0.96875	0.526077097505669
1895.538330078125	-1.888847160747364	-9.284141831422831	2.150022197185338	-2.113489164913295	-0.05289459626081541	-1.480589758198967	0.06652360515021459	-0.96875	0.526077097505669
1899.444580078125	-1.928821302880404	-9.172630978890391	2.065803757428193	-0.7110671139652541	1.074833097705174	-0.3846819034721842	0.06223175965665236	-0.9754464285714285	0.5328798185941043
1903.350830078125	-1.805674614711469	-9.325377597287229	1.996032899718322	-0.7006224816286173	1.454853537884556	-0.02856098501141791	0.06223175965665236	-0.9754464285714285	0.5328798185941043
1907.257080078125	-1.92891019230263	-9.192832110198188	2.074692699650735	-1.057608753614675	1.440088185497832	-0.3952652871430992	0.06223175965665236	-0.9754464285714285	0.5328798185941043
1911.163330078125	-1.910118077900799	-9.193020031342206	2.236297585998256	-1.410825424435844	1.06315115196149	-0.7582724804399865	0.06223175965665236	-0.9754464285714285	0.5328798185941043
1915.069580078125	-1.946490178219569	-9.192656310339018	1.791874964814003	-1.04339452011315	1.457936944527595	-0.03544725984753896	0.06223175965665236	-0.9754464285714285	0.5328798185941043
1918.975830078125	-2.092574460208666	-9.201296477620138	2.114588878009459	-1.047164121278038	1.820108625677215	-0.03914436868233291	0.06223175965665236	-0.9754464285714285	0.5328798185941043
1922.882080078125	-2.083243049860279	-9.261995852329683	2.201856006435977	-1.392841589769432	0.718828229841633	-0.3947573443096323	0.06223175965665236	-0.9754464285714285	0.5328798185941043
1926.788330078125	-2.020901014294975	-9.272720282786345	2.090101429497466	-1.032949887776513	1.837957384706977	0.3206736586132273	0.04291845493562232	-0.9754464285714285	0.546485260770975
1930.694580078125	-2.033276887354583	-9.020071271530497	2.307280572193019	-0.6901778492919806	1.834873978063938	0.3275599334493484	0.04291845493562232	-0.9754464285714285	0.546485260770975
1934.600830078125	-2.093780528051134	-9.211385427042723	2.235195662256225	-1.039624918948262	1.095765263377976	-0.031750151012745	0.04291845493562232	-0.9754464285714285	0.546485260770975
1938.507080078125	-1.979704642606334	-9.232728206099191	2.052096913694655	-1.042530348955123	-0.008598539100644939	-0.3804768518039234	0.04291845493562232	-0.9754464285714285	0.546485260770975
1942.413330078125	-1.950084139177274	-9.263327441436513	2.151271060584517	-1.374857755103019	0.3745053077217764	-0.03124220817927815	0.04291845493562232	-0.9754464285714285	0.546485260770975
1946.319580078125	-2.042058799456487	-9.20180163422766	2.165063619118058	-1.02164108428185	0.7514423412581193	0.3317649851176092	0.04291845493562232	-0.9754464285714285	0.546485260770975
1950.225830078125	-2.093461334216779	-9.069974477566923	2.203276278820733	-1.371088153938131	0.0123336265721571	-0.02754509934448419	0.04291845493562232	-0.9754464285714285	0.546485260770975
1954.132080078125	-2.114053459418674	-9.100071586617934	2.221672472479692	-1.003657249615437	0.4071194191382627	0.6952801212479633	0.05150214592274678	-0.9598214285714285	0.5147392290249433
1958.038330078125	-2.052248800815006	-9.393618926133266	2.163655591704732	-0.6750994446324288	0.3861872534654606	0.3423483687885241	0.05150214592274678	-0.9598214285714285	0.5147392290249433
1961.944580078125	-1.961177176257038	-8.96018620803541	2.240166605295654	-0.6750994446324288	0.3861872534654606	0.3423483687885241	0.05150214592274678	-0.9598214285714285	0.5147392290249433
1965.850830078125	-2.17582781481022	-9.362080105690282	2.276659032042422	-0.6855440769690655	0.00616681328607855	-0.0137725496722421	0.05150214592274678	-0.9598214285714285	0.5147392290249433
1969.757080078125	-1.930770809526939	-9.122106433318875	2.260754422081676	-1.381532786274768	-0.367686813607225	-0.3836660178052504	0.05150214592274678	-0.9598214285714285	0.5147392290249433
1973.663330078125	-2.112247387976185	-9.07988762713034	2.041065328230766	-1.381532786274768	-0.367686813607225	-0.3836660178052504	0.05150214592274678	-0.9598214285714285	0.5147392290249433
1977.569580078125	-1.932096070003755	-9.101891160512086	2.393280469763215	-1.028316115453598	0.009250219929117825	-0.02065882450836315	0.05150214592274678	-0.9598214285714285	0.5147392290249433
1981.475830078125	-2.040660811270578	-9.343229755523659	2.025264800527167	-0.6893136781339535	0.3683384944356979	-0.01746965850703605	0.04291845493562232	-0.953125	0.5306122448979592
1985.382080078125	-1.93005161329257	-9.142315645483238	2.188834798644744	-0.6930832792988414	0.7305101755853173	-0.02116676734183	0.04291845493562232	-0.953125	0.5306122448979592
1989.288330078125	-2.065230738117061	-9.140963854234991	2.441441158644891	-0.6968528804637294	1.092681856734937	-0.02486387617662396	0.04291845493562232	-0.953125	0.5306122448979592
1993.194580078125	-1.960025654196391	-9.364238127296421	2.125014399230902	-1.035855317783374	0.7335935822283565	-0.02805304217795105	0.04291845493562232	-0.953125	0.5306122448979592
1997.100830078125	-2.316609034677914	-9.118248051067363	2.069066733097575	-0.6968528804637294	1.092681856734937	-0.02486387617662396	0.04291845493562232	-0.953125	0.5306122448979592
2001.007080078125	-1.533861769651756	-9.055368453010553	2.365768801910276	-1.374857755103019	0.3745053077217764	-0.03124220817927815	0.04291845493562232	-0.953125	0.5306122448979592
2004.913330078125	-1.868384329250523	-9.375255550646891	2.144555374031894	-1.056744582456648	-0.0264472981304077	-0.7402948790994835	0.04291845493562232	-0.953125	0.5306122448979592
2008.819580078125	-2.093277494729904	-9.039673285658763	2.184892330133202	-1.046299950120011	0.3535731420489744	-0.3841739606387173	0.03648068669527897	-0.9821428571428571	0.5374149659863946
2012.725830078125	-2.041800212046376	-9.464430482728023	2.139204878107026	-1.046299950120011	0.3535731420489744	-0.3841739606387173	0.03648068669527897	-0.9821428571428571	0.5374149659863946
2016.632080078125	-2.041117379666554	-9.424033270647781	2.07092164012477	-1.746058260590601	0.3418911963052902	-0.7577645376065196	0.03648068669527897	-0.9821428571428571	0.5374149659863946
2020.538330078125	-2.008902921279824	-9.232436223312455	1.910700291247718	-1.003657249615437	0.4071194191382627	0.6952801212479633	0.03648068669527897	-0.9821428571428571	0.5374149659863946
2024.444580078125	-2.184306694790901	-9.038762993658155	2.104138866845158	-1.403286222106068	0.3388077896622509	-0.7508782627703986	0.03648068669527897	-0.9821428571428571	0.5374149659863946
2028.350830078125	-2.061937789066437	-9.2420068847356	2.112146253582531	-0.3360970073127839	0.7452755279720408	0.3455375347898513	0.03648068669527897	-0.9821428571428571	0.5374149659863946
2032.257080078125	-1.889596660193855	-9.213427265721295	2.224972141834501	-1.39951662094118	-0.02336389148736843	-0.7471811539356047	0.03648068669527897	-0.9821428571428571	0.5374149659863946
2036.163330078125	-2.012692843009253	-9.313206404903243	2.289692464190654	-1.371088153938131	0.0123336265721571	-0.02754509934448419	0.05793991416309013	-0.96875	0.5328798185941043
2040.069580078125	-2.082131932082461	-9.262006963507462	2.0907442286542	-1.042530348955123	-0.008598539100644939	-0.3804768518039234	0.05793991416309013	-0.96875	0.5328798185941043
2043.975830078125	-2.092673450701599	-9.37301265943238	2.124487927302745	-1.381532786274768	-0.367686813607225	-0.3836660178052504	0.05793991416309013	-0.96875	0.5328798185941043
2047.882080078125	-2.103330121526802	-9.292098011916046	2.169746846557765	-1.042530348955123	-0.008598539100644939	-0.3804768518039234	0.05793991416309013	-0.96875	0.5328798185941043
2051.788330078125	-2.09277042098039	-9.21139552811343	2.134184955181881	-0.9752287826123871	0.4428169371977883	1.414916175839084	0.05793991416309013	-0.96875	0.5328798185941043
2055.694580078125	-2.030796064388837	-9.282722342386418	2.059198275618432	-0.6750994446324288	0.3861872534654606	0.3423483687885241	0.05793991416309013	-0.96875	0.5328798185941043
2059.600830078125	-1.868701502870736	-9.183333186991495	2.176272736053238	-0.6750994446324288	0.3861872534654606	0.3423483687885241	0.05793991416309013	-0.96875	0.5328798185941043
2063.507080078125	-2.022412134472807	-9.111089009968406	2.241213447280684	-1.367318552773243	-0.3498380545774623	-0.02384799050969024	0.04291845493562232	-0.9754464285714285	0.5238095238095238
2067.413330078125	-1.951498289076315	-9.263313299937522	2.292686050488598	-1.367318552773243	-0.3498380545774623	-0.02384799050969024	0.04291845493562232	-0.9754464285714285	0.5238095238095238
2071.319580078125	-1.950480101149005	-8.940091158584471	2.19086725775766	-1.017871483116962	0.3892706601084999	0.3354620939524031	0.04291845493562232	-0.9754464285714285	0.5238095238095238
2075.225830078125	-2.012127183049637	-8.909171657462434	2.233126468229022	-1.02454651428871	-0.3529214612205015	-0.01696171567356919	0.04291845493562232	-0.9754464285714285	0.5238095238095238
2079.132080078125	-2.165435792037552	-9.170264833998818	2.257864918040879	-1.028316115453598	0.009250219929117825	-0.02065882450836315	0.04291845493562232	-0.9754464285714285	0.5238095238095238
2083.038330078125	-1.961920615061105	-9.404623218091814	2.314510485702371	-1.031221545460459	-1.095113582549503	-0.3693855252995415	0.04291845493562232	-0.9754464285714285	0.5238095238095238
2086.944580078125	-1.95999737119841	-9.24302628891428	2.12218609943282	-1.034991146625347	-0.7329419013998837	-0.3730826341343355	0.04291845493562232	-0.9754464285714285	0.5238095238095238
2090.850830078125	-1.906968564054221	-9.223354556783702	1.921346201340453	-0.6750994446324288	0.3861872534654606	0.3423483687885241	0.04506437768240344	-0.9799107142857142	0.5306122448979592
2094.757080078125	-1.929570802326896	-9.101916413188855	2.140753702077356	-0.6780048746392896	-0.7181765490131601	-0.006378332002654191	0.04506437768240344	-0.9799107142857142	0.5306122448979592
2098.663330078125	-1.950983134470235	-9.111803299968432	2.241170589880683	-0.6922191081408143	-0.7360253080429229	-0.3661963592982144	0.04506437768240344	-0.9799107142857142	0.5306122448979592
2102.569580078125	-1.921588895025022	-9.101996232261872	2.362971135155197	-0.6855440769690655	0.00616681328607855	-0.0137725496722421	0.04506437768240344	-0.9799107142857142	0.5306122448979592
2106.475830078125	-2.052343750879656	-8.898668481683124	2.17315059816972	-0.6893136781339535	0.3683384944356979	-0.01746965850703605	0.04506437768240344	-0.9799107142857142	0.5306122448979592
2110.382080078125	-1.981011721155876	-9.242816145414707	2.182804768648856	-0.3503112408143086	0.727426768942278	-0.01428049250570896	0.04506437768240344	-0.9799107142857142	0.5306122448979592
2114.288330078125	-1.888802716036251	-9.526566518294185	2.145577726074066	-0.6997583104705902	-0.01168194574368421	-0.3735905769678023	0.04506437768240344	-0.9799107142857142	0.5306122448979592
2118.194580078125	-1.96964393495287	-9.162121742468655	2.066434311613497	-0.6968528804637294	1.092681856734937	-0.02486387617662396	0.04721030042918455	-0.9776785714285714	0.5170068027210885
2122.100830078125	-2.010508991522306	-9.080905011094879	2.071307315495924	-0.3503112408143086	0.727426768942278	-0.01428049250570896	0.04721030042918455	-0.9776785714285714	0.5170068027210885
2126.007080078125	-2.051941728265501	-9.2320058352426	2.132948336754132	-0.7139725439721151	-0.02953070477344698	-0.7334086042633625	0.04721030042918455	-0.9776785714285714	0.5170068027210885
2129.913330078125	-1.840436563130614	-9.143211795984856	2.411003251836869	-1.056744582456648	-0.0264472981304077	-0.7402948790994835	0.06437768240343347	-0.9553571428571428	0.5419501133786848
2133.819580078125	-2.07630357305541	-9.039843024875509	2.528316489214541	-0.3503112408143086	0.727426768942278	-0.01428049250570896	0.06437768240343347	-0.9553571428571428	0.5419501133786848
2137.725830078125	-1.807801900202455	-9.31525531433131	2.208761448816889	-0.7035279116354782	0.3504897354059351	-0.3772876858025963	0.06437768240343347	-0.9553571428571428	0.5419501133786848
2141.632080078125	-1.979799592670984	-9.242828266699556	2.061591920159644	-1.032085716618486	0.3714219010787372	-0.0243559333431571	0.06437768240343347	-0.9553571428571428	0.5419501133786848
2145.538330078125	-2.103766487781364	-9.069871426031279	2.213383472013882	-1.05297498129176	-0.388618979280027	-0.7365977702646896	0.04291845493562232	-0.9665178571428571	0.5283446712018141
2149.444580078125	-1.990579496558818	-8.788175013115222	2.119174145677734	-0.3427720384845327	0.003083406643039275	-0.006886274836121049	0.04291845493562232	-0.9665178571428571	0.5283446712018141
2153.350830078125	-1.990587577415384	-9.11140725553898	2.119982231334328	-0.3427720384845327	0.003083406643039275	-0.006886274836121049	0.04291845493562232	-0.9665178571428571	0.5283446712018141
2157.257080078125	-2.154227602751722	-9.160275905790666	2.157454152723268	-1.049205380126872	-0.7507906604296464	-0.7329006614298957	0.06652360515021459	-0.9553571428571428	0.546485260770975
2161.163330078125	-2.003036178184086	-9.242595900844425	2.344434144939234	-0.6780048746392896	-0.7181765490131601	-0.006378332002654191	0.06652360515021459	-0.9553571428571428	0.546485260770975
2165.069580078125	-2.030654649398933	-9.181713655526215	2.045056776628023	-0.328557804983008	0.02093216567280204	0.3529317524594392	0.06652360515021459	-0.9553571428571428	0.546485260770975
2168.975830078125	-2.156094280618456	-9.079449158203918	2.344121939396655	-1.020776913123822	-0.7150931423701209	-0.01326460683877524	0.06652360515021459	-0.9553571428571428	0.546485260770975
2172.882080078125	-2.060028686702732	-9.393541127274387	1.921236017212022	0.02175343583130069	-0.7064946032694759	0.3672122449651481	0.0536480686695279	-0.9575892857142857	0.5419501133786848
2176.788330078125	-2.072667187600734	-9.039879388730055	2.164677943746904	-0.32478820381812	-0.3412395154768173	0.3566288612942332	0.0536480686695279	-0.9575892857142857	0.5419501133786848
2180.694580078125	-1.859608477791044	-9.183424117242291	2.287378391349301	-0.3390024373196448	-0.35908827450658	-0.003189166001327095	0.0536480686695279	-0.9575892857142857	0.5419501133786848
2184.600830078125	-1.938490088990421	-9.22303934153434	2.012274205164506	-1.041666177797096	-1.475134022728885	-0.7255064437603078	0.06008583690987124	-0.9933035714285714	0.5306122448979592
2188.507080078125	-1.90911403147248	-9.182929061705478	2.135892943166358	-1.034991146625347	-0.7329419013998837	-0.3730826341343355	0.06008583690987124	-0.9933035714285714	0.5306122448979592
2192.413330078125	-2.031426371200981	-9.242311998914255	2.122228956832822	-0.6922191081408143	-0.7360253080429229	-0.3661963592982144	0.06008583690987124	-0.9933035714285714	0.5306122448979592
2196.319580078125	-2.091889607614702	-9.332616457459208	2.046103618613054	-0.3427720384845327	0.003083406643039275	-0.006886274836121049	0.06008583690987124	-0.9933035714285714	0.5306122448979592
2200.225830078125	-2.206436202954468	-9.200157860192681	2.276273356671268	-0.6855440769690655	0.00616681328607855	-0.0137725496722421	0.05579399141630902	-0.9977678571428571	0.5192743764172336
2204.132080078125	-2.207595805871681	-9.119338183355426	2.392233648392614	-0.3674309043226944	-0.3947857925661056	-0.7228252205924476	0.05579399141630902	-0.9977678571428571	0.5192743764172336
2208.038330078125	-2.093224969162225	-8.958865730106359	2.179639773365336	-0.3569862719860575	-0.01476535238672349	-0.3667043021316813	0.05579399141630902	-0.9977678571428571	0.5192743764172336
2211.944580078125	-1.869194435121259	-9.203530277871012	2.225565961105518	-0.3390024373196448	-0.35908827450658	-0.003189166001327095	0.03433476394849785	-0.9776785714285714	0.5351473922902494
2215.850830078125	-1.80704836032768	-9.224353758820968	2.133407461339429	-0.003769601164887951	0.3621716811496193	-0.003697108834793953	0.03433476394849785	-0.9776785714285714	0.5351473922902494
2219.757080078125	-2.091509807356102	-9.292216215057753	2.008123592753101	-0.3607558731509455	0.3474063287628959	-0.3704014109664752	0.03433476394849785	-0.9776785714285714	0.5351473922902494
2223.663330078125	-1.930467777405716	-9.122109463640086	2.230451209959373	-0.3712005054875823	-0.03261411141648625	-0.7265223294272415	0.03433476394849785	-0.9776785714285714	0.5351473922902494
2227.569580078125	-2.122166680639745	-9.049485403900674	2.012586431321516	-0.007539202329775903	0.7243433622992387	-0.007394217669587907	0.04935622317596566	-0.96875	0.5306122448979592
2231.475830078125	-1.972456073037819	-9.020679479673664	2.34764812010847	-0.3465416396494207	0.3652550877926586	-0.010583383670915	0.04935622317596566	-0.96875	0.5306122448979592
2235.382080078125	-2.03082636760096	-9.232216988849245	2.062228596830662	-0.3532166708211696	-0.3769370335363428	-0.3630071932968873	0.04935622317596566	-0.96875	0.5306122448979592
2239.288330078125	-2.214933264862422	-9.351588041088752	2.105571384201342	-0.6959887093057022	-0.3738536268933035	-0.3698934681330084	0.04721030042918455	-0.9821428571428571	0.5192743764172336
2243.194580078125	-2.040151717306923	-9.181618684847134	1.974355404161698	0.3494470696562816	0.7391087146859622	0.3593100844620934	0.04721030042918455	-0.9821428571428571	0.5192743764172336
2247.100830078125	-1.980722830533644	-9.050899842401735	2.153915706425593	0.01044463233663683	0.3800204401793821	0.3561209184607663	0.04721030042918455	-0.9821428571428571	0.5192743764172336
2251.007080078125	-1.949605348425741	-9.051211017222816	2.103391985431278	-0.3427720384845327	0.003083406643039275	-0.006886274836121049	0.04721030042918455	-0.9821428571428571	0.5192743764172336
2254.913330078125	-1.850008378961838	-9.355237289947757	2.347776671694044	0.02088926467327366	0.7600408803587642	0.7122418369215325	0.05579399141630902	-0.9866071428571428	0.5215419501133787
2258.819580078125	-1.96954898488822	-9.152021681868291	2.056939305148509	-0.328557804983008	0.02093216567280204	0.3529317524594392	0.05579399141630902	-0.9866071428571428	0.5215419501133787
2262.725830078125	-2.317190856350663	-9.158646273254675	2.127248900372397	-0.6675602423026528	-0.3381561088337781	0.3497425864581121	0.05579399141630902	-0.9866071428571428	0.5215419501133787
2266.632080078125	-2.032187991932322	-9.151395291797851	2.198391029966877	0.02465886583816162	0.3978691992091449	0.7159389457563266	0.05150214592274678	-0.9754464285714285	0.5215419501133787
2270.538330078125	-2.193696691349391	-9.048770103793577	2.022730359428952	-0.3143435714814832	0.03878092470256481	0.7127497797549994	0.05150214592274678	-0.9754464285714285	0.5215419501133787
2274.444580078125	-1.960789295141873	-9.101604228260703	2.201378493779106	-0.3210186026532321	-0.7034111966264366	0.3603259701290271	0.05150214592274678	-0.9754464285714285	0.5215419501133787
2278.350830078125	-1.969506560391248	-9.222729176820332	2.052696855451387	-0.3210186026532321	-0.7034111966264366	0.3603259701290271	0.05150214592274678	-0.9754464285714285	0.5215419501133787
2282.257080078125	-1.784930973448962	-9.042756750871572	1.962485099998211	-0.6600210399728769	-1.062499471133017	0.3571368041277	0.04506437768240344	-0.9799107142857142	0.5238095238095238
2286.163330078125	-1.858766048494044	-9.07232143042415	2.203135461649299	-0.6600210399728769	-1.062499471133017	0.3571368041277	0.04506437768240344	-0.9799107142857142	0.5238095238095238
2290.069580078125	-2.052192234819044	-9.151195249368984	2.157998992108569	-1.013237710794046	-1.43943650466936	-0.005870389169187333	0.04506437768240344	-0.9799107142857142	0.5238095238095238
2293.975830078125	-2.044899220539417	-9.181571209814809	2.449105727411112	-0.6742352734744016	-1.080348230162779	-0.002681223167860238	0.06008583690987124	-0.9732142857142857	0.5328798185941043
2297.882080078125	-2.073935882081588	-9.282290944209489	2.29154739183228	-0.6742352734744016	-1.080348230162779	-0.002681223167860238	0.06008583690987124	-0.9732142857142857	0.5328798185941043
2301.788330078125	-1.754399353442091	-9.245082269091844	1.970547589107015	-0.32478820381812	-0.3412395154768173	0.3566288612942332	0.06008583690987124	-0.9732142857142857	0.5328798185941043
2305.694580078125	-2.071917688154242	-9.110593954431591	2.089727999097741	-0.6817744758041775	-0.3560048678635408	-0.01007544083744814	0.06008583690987124	-0.9732142857142857	0.5328798185941043
2309.600830078125	-1.979498580763903	-9.071114105101453	2.031490729451489	-1.027451944295571	-1.457285263699122	-0.3656884164647475	0.04935622317596566	-0.9665178571428571	0.5147392290249433
2313.507080078125	-1.857224625104089	-9.284458056779263	2.048993122653851	-0.3352328361547569	-0.7212599556561994	0.000507942833466858	0.04935622317596566	-0.9665178571428571	0.5147392290249433
2317.413330078125	-2.12334042505595	-9.281796898779746	2.129960872941903	-1.05297498129176	-0.388618979280027	-0.7365977702646896	0.04935622317596566	-0.9665178571428571	0.5147392290249433
2321.319580078125	-1.663974197409398	-8.912653187318838	2.111705455225517	-1.031221545460459	-1.095113582549503	-0.3693855252995415	0.04506437768240344	-0.9955357142857142	0.5147392290249433
2325.225830078125	-1.938716352974267	-9.18263303849046	2.034900603549159	-0.6893136781339535	0.3683384944356979	-0.01746965850703605	0.04506437768240344	-0.9955357142857142	0.5147392290249433
2329.132080078125	-2.174462150050575	-9.281285681529798	2.14009255607791	-0.6788690457973167	0.7483589346150801	0.3386512599537302	0.04506437768240344	-0.9955357142857142	0.5147392290249433
2333.038330078125	-2.186254181223294	-9.159955640005951	2.298887510084492	-1.046299950120011	0.3535731420489744	-0.3841739606387173	0.04506437768240344	-0.9955357142857142	0.5147392290249433
2336.944580078125	-2.08271577396935	-9.13068799377546	2.14912841734317	-0.3323274061478959	0.3831038468224214	0.3492346436246452	0.07296137339055794	-0.9642857142857142	0.5215419501133787
2340.850830078125	-2.033010219087907	-8.959467877607102	2.280613745525393	-0.6750994446324288	0.3861872534654606	0.3423483687885241	0.07296137339055794	-0.9642857142857142	0.5215419501133787
2344.757080078125	-2.276000545304447	-9.108553125860089	2.089850448812032	-1.038760747790235	-0.3707702202502642	-0.3767797429691294	0.07296137339055794	-0.9642857142857142	0.5215419501133787
2348.663330078125	-2.052079102827121	-9.171398400890922	2.146685792916242	-1.02454651428871	-0.3529214612205015	-0.01696171567356919	0.05150214592274678	-0.9754464285714285	0.5419501133786848
2352.569580078125	-2.010585759659683	-9.121308283817545	2.078984129233574	-1.013237710794046	-1.43943650466936	-0.005870389169187333	0.05150214592274678	-0.9754464285714285	0.5419501133786848
2356.475830078125	-2.031135460364607	-9.2221128878206	2.093137873195411	-1.014101881952074	0.02709897895888059	0.3391592027871971	0.05150214592274678	-0.9754464285714285	0.5419501133786848
2360.382080078125	-2.050933641408899	-9.060298744393993	2.032139651093937	-0.6675602423026528	-0.3381561088337781	0.3497425864581121	0.05150214592274678	-0.9754464285714285	0.5419501133786848
2364.288330078125	-2.142728502629519	-9.130087866488857	2.027952303768245	-0.9998876484505487	0.04494773798864335	0.6989772300827574	0.04291845493562232	-0.9665178571428571	0.526077097505669
2368.194580078125	-2.081507685912741	-9.292316236272187	2.028319611682255	-0.6675602423026528	-0.3381561088337781	0.3497425864581121	0.04291845493562232	-0.9665178571428571	0.526077097505669
2372.100830078125	-2.020701013094968	-9.101005111081173	2.070101309496746	-1.010332280787186	-0.3350727021907388	0.342856311621991	0.04291845493562232	-0.9665178571428571	0.526077097505669
2376.007080078125	-2.049875049198759	-9.141117411124176	1.926280430080025	-1.363548951608355	-0.7120097357270816	-0.02015088167489629	0.06008583690987124	-0.9508928571428571	0.5600907029478458
2379.913330078125	-2.009521106807119	-9.212228021255163	1.972518843977216	-0.9961180472856607	-0.317223943160976	0.7026743389175513	0.06008583690987124	-0.9508928571428571	0.5600907029478458
2383.819580078125	-1.908198874466386	-9.19303922337655	2.044377242557003	-0.6713298434675408	0.02401557231584131	0.3460454776233181	0.06008583690987124	-0.9508928571428571	0.5600907029478458
2387.725830078125	-1.958898374705441	-9.22283525867719	2.012286450135935	-1.353104319271718	-0.3319892955476995	0.33597003678587	0.06008583690987124	-0.9508928571428571	0.5600907029478458
2391.632080078125	-2.051513442867505	-9.27241415850062	2.09011979695461	-0.6713298434675408	0.02401557231584131	0.3460454776233181	0.04935622317596566	-0.9732142857142857	0.5215419501133787
2395.538330078125	-2.132279913860889	-9.200899423083616	2.003501590170539	-1.716765622429525	-1.088946769263424	-0.3831580749717836	0.04935622317596566	-0.9732142857142857	0.5215419501133787
2399.444580078125	-2.011848393498112	-8.86877040495391	2.205247513076503	-0.6817744758041775	-0.3560048678635408	-0.01007544083744814	0.04935622317596566	-0.9732142857142857	0.5215419501133787
2403.350830078125	-2.113724164513612	-9.312196091688199	2.188742981973456	-0.9998876484505487	0.04494773798864335	0.6989772300827574	0.05150214592274678	-0.9821428571428571	0.5215419501133787
2407.257080078125	-1.96143778388129	-9.030890672666239	2.266227367720834	-1.371088153938131	0.0123336265721571	-0.02754509934448419	0.05150214592274678	-0.9821428571428571	0.5215419501133787
2411.163330078125	-1.909560498797749	-9.112217526325155	2.180539675693219	-1.038760747790235	-0.3707702202502642	-0.3767797429691294	0.05150214592274678	-0.9821428571428571	0.5215419501133787
2415.069580078125	-1.867331797682808	-8.940922641619132	2.039302217260428	-1.367318552773243	-0.3498380545774623	-0.02384799050969024	0.05150214592274678	-0.9821428571428571	0.5215419501133787
2418.975830078125	-2.072244962845164	-9.070186641280641	2.122455468189829	-0.6750994446324288	0.3861872534654606	0.3423483687885241	0.05579399141630902	-0.9866071428571428	0.5238095238095238
2422.882080078125	-2.019660602812102	-9.151520565689053	1.966060281210172	-1.032085716618486	0.3714219010787372	-0.0243559333431571	0.05579399141630902	-0.9866071428571428	0.5238095238095238
2426.788330078125	-1.940827476752121	-9.031096775737531	2.246012981334537	-2.07752149558047	-0.7415404405005285	-0.7535594859382588	0.05579399141630902	-0.9866071428571428	0.5238095238095238
2430.694580078125	-2.081550110409712	-9.221608741320148	2.032562061379378	-1.02164108428185	0.7514423412581193	0.3317649851176092	0.0536480686695279	-0.9799107142857142	0.526077097505669
2434.600830078125	-1.930795052096637	-9.081702150489138	2.26317867905146	-1.02164108428185	0.7514423412581193	0.3317649851176092	0.0536480686695279	-0.9799107142857142	0.526077097505669
2438.507080078125	-2.060679195656291	-9.15111037976061	1.986286912567899	-1.731844027089076	0.359739955335053	-0.3979465103109594	0.0536480686695279	-0.9799107142857142	0.526077097505669
2442.413330078125	-2.020367677761622	-9.151513494939557	2.036767776162213	-1.728074425924188	-0.002431725814566389	-0.3942494014761655	0.0536480686695279	-0.9799107142857142	0.526077097505669
2446.319580078125	-2.072707591883564	-9.140889085697328	2.168718372029878	-1.035855317783374	0.7335935822283565	-0.02805304217795105	0.04935622317596566	-0.9866071428571428	0.5328798185941043
2450.225830078125	-2.052751834136237	-9.060280562466721	2.213958923827755	-1.032085716618486	0.3714219010787372	-0.0243559333431571	0.04935622317596566	-0.9866071428571428	0.5328798185941043
2454.132080078125	-2.154595281725473	-9.22087828960699	2.194222050098328	-1.028316115453598	0.009250219929117825	-0.02065882450836315	0.04935622317596566	-0.9866071428571428	0.5328798185941043
2458.038330078125	-1.960884245206522	-9.111704288861068	2.210873500244094	-1.014101881952074	0.02709897895888059	0.3391592027871971	0.03433476394849785	-0.984375	0.5351473922902494
2461.944580078125	-2.042208295302957	-9.120992058461113	2.180013203765061	-1.014101881952074	0.02709897895888059	0.3391592027871971	0.03433476394849785	-0.984375	0.5351473922902494
2465.850830078125	-2.184763263186877	-9.119566508782274	2.149795706442761	-0.6750994446324288	0.3861872534654606	0.3423483687885241	0.03433476394849785	-0.984375	0.5351473922902494
2469.757080078125	-2.052440721158447	-9.242101855414681	2.182847626048857	-1.7243048247593	-0.3646034069641857	-0.3905522926413715	0.03433476394849785	-0.984375	0.5351473922902494
2473.663330078125	-2.143273960447721	-9.231092512920776	2.08249808558839	-1.014101881952074	0.02709897895888059	0.3391592027871971	0.03862660944206009	-0.9732142857142857	0.526077097505669
2477.569580078125	-1.889709792185778	-9.193224114199356	2.236285341026827	-1.017871483116962	0.3892706601084999	0.3354620939524031	0.03862660944206009	-0.9732142857142857	0.526077097505669
2481.475830078125	-1.939391104497524	-9.40484851319745	2.10237575587482	-1.02454651428871	-0.3529214612205015	-0.01696171567356919	0.03862660944206009	-0.9732142857142857	0.526077097505669
2485.382080078125	-1.795999767959028	-9.285070305350715	2.048956387739564	-1.7243048247593	-0.3646034069641857	-0.3905522926413715	0.04721030042918455	-0.9642857142857142	0.5487528344671202
2489.288330078125	-2.07369345638461	-9.181283267456356	2.267304822134437	-1.017871483116962	0.3892706601084999	0.3354620939524031	0.04721030042918455	-0.9642857142857142	0.5487528344671202
2493.194580078125	-2.011450411312239	-9.363723879725262	2.165449294489212	-0.6750994446324288	0.3861872534654606	0.3423483687885241	0.04721030042918455	-0.9642857142857142	0.5487528344671202
2497.100830078125	-2.011163540904148	-9.00009038479298	2.136762253680098	-1.032085716618486	0.3714219010787372	-0.0243559333431571	0.04721030042918455	-0.9642857142857142	0.5487528344671202
2501.007080078125	-1.959645853937791	-9.323837884894967	2.087034373370949	-1.042530348955123	-0.008598539100644939	-0.3804768518039234	0.06437768240343347	-0.9799107142857142	0.5283446712018141
2504.913330078125	-1.877584425679714	-9.365062539581588	2.044156853685712	-2.074616065573609	0.3628233619780922	-0.4048327851470805	0.06437768240343347	-0.9799107142857142	0.5283446712018141
2508.819580078125	-1.929087971147081	-9.233234372813785	2.09247058409582	-1.378627356267907	0.7366769888713958	-0.0349393170140721	0.06437768240343347	-0.9799107142857142	0.5283446712018141
2512.725830078125	-2.061770111292694	-9.353119672624448	2.09537847620819	-1.039624918948262	1.095765263377976	-0.031750151012745	0.05579399141630902	-0.9620535714285714	0.5374149659863946
2516.632080078125	-2.193571438072619	-9.089175396730386	2.010205031751733	-1.36818272393127	1.116697429050778	0.3211816014466942	0.05579399141630902	-0.9620535714285714	0.5374149659863946
2520.538330078125	-2.104313965813707	-8.999158880543886	2.268131275248176	-1.025410685446737	1.113614022407738	0.3280678762828152	0.05579399141630902	-0.9620535714285714	0.5374149659863946
2524.444580078125	-2.175165184571813	-9.119662489568425	2.210396008201652	-1.735613628253964	0.7219116364846723	-0.4016436191457534	0.05579399141630902	-0.9620535714285714	0.5374149659863946
2528.350830078125	-1.80738775630345	-9.163744304255149	2.167347058916409	-1.04339452011315	1.457936944527595	-0.03544725984753896	0.03648068669527897	-0.96875	0.5170068027210885
2532.257080078125	-2.073941942724013	-9.272189873502054	2.292153456074726	-1.392841589769432	0.718828229841633	-0.3947573443096323	0.03648068669527897	-0.96875	0.5170068027210885
2536.163330078125	-2.032192032360605	-9.313011413009731	2.198795072795174	-1.389071988604544	0.3566565486920137	-0.3910602354748384	0.03648068669527897	-0.96875	0.5170068027210885
2540.069580078125	-1.980530910190202	-9.202416913120324	2.134723672081468	-1.025410685446737	1.113614022407738	0.3280678762828152	0.04935622317596566	-0.9776785714285714	0.5056689342403629
2543.975830078125	-2.195840138553509	-9.180061800634668	2.237075079840708	0.00667503117174888	0.7421921213290015	0.3524238096259723	0.04935622317596566	-0.9776785714285714	0.5056689342403629
2547.882080078125	-1.819844437928718	-9.113114686933846	2.39260705817791	-1.050069551284899	0.7157448231985937	-0.3878710694735113	0.04935622317596566	-0.9776785714285714	0.5056689342403629
2551.788330078125	-1.981143035075073	-9.192309781770463	2.19593616056852	-1.035855317783374	0.7335935822283565	-0.02805304217795105	0.04935622317596566	-0.9776785714285714	0.5056689342403629
2555.694580078125	-2.011090813195054	-9.121303233282191	2.129489482770746	-1.014101881952074	0.02709897895888059	0.3391592027871971	0.04935622317596566	-0.9754464285714285	0.5283446712018141
2559.600830078125	-1.990805760542665	-9.252819215121846	2.141800544062387	-1.02164108428185	0.7514423412581193	0.3317649851176092	0.04935622317596566	-0.9754464285714285	0.5283446712018141
2563.507080078125	-2.227438431627085	-9.220149858107973	2.335679897402411	-1.038760747790235	-0.3707702202502642	-0.3767797429691294	0.04935622317596566	-0.9754464285714285	0.5283446712018141
2567.413330078125	-2.137199135295409	-9.25135528137432	2.495423733622592	-1.020776913123822	-0.7150931423701209	-0.01326460683877524	0.07296137339055794	-0.9709821428571428	0.526077097505669
2571.319580078125	-1.940423433923824	-9.031100816165813	2.205608698504799	-1.010332280787186	-0.3350727021907388	0.342856311621991	0.07296137339055794	-0.9709821428571428	0.526077097505669
2575.225830078125	-1.912158494183701	-8.990979425159173	2.44033921428843	-1.006562679622298	-0.6972443833403581	0.346553420456785	0.07296137339055794	-0.9709821428571428	0.526077097505669
2579.132080078125	-1.695594712838531	-9.084054153881718	2.212532508342855	-1.373993583944992	-1.092030175906463	-0.3762718001356626	0.07296137339055794	-0.9709821428571428	0.526077097505669
2583.038330078125	-1.971957080144872	-9.010583459501582	2.297748830813744	-0.6855440769690655	0.00616681328607855	-0.0137725496722421	0.05793991416309013	-0.9776785714285714	0.5192743764172336
2586.944580078125	-2.072772238736091	-9.201494499834864	2.175183057282636	-0.6817744758041775	-0.3560048678635408	-0.01007544083744814	0.05793991416309013	-0.9776785714285714	0.5192743764172336
2590.850830078125	-1.919889894932031	-9.071710191959772	2.193071125856151	-1.059650012463509	-1.130811100609028	-1.089021579890662	0.05793991416309013	-0.9776785714285714	0.5192743764172336
2594.757080078125	-1.807797859774172	-9.153639193119432	2.208357405988592	-1.038760747790235	-0.3707702202502642	-0.3767797429691294	0.03862660944206009	-0.9754464285714285	0.5147392290249433
2598.663330078125	-2.101703849142905	-9.140599123124733	2.007119608168072	-0.6855440769690655	0.00616681328607855	-0.0137725496722421	0.03862660944206009	-0.9754464285714285	0.5147392290249433
2602.569580078125	-1.839087060084101	-9.203831351621384	2.276052947185546	-0.7319563786385278	0.3147922173464096	-1.096923740393717	0.03862660944206009	-0.9754464285714285	0.5147392290249433
2606.475830078125	-2.033521333265703	-8.949361756364315	2.33172516330501	-1.074728417123061	0.3178756239894489	-1.103810015229838	0.03862660944206009	-0.9754464285714285	0.5147392290249433
2610.382080078125	-1.910819092207895	-9.203114031300146	2.306399016707851	-0.05018190283435026	0.6707970852099504	-1.086848299556268	0.05150214592274678	-0.96875	0.5170068027210885
2614.288330078125	-1.911398893666502	-8.910178940356266	2.364379162568524	-0.7394955809683037	1.039135579645648	-1.104317958063305	0.05150214592274678	-0.96875	0.5170068027210885
2618.194580078125	-2.011607988015275	-9.101096041331969	2.18120696479281	-0.4071681748204078	0.6560317328232269	-1.45355260168795	0.05150214592274678	-0.96875	0.5170068027210885
2622.100830078125	-1.929237466993551	-9.152424797047239	2.107420168742823	0.3134794003234562	1.427754558925675	-0.367720187798615	0.06223175965665236	-0.984375	0.546485260770975
2626.007080078125	-2.09143909986115	-9.241711871627652	2.001052843257897	-0.4109377759852957	1.018203413972846	-1.457249710522744	0.06223175965665236	-0.984375	0.546485260770975
2629.913330078125	-1.951451824151061	-9.172404673677683	2.288039557963178	-0.7394955809683037	1.039135579645648	-1.104317958063305	0.06223175965665236	-0.984375	0.546485260770975
2633.819580078125	-2.154474068876984	-8.917849198705172	2.182100765249408	-0.7499402133049405	0.6591151394662662	-1.460438876524071	0.06223175965665236	-0.984375	0.546485260770975
2637.725830078125	-2.275578320548876	-9.138860378410675	2.047627973254956	-0.396723542483771	1.036052173002609	-1.097431683227184	0.04506437768240344	-0.9709821428571428	0.5238095238095238
2641.632080078125	-2.205615996013024	-9.220368082464114	2.194252662526901	-0.05018190283435026	0.6707970852099504	-1.086848299556268	0.04506437768240344	-0.9709821428571428	0.5238095238095238
2645.538330078125	-2.075247001059413	-8.948944499686377	2.422659289614777	-0.392953941318883	0.6738804918529897	-1.09373457439239	0.04506437768240344	-0.9709821428571428	0.5238095238095238
2649.444580078125	-1.949057870393399	-9.12192356271021	2.048644182196984	-0.3749701066524703	0.3295575697331331	-0.7302194382620355	0.03862660944206009	-0.96875	0.5215419501133787
2653.350830078125	-1.95979332957012	-8.90969499599723	2.101781936603803	-0.3645254743158334	0.7095780099125152	-0.3740985198012692	0.03862660944206009	-0.96875	0.5215419501133787
2657.257080078125	-2.065036797559479	-9.464198116872891	2.422047102886617	-0.7139725439721151	-0.02953070477344698	-0.7334086042633625	0.03862660944206009	-0.96875	0.5215419501133787
2661.163330078125	-2.051497281154373	-9.13100017870361	2.08850362564142	-0.3636613031578064	-0.7569574737157249	-0.7191281117576536	0.03862660944206009	-0.96875	0.5215419501133787
2665.069580078125	-2.14202344789414	-9.463428250369546	1.957446830230353	-0.3532166708211696	-0.3769370335363428	-0.3630071932968873	0.03862660944206009	-0.96875	0.5215419501133787
2668.975830078125	-2.357492273174624	-9.006728107571286	2.075757929707339	0.007539202329775903	-0.7243433622992387	0.007394217669587907	0.03862660944206009	-0.96875	0.5215419501133787
2672.882080078125	-2.012284759752673	-9.151594324119646	2.24888413853262	-0.6817744758041775	-0.3560048678635408	-0.01007544083744814	0.03862660944206009	-0.96875	0.5215419501133787
2676.788330078125	-2.174843970523316	-9.14996873201194	2.178274603352012	0.007539202329775903	-0.7243433622992387	0.007394217669587907	0.06008583690987124	-0.9709821428571428	0.5328798185941043
2680.694580078125	-1.971611623526678	-9.081293984774836	2.263203168994318	-1.027451944295571	-1.457285263699122	-0.3656884164647475	0.06008583690987124	-0.9709821428571428	0.5328798185941043
2684.600830078125	-2.154643766864869	-9.140069723947514	2.199070564037897	0.03973727049771342	-1.050817525389332	0.7307273810955023	0.06008583690987124	-0.9709821428571428	0.5328798185941043
2688.507080078125	-2.216577719173592	-8.967733212707255	2.270016815318373	-0.6742352734744016	-1.080348230162779	-0.002681223167860238	0.06008583690987124	-0.9709821428571428	0.5328798185941043
2692.413330078125	-2.13507993066099	-9.079659301703494	2.283503270180619	-0.3172490014883441	-1.065582877776056	0.364023078963821	0.06008583690987124	-0.9709821428571428	0.5328798185941043
2696.319580078125	-2.032387993132329	-9.323110463503022	2.218391149967597	-0.3068043691517073	-0.6855624375966739	0.7201439974245873	0.06008583690987124	-0.9709821428571428	0.5328798185941043
2700.225830078125	-2.442606245000488	-9.096786058762119	2.423889806171243	-0.3172490014883441	-1.065582877776056	0.364023078963821	0.06008583690987124	-0.9709821428571428	0.5328798185941043
2704.132080078125	-2.135150638155942	-9.130163645133594	2.290574019675823	-0.2641616686471329	-0.6320161605073855	1.799598079311268	0.06223175965665236	-0.9553571428571428	0.5532879818594104
2708.038330078125	-2.23998602288872	-9.018004180175156	2.570030860300602	0.0464123016694623	-0.3086254040603311	1.083151190721475	0.06223175965665236	-0.9553571428571428	0.5532879818594104
2711.944580078125	-2.44400827361468	-9.116974058677997	2.564092667590432	0.06062653517098708	-0.2907766450305683	1.442969218017035	0.06223175965665236	-0.9553571428571428	0.5532879818594104
2715.850830078125	-2.024468712468841	-9.050462383582383	2.446871246884048	-0.3068043691517073	-0.6855624375966739	0.7201439974245873	0.06223175965665236	-0.9553571428571428	0.5532879818594104
2719.757080078125	-2.238937531749289	-8.745287392359277	2.465181746357434	0.05018190283435026	-0.6707970852099504	1.086848299556268	0.06223175965665236	-0.9553571428571428	0.5532879818594104
2723.663330078125	-2.032024354586861	-8.919073695848073	2.182027295420833	0.04350687166260137	-1.412989206538952	0.7344244899302963	0.06223175965665236	-0.9553571428571428	0.5532879818594104
2727.569580078125	-2.393789584341299	-8.622526750621235	2.644264556578888	0.05104607399237727	-2.137332568838191	0.7418187075998842	0.06223175965665236	-0.9553571428571428	0.5532879818594104
2731.475830078125	-2.803914906358949	-8.71943559841116	2.840470227731695	-0.9337631697986196	-3.541071555448025	1.455584373021817	0.04721030042918455	-0.9553571428571428	0.5215419501133787
2735.382080078125	-2.386181416655599	-8.673107882803142	2.903855951274236	-1.565355742768447	-4.567873508521516	2.532357231740638	0.04721030042918455	-0.9553571428571428	0.5215419501133787
2739.288330078125	-2.684606625058839	-8.872143832739313	3.154540056904329	-1.532293503442482	-6.36088315523985	2.910660803210168	0.04721030042918455	-0.9553571428571428	0.5215419501133787
2743.194580078125	-2.744007228834138	-8.881650836802569	2.972151454842352	-1.541873964621092	-8.207439079047472	2.209510292793017	0.04721030042918455	-0.9553571428571428	0.5215419501133787
2747.100830078125	-2.713192778847459	-8.881958981302436	2.951930945970339	-0.8516961153291117	-10.04231305711141	1.881950359343669	0.04721030042918455	-0.9553571428571428	0.5215419501133787
2751.007080078125	-2.693849145985002	-8.79124332672197	3.058383986255269	-0.8186338760031472	-11.83532270382974	2.260253930813199	0.04721030042918455	-0.9553571428571428	0.5215419501133787
2754.913330078125	-2.907786648946239	-9.203245365833771	3.02356285380755	-0.8035554713435953	-13.28400942842822	2.275042366152375	0.04721030042918455	-0.9553571428571428	0.5215419501133787
2758.819580078125	-2.847248664609283	-8.900820442646838	3.092213399703817	-0.4181407323544882	-13.23354655798197	3.361382722875176	0.06866952789699571	-0.9642857142857142	0.5306122448979592
2762.725830078125	-2.816086737790268	-9.14355630433927	3.03724520759823	-0.0527510868806278	-15.40966005152273	3.390451650720061	0.06866952789699571	-0.9642857142857142	0.5306122448979592
2766.632080078125	-2.529924270454714	-9.217124999719699	2.992427045471364	0.6156733265800519	-16.53803942631719	2.695679472305565	0.06866952789699571	-0.9642857142857142	0.5306122448979592
2770.538330078125	-2.570233768135241	-9.388439076460063	2.941744160462902	0.6733944317441781	-17.93317987382638	3.789921989531421	0.06866952789699571	-0.9642857142857142	0.5306122448979592
2774.444580078125	-2.479705581181333	-9.227728196713441	3.072598934459821	1.380691944544544	-18.64584129038193	4.170906784168811	0.06866952789699571	-0.9642857142857142	0.5306122448979592
2778.350830078125	-2.428024256869516	-9.319154100865651	3.006507319604627	2.415683091169891	-17.91289938898205	4.543989418303147	0.06866952789699571	-0.9642857142857142	0.5306122448979592
2782.257080078125	-2.439006182171498	-9.36954933211768	3.084291686537586	2.040712984517421	-17.58334181924891	3.813769980041111	0.06866952789699571	-0.9642857142857142	0.5306122448979592
2786.163330078125	-2.34817900352465	-9.37045760390415	3.185247291240499	3.075704131142768	-16.85039991784904	4.186852614175447	0.0536480686695279	-0.9709821428571428	0.5374149659863946
2790.069580078125	-2.664242784054931	-9.134973733775613	3.158972283044171	4.135354143606277	-15.71958881724001	5.275874194066109	0.0536480686695279	-0.9709821428571428	0.5374149659863946
2793.975830078125	-2.503037116759085	-9.237595891458675	3.3649361657044	4.128679112434528	-16.46178093856901	4.923450384440136	0.0536480686695279	-0.9709821428571428	0.5374149659863946
2797.882080078125	-2.55383156706279	-9.277491987359678	3.342340379748319	4.493204586750362	-17.17135894848152	5.297548904241405	0.0536480686695279	-0.9709821428571428	0.5374149659863946
2801.788330078125	-2.747783009064577	-9.154340351727537	3.349729477886247	5.542409966877234	-16.42056828805188	6.030449565671301	0.0536480686695279	-0.9709821428571428	0.5374149659863946
2805.694580078125	-2.757510381384697	-9.275455199216458	3.302058546632872	6.260152112014237	-16.75320926442804	6.767555278769458	0.0536480686695279	-0.9709821428571428	0.5374149659863946
2809.600830078125	-2.717732200023379	-9.397065102242191	3.405873063562439	6.243032448505851	-17.87542182593643	6.059010550682719	0.0536480686695279	-0.9709821428571428	0.5374149659863946
2813.507080078125	-2.677168155361024	-9.144945490163563	3.431101250388167	7.641684898289005	-16.38552245082082	7.151221296574708	0.06223175965665236	-0.9776785714285714	0.5170068027210885
2817.413330078125	-2.819056452578253	-9.24453670820149	3.3342166863968	7.97691773444376	-15.66426249516462	7.150713353741241	0.06223175965665236	-0.9776785714285714	0.5170068027210885
2821.319580078125	-2.851002222484166	-9.04219704848223	3.467569187192077	8.344348638766457	-15.26947670259852	7.873538574333689	0.06223175965665236	-0.9776785714285714	0.5170068027210885
2825.225830078125	-2.6578406842117	-9.195643815380109	3.539170461986286	8.70887411308229	-15.97905471251103	8.247637094134959	0.06223175965665236	-0.9776785714285714	0.5170068027210885
2829.132080078125	-2.851729499575101	-9.345220078741624	3.540296896285605	9.422846657054405	-15.94952400773759	8.98104569839832	0.06223175965665236	-0.9776785714285714	0.5170068027210885
2833.038330078125	-2.98553285856924	-9.11155881282845	3.655326673250496	9.791141732535127	-17.02127369879972	9.358841327034384	0.06223175965665236	-0.9776785714285714	0.5170068027210885
2836.944580078125	-2.883681330123438	-9.132779348314928	3.674255461323327	10.84498088498491	-18.09919020314793	9.75040950534269	0.06223175965665236	-0.9776785714285714	0.5170068027210885
2840.850830078125	-2.916368518619275	-9.04154338552088	3.881749821111173	11.87997203161026	-17.36624830174805	10.12349213947702	0.04291845493562232	-0.9575892857142857	0.5306122448979592
2844.757080078125	-3.026151449013415	-9.272768788540169	3.635553064606782	12.55507147624269	-17.75243555521351	9.7811437706885	0.04291845493562232	-0.9575892857142857	0.5306122448979592
2848.663330078125	-2.884400526357807	-9.112570136150564	3.74617508476026	12.56638027973735	-18.83895059866237	9.792235097192883	0.04291845493562232	-0.9575892857142857	0.5306122448979592
2852.569580078125	-3.077339841074709	-9.161145793508446	3.652351454409696	13.61644983102225	-19.55469542186096	10.18010616666639	0.04291845493562232	-0.9575892857142857	0.5306122448979592
2856.475830078125	-2.986235893090477	-8.949935620867075	3.725630125374239	14.6815977869667	-21.71912696965803	10.58276567147908	0.04291845493562232	-0.9575892857142857	0.5306122448979592
2860.382080078125	-2.864574062315535	-9.153172441195029	3.804345007063653	16.43142564872219	-22.42318984711294	11.34422731792039	0.04291845493562232	-0.9575892857142857	0.5306122448979592
2864.288330078125	-2.762306369756586	-9.194599158524658	3.781657383821855	17.11696972569126	-22.42935666039902	11.35799986759264	0.04291845493562232	-0.9575892857142857	0.5306122448979592
2868.194580078125	-2.604854301564481	-9.105264588297489	3.342573013591041	17.80541923266718	-21.33115967120648	11.72049911805606	0.04721030042918455	-0.9665178571428571	0.5419501133786848
2872.100830078125	-2.607052294550419	-9.14564664877167	3.562372312184812	18.49096330963625	-21.33732648449256	11.7342716677283	0.04721030042918455	-0.9665178571428571	0.5419501133786848
2876.007080078125	-2.864501334606441	-9.274385289684242	3.7970722361543	18.4842882784645	-22.07951860582156	11.38184785810233	0.04721030042918455	-0.9665178571428571	0.5419501133786848
2879.913330078125	-2.856424477239917	-9.264365048156895	4.009794662767153	20.55890434403811	-22.44234196779965	11.78668064324941	0.05793991416309013	-0.9598214285714285	0.5555555555555556
2883.819580078125	-2.603474454076986	-9.044672326166301	4.224996428106791	21.9680014261579	-20.57242215250466	13.23501230760216	0.05793991416309013	-0.9598214285714285	0.5555555555555556
2887.725830078125	-2.710380599533649	-9.356734577843049	3.69112117785467	23.69144207975917	-18.74128326191223	13.97059419219992	0.05793991416309013	-0.9598214285714285	0.5555555555555556
2891.632080078125	-2.680451003340941	-9.397437914209016	3.759386048379783	23.31937740311357	-17.30736188970048	13.58910145472906	0.05793991416309013	-0.9598214285714285	0.5555555555555556
2895.538330078125	-2.804670425219006	-9.477003800798316	3.936430277002607	25.41401856220242	-15.44360888769157	15.05120566875406	0.05579399141630902	-0.9754464285714285	0.5600907029478458
2899.444580078125	-2.927798931460668	-9.354560394523778	4.00438294198514	26.7784316849688	-16.19813463559273	14.72632695847257	0.05579399141630902	-0.9754464285714285	0.5600907029478458
2903.350830078125	-2.783450013419108	-9.315599843300154	3.855205423543406	28.86262821172102	-14.7144020737632	15.8323102540368	0.05579399141630902	-0.9754464285714285	0.5600907029478458
2907.257080078125	-2.930740363250673	-9.334328960003857	4.298526120985628	29.19118601670403	-14.735334239436	15.47937850157736	0.06652360515021459	-0.9508928571428571	0.5668934240362812
2911.163330078125	-2.80835933624136	-9.052724487445669	4.30532137923811	30.58316343531543	-13.98762698564939	16.21916543784338	0.06652360515021459	-0.9508928571428571	0.5668934240362812
2915.069580078125	-2.848448630580466	-9.25434379652248	4.23261816008744	31.29250220696463	-12.12938911609808	17.29390652522833	0.06652360515021459	-0.9508928571428571	0.5668934240362812
2918.975830078125	-2.95054662515153	-8.990696553950508	4.238335984540749	32.67780459440429	-12.12387398364048	17.68126965186838	0.06652360515021459	-0.9508928571428571	0.5668934240362812
2922.882080078125	-3.041668755063036	-9.171603514469572	4.166875506303543	33.37669873371685	-10.64565655426856	18.39988982079256	0.0536480686695279	-0.9508928571428571	0.5532879818594104
2926.788330078125	-3.054761804142872	-9.070462482968674	4.45577225102188	33.73454917686094	-12.09742668551007	18.42156453096786	0.0536480686695279	-0.9508928571428571	0.5532879818594104
2930.694580078125	-2.809832072350505	-9.123416830791648	4.452594990152502	35.13029619663723	-11.71189111287308	19.16504857606867	0.0536480686695279	-0.9508928571428571	0.5532879818594104
2934.600830078125	-2.930944404878963	-9.162609747870404	4.318930283814645	35.48351286745839	-11.33495407933674	19.52805576936556	0.06437768240343347	-0.953125	0.5782312925170068
2938.507080078125	-2.972330676696903	-9.222801945758285	4.375924812547433	36.18327117792899	-11.32327213359306	19.90164634633336	0.06437768240343347	-0.953125	0.5782312925170068
2942.413330078125	-3.24807485847595	-9.169539453435442	4.399322582288824	36.87549028606981	-10.58724682555014	20.26784270563158	0.06437768240343347	-0.953125	0.5782312925170068
2946.319580078125	-3.035012108237976	-9.151468060735802	4.521618987062923	36.92857761891101	-10.15368010828146	21.70341770597902	0.06437768240343347	-0.953125	0.5782312925170068
2950.225830078125	-3.27780445346865	-8.957120945364306	4.311057591762991	38.66128581715812	-11.97995554724476	21.7563346243336	0.0536480686695279	-0.9285714285714285	0.5895691609977325
2954.132080078125	-3.28122871643847	-8.805571551219456	4.653483888745016	39.03712009496862	-13.77604860060613	22.14152447063925	0.0536480686695279	-0.9285714285714285	0.5895691609977325
2958.038330078125	-3.423842270532493	-9.37990299143609	4.629125012433027	39.78792447943158	-15.90169922370064	23.25693375520693	0.0536480686695279	-0.9285714285714285	0.5895691609977325
2961.944580078125	-3.434001968678891	-9.117175131828365	4.624686663807471	40.11734645557261	-17.38916687300168	22.55897241079111	0.06008583690987124	-0.9397321428571428	0.5941043083900227
2965.850830078125	-3.268511427188951	-9.290547208960435	4.402163127058334	41.18830527153079	-17.34487081584151	23.65908531718615	0.06008583690987124	-0.9397321428571428	0.5941043083900227
2969.757080078125	-3.180015575661378	-9.109613985657528	4.736251443688832	41.5566003470115	-18.41662050690364	24.03688094582222	0.06008583690987124	-0.9397321428571428	0.5941043083900227
2973.663330078125	-3.404149140623559	-9.198281740916999	4.700628348070234	42.28565129564318	-19.83577652672867	24.78507798542476	0.06008583690987124	-0.9397321428571428	0.5941043083900227
2977.569580078125	-3.223100847572309	-9.200092223847511	4.963145981720666	43.3499350804296	-20.5336725908975	25.53276708219383	0.04506437768240344	-0.9419642857142857	0.5941043083900227
2981.475830078125	-3.223571557467275	-9.08897640563745	5.01021697121731	44.06477179555974	-21.9706773697523	25.92114609450081	0.04506437768240344	-0.9419642857142857	0.5941043083900227
2985.382080078125	-3.180389315277553	-9.160115298766419	4.77362540530634	45.47559721999559	-23.03382852171378	26.67941857494079	0.04506437768240344	-0.9419642857142857	0.5941043083900227
2989.288330078125	-3.014634125735078	-9.101166790055782	4.524637063303725	46.84668537393372	-23.04616214828594	26.70696367428528	0.03433476394849785	-0.9308035714285714	0.6054421768707483
2993.194580078125	-2.954290081955705	-8.980558109281455	4.612681664958266	46.8542245762635	-23.77050551058518	26.71435789195487	0.03433476394849785	-0.9308035714285714	0.6054421768707483
2997.100830078125	-3.02659383468154	-8.868723960643086	4.700199794684648	48.5918794633663	-21.921517860963	27.80975780384818	0.03433476394849785	-0.9308035714285714	0.6054421768707483
3001.007080078125	-2.770989250136697	-9.032896168104696	4.649945421832911	48.93842110301572	-22.28677294875565	27.82034118751909	0.03433476394849785	-0.9308035714285714	0.6054421768707483
3004.913330078125	-2.973839776660594	-9.232887864859659	4.526834808916502	49.64862404582295	-21.89507056283259	28.55005268294767	0.05579399141630902	-0.9196428571428571	0.6099773242630385
3008.819580078125	-2.945677867841687	-9.021048271826634	4.771868416821716	50.3512877863004	-20.77902481461028	29.27236996070664	0.05579399141630902	-0.9196428571428571	0.6099773242630385
3012.725830078125	-2.986936866168713	-9.293362954570638	4.816135596463137	51.39381813525551	-20.77042627550964	29.65284681251057	0.05579399141630902	-0.9196428571428571	0.6099773242630385
3016.632080078125	-3.017389697824067	-9.222351355547012	4.800194272202534	52.42880928188087	-20.03748437410975	30.0259294466449	0.03004291845493562	-0.9196428571428571	0.6303854875283447
3020.538330078125	-3.037133333086537	-9.151446848487316	4.733741471919044	53.10013912534841	-20.0614999464256	29.67988396902158	0.03004291845493562	-0.9196428571428571	0.6303854875283447
3024.444580078125	-3.068240714123732	-8.999620623161794	4.783255085842616	53.82746173166402	-18.54758499899414	31.11814019253689	0.03004291845493562	-0.9196428571428571	0.6303854875283447
3028.350830078125	-3.140784872332405	-9.16051134319587	4.894813763852693	55.54509152525157	-18.92517371335896	31.15626867555229	0.03004291845493562	-0.9196428571428571	0.6303854875283447
3032.257080078125	-3.14999102940402	-9.140217261423134	4.795021307748956	56.23440520338552	-19.29351220779466	31.17373833405933	0.0536480686695279	-0.9017857142857142	0.6235827664399093
3036.163330078125	-2.966779087007237	-9.212756451554172	4.841174006846145	56.937933115021	-19.64400194320059	31.55102601986193	0.0536480686695279	-0.9017857142857142	0.6235827664399093
3040.069580078125	-2.956789086848724	-9.192654331353738	4.862582154260191	58.00221689980742	-20.34189800736943	32.29871511663099	0.0536480686695279	-0.9017857142857142	0.6235827664399093
3043.975830078125	-3.100455172510462	-9.191217670497119	4.943476434719669	58.71241984261466	-19.95019562144636	33.02842661205956	0.04291845493562232	-0.9017857142857142	0.6575963718820862
3047.882080078125	-3.181013561447273	-9.12980602600169	4.836050022278283	59.38751928724708	-20.33638287491182	32.68607824327104	0.04291845493562232	-0.9017857142857142	0.6575963718820862
3051.788330078125	-3.100677396066026	-8.989195246241362	4.965698790276025	60.7974805405249	-19.93299854324507	33.78938031566741	0.04291845493562232	-0.9017857142857142	0.6575963718820862
3055.694580078125	-3.178688294970422	-8.796495945333126	4.603523374593145	60.77949670585848	-19.58867562112521	33.42586517953706	0.04291845493562232	-0.9017857142857142	0.6575963718820862
3059.600830078125	-2.986435853061624	-8.949933621267364	4.766034285754262	61.48969964866571	-19.19697323520214	34.15557667496562	0.03648068669527897	-0.875	0.671201814058957
3063.507080078125	-3.242240438806475	-8.957476585510927	4.836288778606719	62.16479909329814	-19.5831604886676	33.8132283061771	0.03648068669527897	-0.875	0.671201814058957
3067.413330078125	-3.080151937930799	-8.847986359408573	4.953969303283972	61.8437804906449	-20.28657168529404	34.17355427630613	0.03648068669527897	-0.875	0.671201814058957
3071.319580078125	-2.947999093890255	-9.192742231283322	5.003991021678558	63.2177740745899	-19.19454150938758	34.54982607644179	0.02789699570815451	-0.8660714285714285	0.6757369614512472
3075.225830078125	-3.263525497458901	-9.179485957146625	4.923978317318678	63.60405298473703	-20.61061412256957	35.29113684120821	0.02789699570815451	-0.8660714285714285	0.6757369614512472
3079.132080078125	-2.83536968177076	-8.991848323384314	4.965539605647447	64.29713626403587	-21.34112429815489	35.31230360855004	0.02789699570815451	-0.8660714285714285	0.6757369614512472
3083.038330078125	-3.09990971469226	-9.0902130240652	4.888930652899523	65.32835780949632	-20.24601071560538	35.68168913384958	0.02789699570815451	-0.8660714285714285	0.6757369614512472
3086.944580078125	-3.080840830953046	-8.878282500781381	5.022858605508674	66.0139018864654	-20.25217752889146	35.69546168352182	0.008583690987124463	-0.8526785714285714	0.7097505668934241
3090.850830078125	-2.948738492266039	-8.970512615077341	5.077930859256977	67.04889303309075	-19.51923562749158	36.06854431765615	0.008583690987124463	-0.8526785714285714	0.7097505668934241
3094.757080078125	-2.939069706156023	-8.92010425243339	5.131460411520664	68.07634497738633	-18.06195036379246	36.4342327341209	0.008583690987124463	-0.8526785714285714	0.7097505668934241
3098.663330078125	-2.732491884541083	-8.871664980144489	4.881841515332746	68.76856408552713	-17.32592505574954	36.80042909341912	-0.004291845493562232	-0.84375	0.6984126984126985
3102.569580078125	-2.599862269963148	-8.83258723588623	4.884186179988242	69.47122782600459	-16.20987930752723	37.5227463711781	-0.004291845493562232	-0.84375	0.6984126984126985
3106.475830078125	-2.743354617208717	-8.952364433625894	4.947706618830932	70.47692633446886	-14.04609944055863	37.5212225426777	-0.004291845493562232	-0.84375	0.6984126984126985
3110.382080078125	-2.710917935266424	-8.962789810546328	4.765262914397525	71.52526754343771	-11.82877329650074	38.59915279606398	-0.004291845493562232	-0.84375	0.6984126984126985
3114.288330078125	-2.752498147641947	-8.69974774579631	4.841651498888586	72.18819401341744	-9.661910022889105	38.59074269272746	0.0128755364806867	-0.8303571428571428	0.7278911564625851
3118.194580078125	-2.946318275724538	-8.627102473808412	4.83590920510685	71.47712689945219	-8.587076925183933	38.20606078925528	0.0128755364806867	-0.8303571428571428	0.7278911564625851
3122.100830078125	-3.040050522306844	-8.666569191746628	5.025460393949749	71.46958769712242	-7.862733562884693	38.19866657158568	0.0128755364806867	-0.8303571428571428	0.7278911564625851
3126.007080078125	-3.080242847567166	-8.696470298797058	4.963060266920663	72.51125387491949	-6.387599540155809	38.92417301534599	-0.01502145922746781	-0.8236607142857142	0.7278911564625851
3129.913330078125	-3.082434779910679	-8.746953429978674	5.182253501271988	72.52546810842102	-6.369750781126045	39.28399104264155	-0.01502145922746781	-0.8236607142857142	0.7278911564625851
3133.819580078125	-3.287414612139703	-8.765105651858404	5.272073458868295	73.20347298306032	-5.651574232112885	39.29036937464421	-0.01502145922746781	-0.8236607142857142	0.7278911564625851
3137.725830078125	-3.480830697393997	-8.692464420298789	5.225926882256822	73.19302835072367	-6.031594672292268	38.93424845618344	-0.01502145922746781	-0.8236607142857142	0.7278911564625851
3141.632080078125	-3.28793986781649	-8.563080197281433	5.324599026546953	73.89946169236602	-5.277720605219582	39.66026284277721	0	-0.8125	0.7437641723356009
3145.538330078125	-3.481040799664711	-8.510644137457898	5.246937109328285	73.2072425842252	-6.013745913262505	39.294066483479	0	-0.8125	0.7437641723356009
3149.444580078125	-3.555407191029005	-8.328082291726076	5.540719102900477	73.54333959153799	-6.759021441234546	38.94852894868915	0	-0.8125	0.7437641723356009
3153.350830078125	-3.440973727681162	-8.440337737470664	5.321862564034589	75.31405671796675	-6.703043438330691	40.422232432052	-0.01072961373390558	-0.7879464285714285	0.7573696145124716
3157.257080078125	-3.58624386337124	-8.459087056315783	5.563161847328125	75.65015372527955	-7.448318966302732	40.07669489726214	-0.01072961373390558	-0.7879464285714285	0.7573696145124716
3161.163330078125	-3.413718895011783	-8.400206245393317	5.657603786892563	75.67190716111084	-8.154813569572209	40.4439071422273	-0.01072961373390558	-0.7879464285714285	0.7573696145124716
3165.069580078125	-3.534257486724059	-8.217182677658013	5.46656499893648	77.04676491621386	-8.529318877293985	40.47514935040657	-0.01072961373390558	-0.7879464285714285	0.7573696145124716
3168.975830078125	-3.627080636942696	-8.256658486559868	5.565206551412469	77.06097914971538	-8.511470118264221	40.83496737770214	-0.02575107296137339	-0.78125	0.7755102040816326
3172.882080078125	-3.544687893565416	-8.176674333185559	5.489197519806847	77.05430411854364	-9.253662239593224	40.48254356807616	-0.02575107296137339	-0.78125	0.7755102040816326
3176.788330078125	-3.473460914976993	-8.177386602971444	5.509356803821714	76.7332855158904	-9.957073436219659	40.84286953820519	-0.02575107296137339	-0.78125	0.7755102040816326
3180.694580078125	-3.71863509268048	-8.053722739982286	5.536978655803084	76.37716341506238	-11.43837427223462	40.13113564411712	-0.02360515021459227	-0.765625	0.7891156462585034
3184.600830078125	-3.801532889593132	-8.133701842821242	5.663493040945879	76.40559188206542	-11.4026767541751	40.85077169870824	-0.02360515021459227	-0.765625	0.7891156462585034
3188.507080078125	-3.860844603946206	-8.123007715576701	5.472215496661359	76.03902514890075	-13.26399803036944	39.78291688615941	-0.02360515021459227	-0.765625	0.7891156462585034
3192.413330078125	-3.833054414529332	-8.13338662757188	5.754421044769931	75.71133151507577	-14.70960134832488	39.79081904666246	-0.02360515021459227	-0.765625	0.7891156462585034
3196.319580078125	-3.640096917885156	-8.115114182336301	5.846426482393157	76.75763146519579	-15.06317449037386	40.17499300730118	-0.03004291845493562	-0.7477678571428571	0.7981859410430839
3200.225830078125	-3.710283486190713	-8.164917367158296	5.722226170091716	76.77647947102022	-16.87403289612195	40.19347855147515	-0.03004291845493562	-0.7477678571428571	0.7981859410430839
3204.132080078125	-3.677568014696895	-8.134941491570205	5.511903510505789	77.47333235148396	-17.96671475285689	40.21834242765178	-0.03004291845493562	-0.7477678571428571	0.7981859410430839
3208.038330078125	-3.668820446235396	-8.064321896547748	5.657554827621277	76.42035737019221	-18.35533373213692	39.48174465738708	-0.006437768240343348	-0.7455357142857142	0.8095238095238095
3211.944580078125	-3.763231484769243	-7.982569705354329	5.914985211618135	76.06337109820613	-18.37009908452364	39.1150403552554	-0.006437768240343348	-0.7455357142857142	0.8095238095238095
3215.850830078125	-3.773168959360077	-7.92186427000236	5.888324507436224	76.43747703370059	-17.23312117062853	40.19028938547383	-0.006437768240343348	-0.7455357142857142	0.8095238095238095
3219.757080078125	-3.670586113395056	-7.983496159068071	5.83412154358723	75.73771872322999	-17.24480311637222	39.81669880850603	-0.006437768240343348	-0.7455357142857142	0.8095238095238095
3223.663330078125	-3.712519863245339	-7.972975811468558	5.945863875554312	75.75193295673152	-17.22695435734245	40.17651683580159	-0.01716738197424893	-0.71875	0.8004535147392291
3227.569580078125	-3.579385195132033	-7.93390311774565	5.897703186672635	76.47635013304027	-16.81740321238963	41.26604635852571	-0.01716738197424893	-0.71875	0.8004535147392291
3231.475830078125	-3.54855256321808	-7.964514474367822	5.875664485073286	76.49810356887157	-17.5238978156591	41.63325860349086	-0.01716738197424893	-0.71875	0.8004535147392291
3235.382080078125	-3.683778152967825	-8.054071309379413	6.132917337598853	77.2083065116788	-17.13219542973604	42.36297009891943	-0.04291845493562232	-0.7165178571428571	0.8435374149659864
3239.288330078125	-3.437147400868326	-7.743406303769096	5.95963804601628	77.20540108167194	-18.23655923221466	42.01424339812825	-0.04291845493562232	-0.7165178571428571	0.8435374149659864
3243.194580078125	-3.519392668613278	-7.732482840990636	6.020899514389048	77.90429522098449	-16.75834180284273	42.73286356705243	-0.04291845493562232	-0.7165178571428571	0.8435374149659864
3247.100830078125	-3.633155420866148	-7.559628041750937	6.172684943757571	77.90720065099137	-15.65397800036411	43.08159026784362	-0.04291845493562232	-0.7165178571428571	0.8435374149659864
3251.007080078125	-3.612460264743036	-7.701249134726308	6.143985657977029	76.84959189737667	-14.21388981486628	42.68632498070052	-0.02789699570815451	-0.6875	0.8299319727891157
3254.913330078125	-3.653272795744793	-7.539224847800129	6.14360610509159	76.85249732738355	-13.10952601238766	43.03505168149169	-0.02789699570815451	-0.6875	0.8299319727891157
3258.819580078125	-3.645957559109609	-7.438287899156379	6.432490604838497	76.48797185306771	-12.39994800247514	42.66095316169042	-0.02789699570815451	-0.6875	0.8299319727891157
3262.725830078125	-4.001773258217368	-7.798366105801667	6.299774801328669	77.20194439703982	-12.37041729770169	43.39436176595379	-0.03648068669527897	-0.6785714285714285	0.8934240362811792
3266.632080078125	-4.060810223447199	-7.403836342209973	6.081022344719928	77.56270027019076	-12.71782362646459	43.76476317692026	-0.03648068669527897	-0.6785714285714285	0.8934240362811792
3270.538330078125	-4.154144487843633	-7.433206029869039	6.230775314975536	77.91678111216997	-13.80742207655649	43.78274077826077	-0.03648068669527897	-0.6785714285714285	0.8934240362811792
3274.444580078125	-4.175213383582919	-7.342086250002556	6.296848562373586	77.57110364367857	-14.90870247239207	43.42712780263346	-0.03648068669527897	-0.6785714285714285	0.8934240362811792
3278.350830078125	-3.991350932232578	-7.152005682596868	6.277950366114896	78.963945233448	-15.6275307022337	43.8218851469431	-0.03862660944206009	-0.6584821428571428	0.8798185941043084
3282.257080078125	-4.031822047044424	-7.222308042155819	6.243429194238329	78.94305596877473	-16.38757158259246	43.10964331002157	-0.03862660944206009	-0.6584821428571428	0.8798185941043084
3286.163330078125	-3.91911182635927	-7.324445245372772	6.196896921641271	78.93261133643809	-16.76759202277185	42.7535223915608	-0.03862660944206009	-0.6584821428571428	0.8798185941043084
3290.069580078125	-3.773344717990386	-7.123882714436259	5.905900370467159	78.94305596877473	-16.38757158259246	43.10964331002157	-0.04935622317596566	-0.6495535714285714	0.8843537414965986
3293.975830078125	-4.052143463551361	-7.030185636071558	6.234754518401364	78.22908342480261	-16.41710228736591	42.3762347057582	-0.04935622317596566	-0.6495535714285714	0.8843537414965986
3297.882080078125	-4.092501446371284	-7.120691147152451	6.18892014733247	78.9288417352732	-16.40542034162223	42.74982528272601	-0.04935622317596566	-0.6495535714285714	0.8843537414965986
3301.788330078125	-4.122497709630661	-6.968876033004704	6.127321983474264	77.19118684817042	-18.25440799124442	41.65442537083269	-0.04935622317596566	-0.6495535714285714	0.8843537414965986
3305.694580078125	-3.887709494057418	-6.789405733342256	6.117888181251991	78.59737850028333	-17.48885197842804	42.75403033439427	-0.04935622317596566	-0.640625	0.891156462585034
3309.600830078125	-4.011324871907179	-6.697260488654667	6.234528007044357	78.25170103179194	-18.59013237426363	42.39841735876697	-0.04935622317596566	-0.640625	0.891156462585034
3313.507080078125	-3.929744254614775	-6.778884375635672	6.239731583926507	77.91356276563032	-20.41575613239845	42.05019860080925	-0.04935622317596566	-0.640625	0.891156462585034
3317.413330078125	-3.969795164885193	-6.707776795825897	6.163189957907013	77.91065733562347	-21.52011993487707	41.70147190001808	-0.03862660944206009	-0.6272321428571428	0.8979591836734694
3321.319580078125	-4.102745993511624	-6.716548297640642	6.192966698101158	77.9466250049563	-22.20876577911678	42.42850217227878	-0.03862660944206009	-0.6272321428571428	0.8979591836734694
3325.225830078125	-3.992514575578074	-6.727751621920988	6.39431470066454	76.58307605334794	-22.92077551484387	42.40835129060389	-0.03862660944206009	-0.6272321428571428	0.8979591836734694
3329.132080078125	-4.116497632401585	-6.696208761049722	6.547722423831967	76.22695395251991	-24.40207635085883	41.69661739651583	-0.03862660944206009	-0.6272321428571428	0.8979591836734694
3333.038330078125	-4.064196102348332	-6.474509554128033	6.419610234833128	76.93425146532026	-25.11473776741438	42.07760219115321	-0.05579399141630902	-0.5959821428571428	0.9002267573696145
3336.944580078125	-3.91282083829382	-6.526528357273628	6.588206278361564	76.92757643414852	-25.85692988874339	41.72517838152724	-0.05579399141630902	-0.5959821428571428	0.9002267573696145
3340.850830078125	-3.823771448091479	-6.426408750165551	6.86694072751532	76.5676847321556	-26.97605904360873	41.00974737860438	-0.05579399141630902	-0.5959821428571428	0.9002267573696145
3344.757080078125	-3.78230436770788	-6.669247663393629	6.801865342216585	76.57812936449224	-26.59603860342935	41.36586829706515	-0.06223175965665236	-0.5803571428571428	0.9387755102040817
3348.663330078125	-3.353734408120735	-6.330099019555158	6.802012240644873	76.8962425371386	-26.99699120928153	40.65681562614494	-0.06223175965665236	-0.5803571428571428	0.9387755102040817
3352.569580078125	-3.630666475814976	-6.317228688777205	6.944198601905692	77.56670820944812	-25.55447129796913	40.65579974047801	-0.06223175965665236	-0.5803571428571428	0.9387755102040817
3356.475830078125	-3.648620201348089	-6.367554202026924	6.698754828686466	76.852735665476	-25.58400200274258	39.92239113621465	-0.06223175965665236	-0.5803571428571428	0.9387755102040817
3360.382080078125	-3.474759871441109	-6.177373613406802	6.659660613498623	77.18419890046589	-24.50057036593676	39.91818608454638	-0.06652360515021459	-0.5580357142857143	0.9297052154195011
3364.288330078125	-3.547388878643723	-6.196849343536796	6.779704190902945	77.15490626230481	-23.06973240036805	39.54357962191165	-0.06652360515021459	-0.5580357142857143	0.9297052154195011
3368.194580078125	-3.61757544694928	-6.246652528358791	6.655503878601504	76.79415038915384	-22.72232607160515	39.17317821094517	-0.06652360515021459	-0.5580357142857143	0.9297052154195011
3372.100830078125	-3.679432631120627	-6.033912744395865	6.71877331614433	76.44006954717466	-21.63272762151325	39.15520060960467	-0.07725321888412018	-0.5424107142857143	0.9546485260770975
3376.007080078125	-3.761168804901924	-5.86137821094088	6.729125388151629	76.06886904168708	-21.66534173292974	38.42867828017743	-0.07725321888412018	-0.5424107142857143	0.9546485260770975
3379.913330078125	-3.507853122979385	-5.914416418265157	6.907761277530355	75.69012933386972	-20.97361248204699	37.6947617330806	-0.07725321888412018	-0.5424107142857143	0.9546485260770975
3383.819580078125	-3.640375666207821	-5.963596243337923	6.894709477924978	75.33981809305541	-20.24618571310471	37.68048124057489	-0.07725321888412018	-0.5424107142857143	0.9546485260770975
3387.725830078125	-3.568732523506252	-5.984514694966959	6.873252350625216	75.29254162022792	-18.47102482541614	36.9423596418098	-0.04506437768240344	-0.515625	0.9546485260770975
3391.632080078125	-3.669866875931826	-5.811786179725531	6.782605960529601	74.22071863311172	-17.04878539894807	36.18727632737114	-0.04506437768240344	-0.515625	0.9546485260770975
3395.538330078125	-3.771993153500871	-5.669350775535699	6.791152084780991	73.86663779113252	-15.95918694885617	36.16929872603064	-0.04506437768240344	-0.515625	0.9546485260770975
3399.444580078125	-3.822924978366196	-5.648639437085026	6.782293754987021	74.5446426657718	-15.24101039984301	36.17567705803329	-0.04721030042918455	-0.5111607142857143	0.9569160997732427
3403.350830078125	-3.947015106539207	-5.606994495399255	6.946408613104329	73.53807998614953	-15.93825478318337	36.52223047849008	-0.04721030042918455	-0.5111607142857143	0.9569160997732427
3407.257080078125	-3.854422260732699	-5.688728504665401	6.870797501841289	73.86373236112566	-17.06355075133479	35.82057202523946	-0.04721030042918455	-0.5111607142857143	0.9569160997732427
3411.163330078125	-3.770805267585677	-5.62895861399081	6.672363493261563	73.50674608913961	-17.07831610372152	35.45386772310778	-0.04721030042918455	-0.5111607142857143	0.9569160997732427
3415.069580078125	-3.648949496253151	-5.650379191906157	6.731684319192703	73.52386575264799	-15.95610354221313	36.16241245119452	-0.04721030042918455	-0.5111607142857143	0.9569160997732427
3418.975830078125	-3.92684318587874	-5.718307325716971	6.970032873588297	73.1564348483253	-16.35088933477924	35.43958723060207	-0.04721030042918455	-0.5111607142857143	0.9569160997732427
3422.882080078125	-3.906594497080897	-5.284166378261515	6.985980320334614	71.78534669438717	-16.33855570820708	35.41204213125759	-0.04721030042918455	-0.5111607142857143	0.9569160997732427
3426.788330078125	-4.091873118544422	-5.302515612248901	7.146495527911532	72.81366280984078	-16.3478059281362	35.43270095576595	-0.06437768240343347	-0.4799107142857142	0.9795918367346939
3430.694580078125	-3.868551679667118	-5.375455897344744	7.263331232017903	72.13188833403659	-16.70381079599974	35.4226255149285	-0.06437768240343347	-0.4799107142857142	0.9795918367346939
3434.600830078125	-3.64916565916629	-5.458457838357833	6.753300610506612	71.43966922589577	-17.43983610404266	35.05642915563028	-0.06437768240343347	-0.4799107142857142	0.9795918367346939
3438.507080078125	-3.711333956315426	-5.063896761446947	6.847681345828336	71.4187799612225	-18.19987698440142	34.34418731870876	-0.06437768240343347	-0.4799107142857142	0.9795918367346939
3442.413330078125	-3.66095769033901	-5.337127796833985	6.912095564513194	70.39046384576889	-18.19062676447231	34.32352849420039	-0.06437768240343347	-0.4799107142857142	0.9795918367346939
3446.319580078125	-3.723378514255831	-5.195089447180675	7.031728976603504	70.34782114526432	-18.2441730415616	33.24407441231371	-0.06437768240343347	-0.4799107142857142	0.9795918367346939
3450.225830078125	-3.683535686041986	-5.256093936068874	7.129078808280314	69.34125846564203	-18.94141742490195	33.59062783277049	-0.06437768240343347	-0.4799107142857142	0.9795918367346939
3454.132080078125	-3.582748810448748	-5.186394734117735	7.254472881609503	68.69081788684777	-18.15736097222735	34.64891514731534	-0.05150214592274678	-0.4352678571428571	1.011337868480726
3458.038330078125	-3.93849986270398	-4.980817021574981	7.115292392846917	67.65001588020868	-21.09903047858447	33.57837911159865	-0.05150214592274678	-0.4352678571428571	1.011337868480726
3461.944580078125	-3.776073986066675	-4.760219058119132	7.199235341361338	68.72851389849664	-21.77907778372354	34.68588623566328	-0.05150214592274678	-0.4352678571428571	1.011337868480726
3465.850830078125	-3.784364986132197	-4.750035138017466	7.007927184648246	67.71527618770259	-23.2185142883929	34.6800158464941	-0.05150214592274678	-0.4352678571428571	1.011337868480726
3469.757080078125	-3.894222664449571	-4.688330500628233	6.769205220467358	67.37627375038295	-23.57760256289948	34.67682668049277	-0.05150214592274678	-0.4352678571428571	1.011337868480726
3473.663330078125	-3.773772962159521	-4.891555199671335	6.969132950645984	66.33751300259271	-23.94837278314975	34.30004693752364	-0.05150214592274678	-0.4352678571428571	1.011337868480726
3477.569580078125	-3.714077407119566	-4.700232963302542	7.122026426242253	64.96265524748969	-23.57386747542797	34.26880472934436	-0.05150214592274678	-0.4352678571428571	1.011337868480726
3481.475830078125	-3.743314069861743	-4.972667869402394	6.984468210664141	64.61611360784026	-23.20861238763531	34.25822134567345	-0.06223175965665236	-0.4241071428571428	1.00453514739229
3485.382080078125	-3.701911636330671	-4.771061691717502	6.925857510618163	64.25912733585422	-23.22337774002203	33.89151704354177	-0.06223175965665236	-0.4241071428571428	1.00453514739229
3489.288330078125	-3.857375813807552	-4.638193918629603	7.16615280932667	63.92012489853457	-23.58246601452861	33.88832787754044	-0.06223175965665236	-0.4241071428571428	1.00453514739229
3493.194580078125	-3.724746199229617	-4.599116174371341	7.168497473982165	62.20712887726993	-25.03358446494166	33.50886691140345	-0.06223175965665236	-0.4241071428571428	1.00453514739229
3497.100830078125	-3.795672165910959	-4.426689742987357	7.118236999259143	62.22220728192948	-26.48227118954014	33.52365534674263	-0.06223175965665236	-0.4241071428571428	1.00453514739229
3501.007080078125	-4.010179369260095	-4.394241640650834	7.140385905601355	61.89160821809764	-29.03223830997419	33.1828308064545	-0.06223175965665236	-0.4241071428571428	1.00453514739229
3504.913330078125	-3.796183280088755	-4.416583621744569	7.169348417038762	61.22577631811105	-32.30346538606446	32.84251420899984	-0.06223175965665236	-0.4241071428571428	1.00453514739229
3508.819580078125	-3.614399629090002	-4.297189337042434	7.358330255939071	61.95859686790759	-34.0847930870391	33.59440835743718	-0.05579399141630902	-0.3794642857142857	1.022675736961451
3512.725830078125	-3.458628379063616	-4.268444019239667	7.087327702279965	61.27768656326145	-35.90733343853088	33.23930332464334	-0.05579399141630902	-0.3794642857142857	1.022675736961451
3516.632080078125	-3.285709468946568	-4.361082299249929	7.14237546608541	60.23892581547122	-36.27810365878115	32.86252358167422	-0.05579399141630902	-0.3794642857142857	1.022675736961451
3520.538330078125	-3.201922777811661	-4.079091883332996	6.926971658717194	60.23892581547122	-36.27810365878115	32.86252358167422	-0.05579399141630902	-0.3794642857142857	1.022675736961451
3524.444580078125	-3.099156092359766	-4.110422580490545	6.85438474618067	60.92823949360517	-36.64644215321685	32.87999324018125	-0.05579399141630902	-0.3794642857142857	1.022675736961451
3528.350830078125	-3.072091159819686	-4.090491209613925	7.209115981968621	60.5532693869527	-36.31688458348371	32.14977380191922	-0.05579399141630902	-0.3794642857142857	1.022675736961451
3532.257080078125	-3.17293864183717	-4.059179704490719	7.089782551063892	59.82885221064394	-36.72643572843654	31.06024427919509	-0.05579399141630902	-0.3794642857142857	1.022675736961451
3536.163330078125	-2.775942732753902	-3.80052340095529	7.186110010084098	59.13199933018022	-35.63375387170161	31.03538040301846	-0.03433476394849785	-0.3482142857142857	1.029478458049887
3540.069580078125	-2.88744890581073	-4.021630561446943	7.112237519848538	59.44461455934564	-32.73946382914769	31.01268980717623	-0.03433476394849785	-0.3482142857142857	1.029478458049887
3543.975830078125	-2.765284041714557	-4.053155240390936	7.140649069414929	58.72310281304376	-32.0446511716219	30.27188698524328	-0.03433476394849785	-0.3482142857142857	1.029478458049887
3547.882080078125	-2.909366291489441	-4.031512397691167	7.263159761189036	58.0120356990785	-30.96981807391673	29.8872050817711	-0.03433476394849785	-0.3482142857142857	1.029478458049887
3551.788330078125	-2.888012545556205	-3.587281490706055	7.168601494396022	58.01117152792048	-29.50328259028849	30.23223467372748	-0.03433476394849785	-0.3482142857142857	1.029478458049887
3555.694580078125	-2.664876966379918	-3.518805775790747	7.304023168604072	57.64287645243976	-28.43153289922635	29.85443904509142	-0.03433476394849785	-0.3482142857142857	1.029478458049887
3559.600830078125	-2.93875447029223	-3.546370031054654	7.140753151672076	56.60034610348463	-28.44013143832699	29.4739621932875	-0.03433476394849785	-0.3482142857142857	1.029478458049887
3563.507080078125	-2.8687396201887	-3.54707017955569	7.282125284176155	56.23582062916879	-27.73055342841448	29.09986367348623	-0.03218884120171674	-0.328125	1.038548752834467
3567.413330078125	-2.807324862914339	-3.527482306926413	7.263098536331891	55.17530644554726	-27.39482904539527	28.35587168555195	-0.03218884120171674	-0.328125	1.038548752834467
3571.319580078125	-2.898669216381408	-3.506366843189722	7.213860413651043	54.81745600240318	-25.94305891415375	28.33419697537665	-0.03218884120171674	-0.328125	1.038548752834467
3575.225830078125	-3.032135199613919	-3.666648344973559	7.295152614453103	53.77115605228316	-25.58948577210478	27.95002301473794	-0.03218884120171674	-0.328125	1.038548752834467
3579.132080078125	-3.13399884934457	-3.625225668072212	7.277435954865163	53.7598472487885	-24.50297072865592	27.93893168823355	-0.03218884120171674	-0.328125	1.038548752834467
3583.038330078125	-2.807906684587087	-3.567880529113726	7.321280703606713	52.00711395702615	-24.90327165367963	26.82874334100106	-0.03218884120171674	-0.328125	1.038548752834467
3586.944580078125	-2.838230222537386	-3.375658101815031	7.292410008840594	51.66724734854848	-23.79582444455797	27.17058376695612	-0.03218884120171674	-0.328125	1.038548752834467
3590.850830078125	-2.991781257222278	-3.23270845005404	7.341391028350294	51.31316650656928	-22.70622599446607	27.15260616561562	-0.01716738197424893	-0.3035714285714285	1.054421768707483
3594.757080078125	-2.816860314891017	-3.295063720083414	7.19623557073439	50.59542436143229	-22.3735850180899	26.41550045251746	-0.01716738197424893	-0.3035714285714285	1.054421768707483
3598.663330078125	-2.807813754736579	-3.386063276594049	7.311987718555874	49.53867977897563	-22.40003231622031	25.67520557341798	-0.01716738197424893	-0.3035714285714285	1.054421768707483
3602.569580078125	-2.895820714441912	-3.203365025178814	6.929010219701394	48.15628282154284	-21.30118364619929	25.63656914756911	-0.01716738197424893	-0.3035714285714285	1.054421768707483
3606.475830078125	-2.807318802271915	-3.032532872583342	7.262492472089445	48.13162395570468	-21.69905284540844	24.92063020181278	-0.01716738197424893	-0.3035714285714285	1.054421768707483
3610.382080078125	-3.013991573951505	-3.091072205472607	7.521606374742352	46.75009116942991	-22.06673965901566	24.53696418400753	-0.01716738197424893	-0.3035714285714285	1.054421768707483
3614.288330078125	-2.73899689161895	-3.073620132093912	7.573158549650124	46.39687449860874	-22.44367669255201	24.17395699071065	-0.01716738197424893	-0.3035714285714285	1.054421768707483
3618.194580078125	-2.74858890959159	-3.083625222015196	7.511952183648787	45.70002161814501	-21.35099483581707	24.14909311453402	-0.01931330472103004	-0.2700892857142857	1.061224489795918
3622.100830078125	-2.838775680355587	-2.971612243196445	7.34695579066074	45.32882111265743	-21.38360894723355	23.42257078510678	-0.01931330472103004	-0.2700892857142857	1.061224489795918
3626.007080078125	-2.902408632757301	-2.829561772258286	7.587802051240262	44.26830692903589	-21.04788456421434	22.6785787971725	-0.01931330472103004	-0.2700892857142857	1.061224489795918
3629.913330078125	-2.799666189875103	-2.820488186586098	7.517639395673522	43.88666179121167	-21.46051911581021	21.59593554928449	-0.006437768240343348	-0.2745535714285714	1.052154195011338
3633.819580078125	-2.830664479348657	-2.850481233994393	7.556243853233065	43.88956722121853	-20.35615531333159	21.94466225007567	-0.006437768240343348	-0.2745535714285714	1.052154195011338
3637.725830078125	-2.942758534720658	-2.59683504091542	7.541159594514773	43.53721472155539	-22.19962783049617	21.2366254648224	-0.006437768240343348	-0.2745535714285714	1.052154195011338
3641.632080078125	-2.493743925563945	-2.82354740922921	7.537657862516956	43.55229312621493	-23.64831455509465	21.25141390016158	-0.006437768240343348	-0.2745535714285714	1.052154195011338
3645.538330078125	-2.647355566673082	-2.579587050393875	7.592699524451116	42.83455098107794	-23.31567357871847	20.51430818706342	-0.0128755364806867	-0.2455357142857143	1.043083900226757
3649.444580078125	-2.42274523117351	-2.612136184051902	7.580645566330625	42.50222357493004	-22.93256973189606	20.86354283068806	-0.0128755364806867	-0.2455357142857143	1.043083900226757
3653.350830078125	-2.840361548456654	-2.517050929969979	7.505542600767459	41.43126475897186	-22.97686578905623	19.76342992429302	-0.0128755364806867	-0.2455357142857143	1.043083900226757
3657.257080078125	-2.597464152090623	-2.54978293423667	7.705598882531659	40.72483141732953	-23.73073985612892	19.03741553769925	-0.01716738197424893	-0.2276785714285714	1.079365079365079
3661.163330078125	-2.43338372007144	-2.561524748657872	7.624086292858307	40.36784514534347	-23.74550520851564	18.67071123556757	-0.01716738197424893	-0.2276785714285714	1.079365079365079
3665.069580078125	-2.555031409347392	-2.550207261664102	7.543957261269852	40.0279785368658	-22.63805799939398	19.01255166152263	-0.01716738197424893	-0.2276785714285714	1.079365079365079
3668.975830078125	-2.717014859087711	-2.498082376661649	7.415771623056868	39.29979175939216	-22.68543746319719	17.9193250299637	-0.01716738197424893	-0.2276785714285714	1.079365079365079
3672.882080078125	-2.536215052375864	-2.590799465637858	7.703137890647588	38.58872464542691	-21.61060436549201	17.53464312649152	-0.01072961373390558	-0.2522321428571428	1.063492063492063
3676.788330078125	-2.555821313076714	-2.580502392929839	7.622947634201989	38.91351284924503	-21.2693648500152	17.17801426519728	-0.01072961373390558	-0.2522321428571428	1.063492063492063
3680.694580078125	-2.657438496682103	-2.276455918063482	7.58058436208791	37.83587900211511	-22.05585302850437	15.72547754917627	-0.01072961373390558	-0.2522321428571428	1.063492063492063
3684.600830078125	-2.515744140022457	-2.35868094243816	7.69686298183755	37.86344329796013	-20.5536200268166	16.79014319572377	-0.008583690987124463	-0.2165178571428571	1.072562358276644
3688.507080078125	-2.444862618052229	-2.288682686950791	7.751567927671843	37.46004472430461	-20.25975997514299	15.34028770287062	-0.008583690987124463	-0.2165178571428571	1.072562358276644
3692.413330078125	-2.527261422071934	-2.358565769617665	7.828183023519911	37.46671975547636	-19.51756785381399	15.69271151249659	-0.008583690987124463	-0.2165178571428571	1.072562358276644
3696.319580078125	-2.393789378196999	-2.208385338541263	7.746284758475404	36.38154670601666	-19.57971267000393	14.23278057880598	-0.008583690987124463	-0.2165178571428571	1.072562358276644
3700.225830078125	-2.637143342959007	-2.256456849398694	7.591885316308807	36.70633490983478	-19.23847315452711	13.87615171751175	-0.01072961373390558	-0.2075892857142857	1.081632653061225
3704.132080078125	-2.51588353479822	-2.12635631616717	7.710802459413809	35.31726292123024	-18.88181660583509	13.48509148203691	-0.01072961373390558	-0.2075892857142857	1.081632653061225
3708.038330078125	-2.352974826981099	-2.03707631233625	7.746462289946695	34.97072128158082	-18.51656151804244	13.474508098366	-0.01072961373390558	-0.2075892857142857	1.081632653061225
3711.944580078125	-2.302141992608707	-2.229503832599166	7.76521966903395	33.90266789562951	-17.45649377272398	12.72312189276213	-0.004291845493562232	-0.203125	1.065759637188209
3715.850830078125	-2.330847339031674	-2.209014758932916	7.574529821534734	33.56743505947475	-18.17775372838019	12.7236298355956	-0.004291845493562232	-0.203125	1.065759637188209
3719.757080078125	-2.353653618932639	-1.915857403204613	7.814341485100654	33.20000415515205	-18.57253952094629	12.00080461500315	-0.004291845493562232	-0.203125	1.065759637188209
3723.663330078125	-2.148790959123821	-2.039118151014823	7.736238769524971	31.78627330070934	-18.61375217146342	10.89380543377199	-0.004291845493562232	-0.203125	1.065759637188209
3727.569580078125	-2.272800278731172	-1.795453815394507	7.892272771076331	31.44263709106679	-17.14413328119214	11.23194875089225	0.008583690987124463	-0.2098214285714285	1.074829931972789
3731.475830078125	-2.158780959282334	-2.059220271215258	7.714830622110925	31.41711405407059	-16.07546699677305	10.86103939709231	0.008583690987124463	-0.2098214285714285	1.074829931972789
3735.382080078125	-2.264543622306054	-1.916748503170879	8.087015291829951	30.35659987044906	-15.73974261375384	10.11704740915803	0.008583690987124463	-0.2098214285714285	1.074829931972789
3739.288330078125	-2.252145526890889	-2.038084605337152	7.867613913578762	28.94286901600636	-15.78095526427097	9.010048227926866	0.01716738197424893	-0.1941964285714285	1.081632653061225
3743.194580078125	-2.138586816266311	-2.039220192443398	7.736232647039256	29.26679304866645	-13.97318026516591	8.998448958589018	0.01716738197424893	-0.1941964285714285	1.081632653061225
3747.100830078125	-2.29211966902393	-1.92657375280471	7.783395473821618	28.56703473819586	-13.98486221090959	8.624858381621216	0.01716738197424893	-0.1941964285714285	1.081632653061225
3751.007080078125	-2.46604666599758	-2.005642563643055	7.829156395676367	27.4923063210728	-13.66698658692015	7.521048366391377	0.01716738197424893	-0.1941964285714285	1.081632653061225
3754.913330078125	-2.294968170963427	-1.724525065765113	8.068245667771267	27.48186168873616	-14.04700702709953	7.164927447930611	0.02789699570815451	-0.1897321428571428	1.070294784580499
3758.819580078125	-2.47692960080663	-1.884321613082843	7.897041713316041	27.49984552340258	-14.39132994921938	7.528442584060965	0.02789699570815451	-0.1897321428571428	1.070294784580499
3762.725830078125	-2.353298061243737	-1.835052877973421	7.778785716210485	26.78587297943046	-14.42086065399283	6.795033979797603	0.02789699570815451	-0.1897321428571428	1.070294784580499
3766.632080078125	-2.518047184143752	-1.550577103916138	7.927167393967053	26.07567003662323	-14.8125630399159	6.065322484369034	0.02360515021459227	-0.1830357142857143	1.08390022675737
3770.538330078125	-2.437040307667532	-1.854417475711204	7.98974505246743	25.37968132731753	-15.1864166668092	5.695429016236026	0.02360515021459227	-0.1830357142857143	1.08390022675737
3774.444580078125	-2.476751821962179	-1.843919350467247	7.879263828870957	25.38258675732439	-14.08205286433058	6.044155717027204	0.02360515021459227	-0.1830357142857143	1.08390022675737
3778.350830078125	-2.376649798962904	-1.642900168677038	8.073143161596551	24.66484461218739	-13.74941188795441	5.307050003929048	0.02360515021459227	-0.1830357142857143	1.08390022675737
3782.257080078125	-2.297943946393837	-1.8154043989199	8.365823210812282	23.96885590288169	-14.12326551484771	4.937156535796039	0.04721030042918455	-0.1741071428571428	1.074829931972789
3786.163330078125	-2.569631538176778	-1.620768331082879	7.98356198094311	23.61940883322541	-14.86237422953367	4.577846451333945	0.04721030042918455	-0.1741071428571428	1.074829931972789
3790.069580078125	-2.306426866802801	-1.653703408099649	8.193707088443315	22.95184859092275	-15.20053033836745	4.927589037792058	0.04721030042918455	-0.1741071428571428	1.074829931972789
3793.975830078125	-2.427593745113079	-1.601986688811496	8.065496960287474	23.30215983173706	-15.92795710730973	4.941869530297767	0.0128755364806867	-0.1517857142857143	1.079365079365079
3797.882080078125	-2.579936691741362	-1.620665279547233	7.993669174136258	22.95271276208078	-16.66706582199569	4.582559445835674	0.0128755364806867	-0.1517857142857143	1.079365079365079
3801.788330078125	-2.429523049618199	-1.753482547281596	8.25842741079947	22.2358347881018	-17.80096032924776	3.500424140781133	0.0128755364806867	-0.1517857142857143	1.079365079365079
3805.694580078125	-2.541267607943722	-1.408930758263997	8.208393447433455	22.24250981927355	-17.05876820791876	3.852847950407105	0.0128755364806867	-0.1517857142857143	1.079365079365079
3809.600830078125	-2.419183552413209	-1.642474831142535	8.244885853565792	21.17909020564516	-17.82740762737816	2.760129261681649	0.0128755364806867	-0.1294642857142857	1.081632653061225
3813.507080078125	-2.256458684082964	-1.583496019219777	8.298929632786209	20.83254856599573	-17.46215253958551	2.749545878010734	0.0128755364806867	-0.1294642857142857	1.081632653061225
3817.413330078125	-2.368890115216594	-1.440957563494299	8.317582950230747	21.18576523681691	-17.08521550604917	3.112553071307621	0.0128755364806867	-0.1294642857142857	1.081632653061225
3821.319580078125	-2.481289222923958	-1.520641653225306	8.333003925048907	20.48600692634631	-17.09689745179285	2.738962494339819	0.03862660944206009	-0.1495535714285714	1.081632653061225
3825.225830078125	-2.480873058810812	-1.540847835068458	8.291387513734279	19.79292364704747	-16.36638727620753	2.717795726997989	0.03862660944206009	-0.1495535714285714	1.081632653061225
3829.132080078125	-2.419454261108168	-1.359643841227302	8.271956723061717	20.12148145203048	-16.38731944188034	2.36486397453855	0.03862660944206009	-0.1495535714285714	1.081632653061225
3833.038330078125	-2.501244980671286	-1.601250176455914	8.28776337325103	19.4397069762263	-16.74332430974388	2.354788533701102	0.03862660944206009	-0.1495535714285714	1.081632653061225
3836.944580078125	-2.542556504565991	-1.449321909701815	8.337283109660317	18.40471582960096	-17.47626621114376	1.981705899566766	0.05579399141630902	-0.1495535714285714	1.09750566893424
3840.850830078125	-2.512335997536909	-1.469826134974126	8.376456896548019	18.41139086077271	-16.73407408981476	2.334129709192739	0.05579399141630902	-0.1495535714285714	1.09750566893424
3844.757080078125	-2.316390604177474	-1.38087649799863	8.169672662645336	18.05063498762176	-16.38666776105186	1.963728298226263	0.05579399141630902	-0.1495535714285714	1.09750566893424
3848.663330078125	-2.339243349003693	-1.683678273580671	8.414130818736677	18.04309578529199	-15.66232439875262	1.956334080556676	0.0407725321888412	-0.1339285714285714	1.095238095238095
3852.569580078125	-2.267440609384947	-1.633891250471807	8.376713999719168	17.69945957564943	-14.19270550848134	2.294477397676939	0.0407725321888412	-0.1339285714285714	1.095238095238095
3856.475830078125	-2.21620777261254	-1.48288842732438	8.355471138804983	17.69192037331965	-13.4683621461821	2.287083180007351	0.0407725321888412	-0.1339285714285714	1.095238095238095
3860.382080078125	-2.236692826464937	-1.523087617189896	8.363160197514063	17.31695026666718	-13.13880457644897	1.556863741745315	0.0407725321888412	-0.1339285714285714	1.095238095238095
3864.288330078125	-2.522788626733822	-1.560630699591248	8.401311652974021	17.30187186200763	-11.69011785185049	1.54207530640614	0.02360515021459227	-0.1205357142857143	1.086167800453515
3868.194580078125	-2.369682039160056	-1.299535502840723	8.396775344577033	17.3010076908496	-10.22358236822225	1.887104898362524	0.02360515021459227	-0.1205357142857143	1.086167800453515
3872.100830078125	-2.246981818316389	-1.38157058585724	8.371651219394021	16.95823565236507	-10.22049896157921	1.880218623526403	0.02360515021459227	-0.1205357142857143	1.086167800453515
3876.007080078125	-2.474598232458494	-1.389395431816829	8.68431304176776	16.27936660656775	-9.472140026964134	2.218869883480133	0.0407725321888412	-0.1428571428571428	1.08390022675737
3879.913330078125	-2.442298925077822	-1.339213374385586	8.515606793496463	16.27936660656775	-9.472140026964134	2.218869883480133	0.0407725321888412	-0.1428571428571428	1.08390022675737
3883.819580078125	-2.360273860674292	-1.319831604827601	8.476365659265902	17.00755338404139	-9.424760563160925	3.312096515039056	0.0407725321888412	-0.1428571428571428	1.08390022675737
3887.725830078125	-2.258501120580007	-1.209738221117433	8.503173282490531	16.29735044123416	-9.816462949083991	2.582385019610487	0.0407725321888412	-0.1428571428571428	1.08390022675737
3891.632080078125	-2.380195274781214	-1.289329360383501	8.427690743427496	16.28981123890438	-9.092119586784753	2.5749908019409	0.05150214592274678	-0.1383928571428571	1.09297052154195
3895.538330078125	-2.686507440421678	-1.478185430646288	8.44666240951476	15.62515642660859	-8.325911893139912	3.27346008919019	0.05150214592274678	-0.1383928571428571	1.09297052154195
3899.444580078125	-2.371789122509627	-1.491433623926419	8.607483679534113	15.65735449477653	-8.652386056230004	3.996793252616104	0.05150214592274678	-0.1383928571428571	1.09297052154195
3903.350830078125	-2.319521936096778	-1.380845184679437	8.482805854575801	16.36088240641201	-9.002875791635939	4.3740809384187	0.04935622317596566	-0.1316964285714286	1.09750566893424
3907.257080078125	-2.362494076015786	-1.491526574391357	8.698387193415307	15.314582456292	-8.649302649586964	3.989906977779983	0.04935622317596566	-0.1316964285714286	1.09750566893424
3911.163330078125	-2.463709237007019	-1.520817453084475	8.61582165988564	14.64325261282446	-8.625287077271123	4.335952455403302	0.04935622317596566	-0.1316964285714286	1.09750566893424
3915.069580078125	-2.461129423548341	-1.611752342128153	8.357840314017768	15.68201336061469	-8.25451685702086	4.71273219837243	0.04935622317596566	-0.1316964285714286	1.09750566893424
3918.975830078125	-2.39298933216811	-1.349807480415693	8.686688318851827	14.99269968248074	-7.886178362585161	4.695262539865395	0.05793991416309013	-0.1160714285714286	1.090702947845805
3922.882080078125	-2.534867528314632	-1.297883647949177	8.588793647789718	15.70376679644599	-8.961011460290337	5.079944443337579	0.05793991416309013	-0.1160714285714286	1.090702947845805
3926.788330078125	-2.678986141944063	-1.215634381004802	8.714940725018501	15.01531728947007	-10.05920844948288	4.717445192874158	0.05793991416309013	-0.1160714285714286	1.090702947845805
3930.694580078125	-2.49430752408056	-1.207380157082427	8.614425877443743	15.38651779495765	-10.02659433806639	5.4439675223014	0.05150214592274678	-0.1183035714285714	1.104308390022676
3934.600830078125	-2.434795808527479	-1.046359112621796	8.785703301727542	14.37241591300558	-9.99949535910751	5.783126725088597	0.05150214592274678	-0.1183035714285714	1.104308390022676
3938.507080078125	-2.547501988784351	-1.28765629324347	8.831831531496302	14.38372471650024	-11.08601040255637	5.794218051592979	0.05150214592274678	-0.1183035714285714	1.104308390022676
3942.413330078125	-2.609452102806206	-1.256733761800221	8.904393954089969	14.40170855116665	-11.43033332467622	6.157733187723333	0.05150214592274678	-0.1183035714285714	1.104308390022676
3946.319580078125	-2.476163898418146	-1.13685452263198	8.840879637732991	15.79745557094295	-11.04479775203924	6.901217232824144	0.05793991416309013	-0.1116071428571428	1.102040816326531
3950.225830078125	-2.260903155194235	-1.078401069458159	8.74337674391332	15.12235612631052	-10.65861049857378	7.243565601612668	0.05793991416309013	-0.1116071428571428	1.102040816326531
3954.132080078125	-2.241005983657011	-1.068499031072521	8.79447591672151	14.74448058965119	-11.43341673131926	6.164619462559454	0.05793991416309013	-0.1116071428571428	1.102040816326531
3958.038330078125	-2.312982461691925	-0.9970721955851011	8.849266577355804	15.46135856363016	-10.2995222240672	7.246754767613995	0.06437768240343347	-0.1049107142857143	1.077097505668934
3961.944580078125	-2.352508116285556	-1.127990070352296	8.720199383657652	15.4718031959668	-9.919501783887815	7.602875686074761	0.06437768240343347	-0.1049107142857143	1.077097505668934
3965.850830078125	-2.414773383713483	-1.076862367172966	8.824277146858513	15.12526155631738	-9.554246696095158	7.592292302403846	0.06437768240343347	-0.1049107142857143	1.077097505668934
3969.757080078125	-2.282291244767877	-1.128692239067473	8.841369374746863	14.42927284701168	-9.92810032298846	7.222398834270838	0.06437768240343347	-0.1049107142857143	1.077097505668934
3973.663330078125	-2.212074373250197	-1.12939440778265	8.962539365836072	14.42550324584679	-9.565928641838841	7.218701725436044	0.06223175965665236	-0.1138392857142857	1.086167800453515
3977.569580078125	-2.304309641153662	-1.138573065204625	9.002392686794796	14.7891645490046	-8.808971168123115	7.937829837193697	0.06223175965665236	-0.1138392857142857	1.086167800453515
3981.475830078125	-2.274085093696297	-0.9974611692650573	9.041162430854198	14.42840867585365	-8.46156483936022	7.567428426227222	0.06223175965665236	-0.1138392857142857	1.086167800453515
3985.382080078125	-2.067838587200561	-1.070230705037086	8.824675046586666	14.44552833936204	-7.339352277851837	8.275973154313961	0.08583690987124463	-0.09821428571428571	1.099773242630385
3989.288330078125	-2.30302882538796	-0.91636365114006	8.874311110224527	14.05634399920804	-7.027643467148466	7.185935688756365	0.08583690987124463	-0.09821428571428571	1.099773242630385
3993.194580078125	-2.17018910853931	-1.059106189722688	8.85564554780856	14.75146853735572	-5.187254356626922	7.900858748845758	0.08583690987124463	-0.09821428571428571	1.099773242630385
3997.100830078125	-2.017654241567585	-1.191944669705536	8.908281299615648	14.40492689770629	-4.821999268834263	7.890275365174843	0.08583690987124463	-0.09821428571428571	1.099773242630385
4001.007080078125	-2.056078879454105	-0.9693382011044489	8.669112435206461	14.04417102455535	-4.474592940071367	7.519873954208368	0.06652360515021459	-0.09375	1.104308390022676
4004.913330078125	-2.212595588498701	-0.765752831993801	9.014660890686434	14.04040142339046	-4.112421258921747	7.516176845373574	0.06652360515021459	-0.09375	1.104308390022676
4008.819580078125	-2.303139937165742	-1.067877691537434	8.885422288002705	14.71463669686486	-3.032073028758968	7.518858068541435	0.06652360515021459	-0.09375	1.104308390022676
4012.725830078125	-2.214666307993725	-1.018257377324103	9.221732840188839	14.01778381640113	-1.939391172024032	7.49399419236481	0.07725321888412018	-0.09598214285714285	1.079365079365079
4016.632080078125	-2.162237504449558	-1.008680655258535	9.08089330209863	14.36346128489253	-0.8381107761884502	7.84960716799211	0.07725321888412018	-0.09598214285714285	1.079365079365079
4020.538330078125	-2.283226603915385	-0.9165616733547857	8.934905289497705	14.35215248139786	0.2484042672604078	7.838515841487728	0.07725321888412018	-0.09598214285714285	1.079365079365079
4024.444580078125	-2.028058385625103	-0.858507294931628	8.928287542102083	14.34547745022611	-0.4937878540685937	7.486092031861755	0.07725321888412018	-0.09598214285714285	1.079365079365079
4028.350830078125	-2.181558914956458	-0.9680834007494254	8.972218026258066	15.03769655836693	0.2422374539743292	7.85228839115997	0.06866952789699571	-0.09375	1.086167800453515
4032.257080078125	-2.018341114375691	-0.8889074979471524	8.976968580426202	14.34170784906123	-0.1316161729189743	7.482394923026962	0.06866952789699571	-0.09375	1.086167800453515
4036.163330078125	-2.285129645636665	-0.7751285015234315	9.125209461625767	14.68071028638087	0.2274721015876057	7.485584089028289	0.06866952789699571	-0.09375	1.086167800453515
4040.069580078125	-2.293257008356728	-0.5326229854719884	8.917537570366632	14.68361571638773	1.331835904066226	7.834310789819467	0.0407725321888412	-0.078125	1.111111111111111
4043.975830078125	-2.529766446378518	-0.873692234526114	9.099093617443586	15.02638775487227	1.328752497423187	7.841197064655588	0.0407725321888412	-0.078125	1.111111111111111
4047.882080078125	-2.264874896196398	-0.856139129825915	9.140550844129638	14.63720341471827	1.640461308126558	6.751159599097992	0.0407725321888412	-0.078125	1.111111111111111
4051.788330078125	-2.281866999798164	-0.8256661784868669	8.798944877775638	14.3190902420719	2.041413913978742	7.460212270018197	0.0407725321888412	-0.078125	1.111111111111111
4055.694580078125	-2.281784171018364	-0.7953639764716346	8.790661999795542	14.31532064090701	2.403585595128361	7.456515161183404	0.04506437768240344	-0.08035714285714285	1.099773242630385
4059.600830078125	-2.282879127083049	-0.6539388854968463	8.900157606264131	14.32285984323679	1.679242232829122	7.463909378852992	0.04506437768240344	-0.08035714285714285	1.099773242630385
4063.507080078125	-2.282784177018399	-0.6438388248964827	8.890662599799143	13.93367550308279	1.990951043532493	6.373871913295396	0.04506437768240344	-0.08035714285714285	1.099773242630385
