Time Stamp	Accelerometer X	Accelerometer Y	Accelerometer Z	Gyroscope X	Gyroscope Y	Gyroscope Z	Magnetometer X	Magnetometer Y	Magnetometer Z
1077.178955078125	2.653053271442696	-0.9659244721083665	9.184468774097741	-3.037671873533306	-1.747410227901218	0.6761451252400008	-0.1952789699570815	-0.9308035714285714	0.6122448979591837
1081.085205078125	-3.470681224004887	-8.6117578342246	2.170163216815212	-42.86475031275328	33.68428833047209	-1.553850119775614	-0.1695278969957082	-0.9508928571428571	0.5850340136054422
1084.991455078125	-3.388060196429618	-8.238846670762978	2.071325765410788	8.899927945529866	61.41145537331114	-1.874964915685824	-0.1695278969957082	-0.9508928571428571	0.5850340136054422
1088.897705078125	-3.35905383809957	-8.592672087881631	2.23191442220185	32.24091421775101	86.85934339947511	-2.741760761150522	-0.1695278969957082	-0.9508928571428571	0.5850340136054422
1092.803955078125	-3.327805042072471	-8.643489626346954	2.16825930928787	34.67830408589659	109.2000765824584	-4.714981446696581	-0.1695278969957082	-0.9508928571428571	0.5850340136054422
1096.710205078125	-3.56079526705979	-8.62095770389506	1.997894052917812	30.79707780300171	128.1740140294906	-2.824071965529836	-0.1738197424892704	-0.9821428571428571	0.6031746031746031
1100.616455078125	-3.274022695053507	-8.532916338706032	1.892065423718043	25.88518122927161	139.0823321569817	-3.03139307827935	-0.1738197424892704	-0.9821428571428571	0.6031746031746031
1104.522705078125	-3.192809756734855	-8.675142609503361	1.934036897975253	4.490514165408165	-10.27013515369767	-1.606049516233997	-0.1738197424892704	-0.9821428571428571	0.6031746031746031
1108.428955078125	-3.27872777378903	-8.603576358625748	2.362573297270334	3.765545734474165	-3.709180561658914	-0.9667339703414096	-0.167381974248927	-0.9553571428571428	0.5873015873015873
1112.335205078125	-3.398842120531593	-8.622577235360342	2.129110012343026	2.7175174420381	-0.4225364523534591	-0.6608487470673581	-0.167381974248927	-0.9553571428571428	0.5873015873015873
1116.241455078125	-3.55902959990013	-8.701783441374737	1.82132733695186	1.341795515777054	1.418504338996557	-0.3470613632902518	-0.167381974248927	-0.9553571428571428	0.5873015873015873
1120.147705078125	-3.29582088809787	-8.573102397179628	2.031068401623768	-0.7537098144698285	1.021286820615886	-1.464135985358865	-0.167381974248927	-0.9553571428571428	0.5873015873015873
1124.053955078125	-3.285261187551459	-8.492399913377012	1.995506510247885	-1.407919994428984	2.16751495444011	-0.4095457796488081	-0.1695278969957082	-0.9419642857142857	0.5941043083900227
1127.960205078125	-3.368888281769188	-8.703684854556048	2.194950625898355	-1.732708198247104	1.826275438963293	-0.052916918354575	-0.1695278969957082	-0.9419642857142857	0.5941043083900227
1131.866455078125	-3.378098479269087	-8.845006893995189	2.095562212622915	-2.435371938724554	0.7102296907409881	-0.7752341961135557	-0.1695278969957082	-0.9419642857142857	0.5941043083900227
1135.772705078125	-3.399957278737694	-8.784182245394442	2.240625832953102	-2.774374376044199	0.351141416234408	-0.7784233621148828	-0.1738197424892704	-0.9575892857142857	0.6077097505668935
1139.678955078125	-3.367005442189322	-8.643097622345786	2.006666667911779	-1.717629793587552	0.3775887143648157	-0.03812848301539919	-0.1738197424892704	-0.9575892857142857	0.6077097505668935
1143.585205078125	-3.395145128652672	-8.723624306289231	1.759410824450929	-1.710090591257776	-0.346754647934423	-0.03073426534581129	-0.1738197424892704	-0.9575892857142857	0.6077097505668935
1147.491455078125	-3.36818524724795	-8.865308046517422	2.124647173774612	-2.416523932900115	-1.100628715007109	-0.756748651939586	-0.1738197424892704	-0.9575892857142857	0.6077097505668935
1151.397705078125	-3.163603397204799	-8.857252854916842	2.074625434765596	-1.737654887102798	-1.848987649622189	-1.095399911893316	-0.1523605150214592	-0.9508928571428571	0.6009070294784581
1155.303955078125	-3.367146857179226	-8.744106309205989	2.020808166902187	-1.706320990092888	-0.7089263290840423	-0.02703715651101733	-0.1523605150214592	-0.9508928571428571	0.6009070294784581
1159.210205078125	-3.33501926800058	-8.744427585097775	1.869273738833528	-1.367318552773243	-0.3498380545774623	-0.02384799050969024	-0.1523605150214592	-0.9508928571428571	0.6009070294784581
1163.116455078125	-3.234921285429588	-8.705024524519443	2.06355711438742	-2.067076863243833	-0.3615200003211465	-0.3974385674774926	-0.1716738197424893	-0.9419642857142857	0.5873015873015873
1167.022705078125	-3.318439288083677	-8.593078233381789	2.252092073673861	-2.081291096745358	-0.3793687593509092	-0.7572565947730527	-0.1716738197424893	-0.9419642857142857	0.5873015873015873
1170.928955078125	-3.452596184552576	-8.611938684619121	2.402475598114772	-2.409848901728366	-0.3584365936781072	-0.4043248423136136	-0.1716738197424893	-0.9419642857142857	0.5873015873015873
1174.835205078125	-3.337467767540062	-8.703999059698338	2.114123692781737	-2.052862629742309	-0.3436712412913837	-0.03762054018193234	-0.1716738197424893	-0.9419642857142857	0.5873015873015873
1178.741455078125	-3.111002875458605	-8.797172799528242	1.91661407647275	-2.07752149558047	-0.7415404405005285	-0.7535594859382588	-0.1695278969957082	-0.96875	0.5986394557823129
1182.647705078125	-3.234383908467953	-8.927252120511282	2.009819418223869	-2.056632230907196	0.01850043985823565	-0.04131764901672629	-0.1695278969957082	-0.96875	0.5986394557823129
1186.553955078125	-3.52068577057927	-8.621358798859866	2.068577057926995	-2.420293534065002	-0.7384570338574893	-0.7604457607743799	-0.1695278969957082	-0.96875	0.5986394557823129
1190.460205078125	-3.451361833712128	-8.9856884018649	2.279040514069925	-1.706320990092888	-0.7089263290840423	-0.02703715651101733	-0.1587982832618026	-0.9620535714285714	0.5804988662131519
1194.366455078125	-3.255796240611292	-8.93713900729086	2.110236306027196	-2.416523932900115	-1.100628715007109	-0.756748651939586	-0.1587982832618026	-0.9620535714285714	0.5804988662131519
1198.272705078125	-3.366954936835785	-8.895623379924574	2.001616132558062	-2.759295971384648	-1.097545308364069	-0.763634926775707	-0.1587982832618026	-0.9620535714285714	0.5804988662131519
1202.178955078125	-3.44799615695241	-8.702893775804213	1.942472838098212	-2.416523932900115	-1.100628715007109	-0.756748651939586	-0.1587982832618026	-0.9620535714285714	0.5804988662131519
1206.085205078125	-3.605175496235414	-8.741726022815426	2.354284317418954	-2.406079300563478	-0.7206082748277266	-0.4006277334788196	-0.1630901287553648	-0.9508928571428571	0.5986394557823129
1209.991455078125	-3.306176547015992	-8.8255240931157	2.046226130170634	-1.710090591257776	-0.346754647934423	-0.03073426534581129	-0.1630901287553648	-0.9508928571428571	0.5986394557823129
1213.897705078125	-3.417874640416261	-8.89511418288877	1.9915456742792	-2.406079300563478	-0.7206082748277266	-0.4006277334788196	-0.1630901287553648	-0.9508928571428571	0.5986394557823129
1217.803955078125	-3.33783140608553	-8.602985322302784	2.1504875473285	-2.409848901728366	-0.3584365936781072	-0.4043248423136136	-0.1416309012875537	-0.9575892857142857	0.5600907029478458
1221.710205078125	-3.225545430370088	-8.503098081049835	2.146379771702667	-2.388095465897065	-1.064931196947583	-0.03711259734846548	-0.1416309012875537	-0.9575892857142857	0.5600907029478458
1225.616455078125	-3.358859897541987	-8.915906350519531	2.212520366443576	-2.406079300563478	-0.7206082748277266	-0.4006277334788196	-0.1416309012875537	-0.9575892857142857	0.5600907029478458
1229.522705078125	-3.458161915741233	-8.93511535053956	1.938640553715102	-2.734637105546486	-0.6996761091549245	-0.04769598101938048	-0.1416309012875537	-0.9575892857142857	0.5600907029478458
1233.428955078125	-3.295800685956455	-8.775122801221244	2.029048187482281	-2.056632230907196	0.01850043985823565	-0.04131764901672629	-0.1695278969957082	-0.9419642857142857	0.562358276643991
1237.335205078125	-3.418030196905156	-8.804203536414789	2.007101323168649	-1.710954762415803	1.119780835693817	0.3142953266105731	-0.1695278969957082	-0.9419642857142857	0.562358276643991
1241.241455078125	-3.317105946750296	-8.795111768815326	2.118757940335728	-2.406943471721505	0.7459272088005136	-0.05559814152243525	-0.1695278969957082	-0.9419642857142857	0.562358276643991
1245.147705078125	-3.286927864218185	-8.744908499135599	2.162174176920552	-2.752620940212899	-0.3553531870350679	-0.4112111171497347	-0.1738197424892704	-0.9441964285714285	0.6009070294784581
1249.053955078125	-3.347605243330904	-8.81500879605154	2.107463108600545	-1.703415560086027	0.3954374733945785	0.3216895442801611	-0.1738197424892704	-0.9441964285714285	0.6009070294784581
1252.960205078125	-3.419682732072892	-8.743580950457051	2.172354839942274	-2.060401832072084	0.380672121007855	-0.04501475785152025	-0.1738197424892704	-0.9441964285714285	0.6009070294784581
1256.866455078125	-3.308322014434251	-8.785098598037479	2.26077287199654	-2.748851339048011	-0.7175248681846873	-0.4075140083149407	-0.1738197424892704	-0.9441964285714285	0.6009070294784581
1260.772705078125	-3.398910807812404	-8.844798770709756	2.135978740424082	-2.395634668226841	-0.3405878346483444	-0.04450681501805339	-0.1587982832618026	-0.9486607142857142	0.564625850340136
1264.678955078125	-3.398916868454829	-8.834697700002321	2.136584804666528	-2.04618759857056	0.3985208800376177	0.31480326944404	-0.1587982832618026	-0.9486607142857142	0.564625850340136
1268.585205078125	-3.318994846972586	-8.845597930318153	2.307647962564749	-2.067076863243833	-0.3615200003211465	-0.3974385674774926	-0.1587982832618026	-0.9486607142857142	0.564625850340136
1272.491455078125	-3.359138687093512	-8.956307603028057	2.240399321596095	-2.052862629742309	-0.3436712412913837	-0.03762054018193234	-0.1609442060085837	-0.9486607142857142	0.5804988662131519
1276.397705078125	-3.245664825462875	-8.816028200230221	2.117502954450834	-2.424063135229891	-0.3762853527078699	-0.7641428696091739	-0.1609442060085837	-0.9486607142857142	0.5804988662131519
1280.303955078125	-3.347825446672326	-8.784703563715096	2.129483442742751	-2.056632230907196	0.01850043985823565	-0.04131764901672629	-0.1609442060085837	-0.9486607142857142	0.5804988662131519
1284.210205078125	-3.174332795739096	-8.655125358911299	2.127157124929969	-2.056632230907196	0.01850043985823565	-0.04131764901672629	-0.1609442060085837	-0.9486607142857142	0.5804988662131519
1288.116455078125	-3.338257671269384	-8.734294190964077	2.193114065713873	-1.734749457095937	-0.7446238471435678	-0.7466732111021378	-0.1630901287553648	-0.953125	0.5736961451247166
1292.022705078125	-3.509833138982343	-8.692174395882907	2.003722061499551	-2.395634668226841	-0.3405878346483444	-0.04450681501805339	-0.1630901287553648	-0.953125	0.5736961451247166
1295.928955078125	-3.359902328038994	-8.693673703992339	2.316763416144298	-1.367318552773243	-0.3498380545774623	-0.02384799050969024	-0.1630901287553648	-0.953125	0.5736961451247166
1299.835205078125	-3.327677768581557	-8.855612111203076	2.155531960196503	-1.371088153938131	0.0123336265721571	-0.02754509934448419	-0.1652360515021459	-0.9553571428571428	0.5850340136054422
1303.741455078125	-3.389266264272086	-8.75398612523607	2.191932549657554	-1.713860192422664	0.01541703321519637	-0.03443137418060524	-0.1652360515021459	-0.9553571428571428	0.5850340136054422
1307.647705078125	-3.521550422231826	-8.863774394767583	2.155042223182633	-2.07752149558047	-0.7415404405005285	-0.7535594859382588	-0.1652360515021459	-0.9553571428571428	0.5850340136054422
1311.553955078125	-3.369356971450013	-8.7642862282653	2.24181959398085	-1.748963690597462	-0.7624726061733306	-1.106491238397698	-0.1652360515021459	-0.9553571428571428	0.5850340136054422
1315.460205078125	-3.461117489030228	-8.722964582685456	2.234197882614631	-1.7243048247593	-0.3646034069641857	-0.3905522926413715	-0.1716738197424893	-0.9441964285714285	0.5895691609977325
1319.366455078125	-3.430343443326378	-8.824282424152596	2.218017802025592	-1.381532786274768	-0.367686813607225	-0.3836660178052504	-0.1716738197424893	-0.9441964285714285	0.5895691609977325
1323.272705078125	-3.326253517611808	-8.70411120219762	2.013106863221679	-2.085060697910246	-0.01719707820128988	-0.7609537036078468	-0.1716738197424893	-0.9441964285714285	0.5895691609977325
1327.178955078125	-3.266519578503165	-8.745112581992748	2.162161931949123	-1.374857755103019	0.3745053077217764	-0.03124220817927815	-0.1716738197424893	-0.9419642857142857	0.6031746031746031
1331.085205078125	-3.321550417861567	-8.795067324104213	2.563205051462838	-1.032085716618486	0.3714219010787372	-0.0243559333431571	-0.1716738197424893	-0.9419642857142857	0.6031746031746031
1334.991455078125	-3.359954853606673	-8.774481259544743	2.322015972912165	-1.371088153938131	0.0123336265721571	-0.02754509934448419	-0.1716738197424893	-0.9419642857142857	0.6031746031746031
1338.897705078125	-3.409268486944667	-8.925503274726514	2.151338490385097	-1.409961253277817	-0.4033843316667505	-1.103302072396371	-0.1716738197424893	-0.9419642857142857	0.6031746031746031
1342.803955078125	-3.316542307004821	-8.724410334505709	2.062393965788244	-1.028316115453598	0.009250219929117825	-0.02065882450836315	-0.1695278969957082	-0.953125	0.5736961451247166
1346.710205078125	-3.317402918229094	-8.805209809201548	2.148455088215584	-1.02164108428185	0.7514423412581193	0.3317649851176092	-0.1695278969957082	-0.953125	0.5736961451247166
1350.616455078125	-3.214593808280227	-8.907248001311137	2.071625725981938	-1.028316115453598	0.009250219929117825	-0.02065882450836315	-0.1695278969957082	-0.953125	0.5736961451247166
1354.522705078125	-3.378480299741827	-8.713689944477331	2.133744259897017	-1.046299950120011	0.3535731420489744	-0.3841739606387173	-0.1802575107296137	-0.96875	0.5827664399092971
1358.428955078125	-3.592322852638414	-8.610541417938263	2.089428120984311	-1.378627356267907	0.7366769888713958	-0.0349393170140721	-0.1802575107296137	-0.96875	0.5827664399092971
1362.335205078125	-3.390840011088304	-8.824677458474978	2.349307231279381	-0.6608852111309039	0.4040360124952234	0.7021663960840844	-0.1802575107296137	-0.96875	0.5827664399092971
1366.241455078125	-3.512784671843055	-8.82345801186743	2.298875347570783	-0.6893136781339535	0.3683384944356979	-0.01746965850703605	-0.1802575107296137	-0.96875	0.5827664399092971
1370.147705078125	-3.562736692849759	-8.752251420950293	2.1920366319147	-0.6646548122957918	0.7662076936448428	0.6984692872492905	-0.167381974248927	-0.9575892857142857	0.5736961451247166
1374.053955078125	-3.305000782385647	-8.764929790155945	1.928649667136098	-0.6893136781339535	0.3683384944356979	-0.01746965850703605	-0.167381974248927	-0.9575892857142857	0.5736961451247166
1377.960205078125	-3.389474346328659	-8.743883034314495	2.212740755314868	-0.7006224816286173	1.454853537884556	-0.02856098501141791	-0.167381974248927	-0.9575892857142857	0.5736961451247166
1381.866455078125	-3.522358507888421	-8.863766313911016	2.235850788842107	-0.6959887093057022	-0.3738536268933035	-0.3698934681330084	-0.1416309012875537	-0.9620535714285714	0.5850340136054422
1385.772705078125	-3.377748982222609	-8.754101298056563	2.060612507975192	-1.028316115453598	0.009250219929117825	-0.02065882450836315	-0.1416309012875537	-0.9620535714285714	0.5850340136054422
1389.678955078125	-3.530293950265042	-8.772777868578158	2.008986863238846	0.00667503117174888	0.7421921213290015	0.3524238096259723	-0.1416309012875537	-0.9620535714285714	0.5850340136054422
1393.585205078125	-3.083168241330619	-8.544925893344272	2.194375153470051	-0.7035279116354782	0.3504897354059351	-0.3772876858025963	-0.1416309012875537	-0.9620535714285714	0.5850340136054422
1397.491455078125	-3.277006551340483	-8.947027914284575	2.190451052415654	-0.6893136781339535	0.3683384944356979	-0.01746965850703605	-0.1609442060085837	-0.9486607142857142	0.564625850340136
1401.397705078125	-3.40966646913054	-8.935600305005666	2.191136708972388	-0.3360970073127839	0.7452755279720408	0.3455375347898513	-0.1609442060085837	-0.9486607142857142	0.564625850340136
1405.303955078125	-3.487849086236962	-8.79340433742046	1.846133113492147	-0.3503112408143086	0.727426768942278	-0.01428049250570896	-0.1609442060085837	-0.9486607142857142	0.564625850340136
1409.210205078125	-3.367995347118651	-8.845107925316695	2.105657160844635	0.00667503117174888	0.7421921213290015	0.3524238096259723	-0.1630901287553648	-0.9508928571428571	0.5759637188208617
1413.116455078125	-3.338625350243134	-8.794896574780399	2.229881963088934	-0.3607558731509455	0.3474063287628959	-0.3704014109664752	-0.1630901287553648	-0.9508928571428571	0.5759637188208617
1417.022705078125	-3.235418258108394	-8.886837736610838	2.113254382267997	-0.01798383466641273	0.3443229221198566	-0.3635151361303542	-0.1630901287553648	-0.9508928571428571	0.5759637188208617
1420.928955078125	-3.295057247152389	-8.835736296215345	1.954704307075565	-0.3607558731509455	0.3474063287628959	-0.3704014109664752	-0.1630901287553648	-0.9508928571428571	0.5759637188208617
1424.835205078125	-3.53277881365907	-8.671742918934118	2.257473202641731	-0.3607558731509455	0.3474063287628959	-0.3704014109664752	-0.1630901287553648	-0.9508928571428571	0.5759637188208617
1428.741455078125	-3.213547337354937	-8.462814021575946	1.966978633452918	0.3314632349898689	1.083431636805819	-0.004205051668260811	-0.1630901287553648	-0.9508928571428571	0.5759637188208617
1432.647705078125	-3.336748571305693	-8.724208271862702	2.042204069344804	0.3210186026532321	0.7034111966264366	-0.3603259701290271	-0.1630901287553648	-0.9508928571428571	0.5759637188208617
1436.553955078125	-3.223630267363958	-8.664733394296059	1.954863471089712	-0.01798383466641273	0.3443229221198566	-0.3635151361303542	-0.148068669527897	-0.9464285714285714	0.6009070294784581
1440.460205078125	-3.407743225267844	-8.774003375828132	1.998812322702838	-0.3540808419791966	1.089598450091897	-0.01797760134050291	-0.148068669527897	-0.9464285714285714	0.6009070294784581
1444.366455078125	-3.376732814509441	-8.764212469834705	1.958995736658403	-0.3749701066524703	0.3295575697331331	-0.7302194382620355	-0.148068669527897	-0.9464285714285714	0.6009070294784581
1448.272705078125	-3.479885360862361	-8.763180944371177	2.070168739297326	-0.7177421451370031	0.3326409763761723	-0.7371057130981565	-0.148068669527897	-0.9464285714285714	0.6009070294784581
1452.178955078125	-3.318455449796809	-8.7344922131788	2.25370824498705	-0.01507840465955181	1.448686724598477	-0.01478843533917581	-0.148068669527897	-0.9464285714285714	0.6009070294784581
1456.085205078125	-3.234933406714438	-8.684822383104574	2.064769242872312	-0.7072975128003661	0.7126614165555545	-0.3809847946373902	-0.148068669527897	-0.9464285714285714	0.6009070294784581
1459.991455078125	-3.459755864698866	-8.803786279736851	2.098035449478416	-0.3682950754807214	1.071749691062134	-0.3777956286360631	-0.148068669527897	-0.9464285714285714	0.6009070294784581
1463.897705078125	-3.419605963935516	-8.703177677734384	2.164678026204625	-0.01507840465955181	1.448686724598477	-0.01478843533917581	-0.1802575107296137	-0.9575892857142857	0.5827664399092971
1467.803955078125	-3.408508886427468	-8.844702789923605	2.07537843866519	-0.3720646766456093	1.433921372211754	-0.3814927374708571	-0.1802575107296137	-0.9575892857142857	0.5827664399092971
1471.710205078125	-3.25592957474463	-8.714915451727304	2.123569719361009	-0.714836715130142	1.437004778854793	-0.3883790123069781	-0.1802575107296137	-0.9575892857142857	0.5827664399092971
1475.616455078125	-3.346736551250064	-8.91602758398245	2.020593900516609	-1.074728417123061	0.3178756239894489	-1.103810015229838	-0.1802575107296137	-0.9575892857142857	0.5827664399092971
1479.522705078125	-3.234212190265926	-8.876748787188253	1.992647598021231	-1.392841589769432	0.718828229841633	-0.3947573443096323	-0.1802575107296137	-0.9575892857142857	0.5827664399092971
1483.428955078125	-3.379643943087324	-8.794486388851956	2.250108594446661	-0.6864082481270926	1.472702296914319	0.3312570422841423	-0.1802575107296137	-0.9575892857142857	0.5827664399092971
1487.335205078125	-3.471143853043287	-8.682460278641287	2.216426120655261	-1.053839152449787	1.077916504348213	-0.3915681783083053	-0.1802575107296137	-0.9575892857142857	0.5827664399092971
1491.241455078125	-3.225810078422623	-8.735418666892542	2.172844576956145	-0.6864082481270926	1.472702296914319	0.3312570422841423	-0.1652360515021459	-0.9508928571428571	0.5963718820861679
1495.147705078125	-3.171805507848096	-8.82686780350738	1.874428335829962	-0.6826386469622047	1.110530615764699	0.3349541511189363	-0.1652360515021459	-0.9508928571428571	0.5963718820861679
1499.053955078125	-3.3770035232044	-8.986431984969979	1.986066606154327	-1.025410685446737	1.113614022407738	0.3280678762828152	-0.1652360515021459	-0.9508928571428571	0.5963718820861679
1502.960205078125	-3.427925246999019	-8.814205596014858	1.976198169289614	-1.364413122766382	0.7545257479011586	0.3248787102814881	-0.1652360515021459	-0.9508928571428571	0.5963718820861679
1506.866455078125	-3.263759965985893	-8.967362400340143	1.886200680222016	-1.717629793587552	0.3775887143648157	-0.03812848301539919	-0.1652360515021459	-0.9508928571428571	0.5963718820861679
1510.772705078125	-3.531380825473161	-8.813171040230118	2.11767438405084	-1.713860192422664	0.01541703321519637	-0.03443137418060524	-0.1652360515021459	-0.9508928571428571	0.5963718820861679
1514.678955078125	-3.562065981754786	-8.691652067455182	2.124965522417336	-1.371088153938131	0.0123336265721571	-0.02754509934448419	-0.1652360515021459	-0.9508928571428571	0.5963718820861679
1518.585205078125	-3.541465775696324	-8.843373221030918	2.105761243101782	-1.350198889264858	0.7723745069309212	0.6846967375770483	-0.1695278969957082	-0.9709821428571428	0.5850340136054422
1522.491455078125	-3.397286555642649	-8.52158268999913	1.973553523448538	-1.007426850780325	0.7692911002878819	0.6915830124131694	-0.1695278969957082	-0.9709821428571428	0.5850340136054422
1526.397705078125	-3.61291497784031	-8.640638526989274	2.10782431464327	-1.046299950120011	0.3535731420489744	-0.3841739606387173	-0.1695278969957082	-0.9709821428571428	0.5850340136054422
1530.303955078125	-3.480081321634085	-8.773279994864469	2.089764816469748	-2.063307262078945	-0.7236916814707658	-0.3937414586426986	-0.1695278969957082	-0.9709821428571428	0.5850340136054422
1534.210205078125	-3.388452117973066	-8.76409527680007	2.110517919755633	-1.356873920436606	0.03018238560191986	0.332272927951076	-0.1695278969957082	-0.9709821428571428	0.5850340136054422
1538.116455078125	-3.399056263230591	-8.602373073731332	2.150524282242787	-1.710090591257776	-0.346754647934423	-0.03073426534581129	-0.1695278969957082	-0.9709821428571428	0.5850340136054422
1542.022705078125	-3.326902006351226	-8.633397646603157	2.077955737163407	-2.063307262078945	-0.7236916814707658	-0.3937414586426986	-0.1695278969957082	-0.9709821428571428	0.5850340136054422
1545.928955078125	-3.255941696029479	-8.694713310312435	2.124781847845901	-1.363548951608355	-0.7120097357270816	-0.02015088167489629	-0.167381974248927	-0.9486607142857142	0.5941043083900227
1549.835205078125	-3.227250491105503	-8.523283050644503	2.316885845244159	-1.381532786274768	-0.367686813607225	-0.3836660178052504	-0.167381974248927	-0.9486607142857142	0.5941043083900227
1553.741455078125	-3.265444824579894	-8.684517268925918	2.054686539622021	-2.07752149558047	-0.7415404405005285	-0.7535594859382588	-0.167381974248927	-0.9486607142857142	0.5941043083900227
1557.647705078125	-3.347354736777359	-8.895819381925158	2.082412453246107	-1.728074425924188	-0.002431725814566389	-0.3942494014761655	-0.167381974248927	-0.9486607142857142	0.5941043083900227
1561.553955078125	-3.276671195792996	-8.664202985011768	2.156915497666971	-1.374857755103019	0.3745053077217764	-0.03124220817927815	-0.167381974248927	-0.9486607142857142	0.5941043083900227
1565.460205078125	-3.215577652567132	-8.614308869938975	2.170010154672349	-1.378627356267907	0.7366769888713958	-0.0349393170140721	-0.167381974248927	-0.9486607142857142	0.5941043083900227
1569.366455078125	-3.327548474876502	-8.734401282928005	2.142602589690987	-2.088830299075134	0.3449746029483294	-0.7646508124426407	-0.167381974248927	-0.9486607142857142	0.5941043083900227
1573.272705078125	-3.24505876122043	-8.816034260872645	2.056896530206227	-1.407055823270956	0.7009794708118703	-0.7545753716051926	-0.1545064377682404	-0.9464285714285714	0.5873015873015873
1577.178955078125	-3.51967970393681	-8.782985021142453	1.967970393680949	-1.389936159762571	1.823192032320254	-0.04603064351845396	-0.1545064377682404	-0.9464285714285714	0.5873015873015873
1581.085205078125	-3.489717784317838	-8.5408603979144	2.033002921579682	-1.732708198247104	1.826275438963293	-0.052916918354575	-0.1545064377682404	-0.9464285714285714	0.5873015873015873
1584.991455078125	-3.284224817696876	-8.70453148919677	1.891869524789608	-1.061378354779563	1.802259866647452	-0.3989623959778931	-0.1545064377682404	-0.9464285714285714	0.5873015873015873
1588.897705078125	-3.328887876852307	-8.522266676787035	2.276542787271566	-1.389936159762571	1.823192032320254	-0.04603064351845396	-0.1545064377682404	-0.9464285714285714	0.5873015873015873
1592.803955078125	-3.499010810597537	-8.712484639368773	1.941897386284339	-1.404150393264096	1.805343273290491	-0.4058486708140142	-0.1545064377682404	-0.9464285714285714	0.5873015873015873
1596.710205078125	-3.420159502610283	-8.622364061539557	2.220031893681365	-1.74315283058374	1.446254998783911	-0.4090378368153413	-0.1545064377682404	-0.9464285714285714	0.5873015873015873
1600.616455078125	-3.365987254262012	-8.82492598604324	1.90484787518084	-2.09636950140491	1.069317965247568	-0.7720450301122286	-0.1330472103004292	-0.9598214285714285	0.5850340136054422
1604.522705078125	-3.398684543828558	-8.885205073753635	2.113352342039429	-1.725168995917328	1.101932076664054	-0.0455227006849871	-0.1330472103004292	-0.9598214285714285	0.5850340136054422
1608.428955078125	-3.518734243718594	-8.843600536350696	1.873424371859363	-2.074616065573609	0.3628233619780922	-0.4048327851470805	-0.1330472103004292	-0.9598214285714285	0.5850340136054422
1612.335205078125	-3.256630589051726	-8.725009451685242	2.193671150070603	-1.72139939475244	0.7397603955144351	-0.04182559185019315	-0.1330472103004292	-0.9598214285714285	0.5850340136054422
1616.241455078125	-3.421375671523458	-8.783968061466586	2.341648784998874	-2.074616065573609	0.3628233619780922	-0.4048327851470805	-0.1330472103004292	-0.9598214285714285	0.5850340136054422
1620.147705078125	-3.234725324657864	-8.694925474026151	2.043961037214997	-2.060401832072084	0.380672121007855	-0.04501475785152025	-0.1330472103004292	-0.9598214285714285	0.5850340136054422
1624.053955078125	-3.235194014338689	-8.755526847735403	2.090830005297493	-2.427832736394778	-0.0141136715582506	-0.7678399784439678	-0.1330472103004292	-0.9598214285714285	0.5850340136054422
1627.960205078125	-3.327667667510849	-8.704097060698629	2.154521853125759	-2.060401832072084	0.380672121007855	-0.04501475785152025	-0.1545064377682404	-0.96875	0.6031746031746031
1631.866455078125	-3.277802515712229	-8.462171469792374	2.270047489590236	-2.052862629742309	-0.3436712412913837	-0.03762054018193234	-0.1545064377682404	-0.96875	0.6031746031746031
1635.772705078125	-3.216603921351007	-8.755712748665278	2.272637033059882	-2.420293534065002	-0.7384570338574893	-0.7604457607743799	-0.1545064377682404	-0.96875	0.6031746031746031
1639.678955078125	-3.245384015697209	-8.947344139641007	2.089421977884166	-2.045323427412533	-1.068014603590622	-0.03022632251234443	-0.1716738197424893	-0.9598214285714285	0.6077097505668935
1643.585205078125	-3.450687082188871	-8.763472927157911	2.211565361744263	-2.052862629742309	-0.3436712412913837	-0.03762054018193234	-0.1716738197424893	-0.9598214285714285	0.6077097505668935
1647.491455078125	-3.234670778876044	-8.785835110393061	2.038506459032983	-1.367318552773243	-0.3498380545774623	-0.02384799050969024	-0.1716738197424893	-0.9598214285714285	0.6077097505668935
1651.397705078125	-3.315180682673459	-8.805232031557106	1.926231532652029	-1.363548951608355	-0.7120097357270816	-0.02015088167489629	-0.1716738197424893	-0.9598214285714285	0.6077097505668935
1655.303955078125	-3.326168668617866	-8.845526192101701	2.004621963827434	-1.367318552773243	-0.3498380545774623	-0.02384799050969024	-0.167381974248927	-0.9754464285714285	0.5714285714285714
1659.210205078125	-3.480014654567416	-8.884391772646246	2.083098109802842	-2.087966127917107	-1.121560880679911	-1.109680404399025	-0.167381974248927	-0.9754464285714285	0.5714285714285714
1663.116455078125	-3.275166136257589	-8.815733187122273	2.006409544126199	-2.427832736394778	-0.0141136715582506	-0.7678399784439678	-0.167381974248927	-0.9754464285714285	0.5714285714285714
1667.022705078125	-3.388054135787193	-8.753998246520919	2.070719701168342	-2.081291096745358	-0.3793687593509092	-0.7572565947730527	-0.1545064377682404	-0.9464285714285714	0.5782312925170068
1670.928955078125	-3.326229275042111	-8.744515485027359	2.010682606251895	-1.364413122766382	0.7545257479011586	0.3248787102814881	-0.1545064377682404	-0.9464285714285714	0.5782312925170068
1674.835205078125	-3.325354522318847	-8.855635343665703	1.923207333925513	-1.378627356267907	0.7366769888713958	-0.0349393170140721	-0.1545064377682404	-0.9464285714285714	0.5782312925170068
1678.741455078125	-3.572508509880992	-8.630941581567861	2.148810171772596	-1.728074425924188	-0.002431725814566389	-0.3942494014761655	-0.1545064377682404	-0.9464285714285714	0.5782312925170068
1682.647705078125	-3.387846053730621	-8.764101337442494	2.049911495511027	-2.085060697910246	-0.01719707820128988	-0.7609537036078468	-0.1566523605150215	-0.9598214285714285	0.5963718820861679
1686.553955078125	-3.315305935950231	-8.764826738620297	1.938756860329247	-1.36818272393127	1.116697429050778	0.3211816014466942	-0.1566523605150215	-0.9598214285714285	0.5963718820861679
1690.460205078125	-3.378902524497398	-8.683382691926743	2.175966735454093	-2.088830299075134	0.3449746029483294	-0.7646508124426407	-0.1566523605150215	-0.9598214285714285	0.5963718820861679
1694.366455078125	-3.298218882283815	-8.785199629358981	2.27086782021826	-1.382396957432795	1.098848670021015	-0.03863642584886606	-0.167381974248927	-0.9486607142857142	0.5873015873015873
1698.272705078125	-3.723263568194067	-8.770848172398869	1.918193554100513	-1.739383229418852	1.084083317634292	-0.4053407279805473	-0.167381974248927	-0.9486607142857142	0.5873015873015873
1702.178955078125	-3.305441189068491	-8.704319325483054	1.972690335420512	-1.014966053110101	1.493634462587121	0.6841887947435815	-0.167381974248927	-0.9486607142857142	0.5873015873015873
1706.085205078125	-3.469764046784652	-8.793585187814983	2.078445494791707	-1.382396957432795	1.098848670021015	-0.03863642584886606	-0.167381974248927	-0.9486607142857142	0.5873015873015873
1709.991455078125	-3.419260507317321	-8.773888203007637	2.130132364385199	-1.032949887776513	1.837957384706977	0.3206736586132273	-0.1952789699570815	-0.9375	0.5850340136054422
1713.897705078125	-3.478778283512826	-8.924808176760832	1.959461004343845	-1.375721926261046	1.841040791350017	0.3137873837771062	-0.1952789699570815	-0.9375	0.5850340136054422
1717.803955078125	-3.590692539826235	-8.802476912985579	1.92639683976632	-1.714724363580691	1.481952516843436	0.3105982177757792	-0.1952789699570815	-0.9375	0.5850340136054422
1721.710205078125	-3.439099092644442	-8.713083756548306	2.073174570566698	-0.6864082481270926	1.472702296914319	0.3312570422841423	-0.1587982832618026	-0.9486607142857142	0.5736961451247166
1725.616455078125	-3.296774429172652	-8.835719124395142	2.126422509101948	-1.36818272393127	1.116697429050778	0.3211816014466942	-0.1587982832618026	-0.9486607142857142	0.5736961451247166
1729.522705078125	-3.206448263632892	-8.67500622443438	2.277479424513736	-1.378627356267907	0.7366769888713958	-0.0349393170140721	-0.1587982832618026	-0.9486607142857142	0.5736961451247166
1733.428955078125	-3.398514845840672	-8.662984548511291	2.096382543250939	-1.389071988604544	0.3566565486920137	-0.3910602354748384	-0.1587982832618026	-0.9486607142857142	0.5736961451247166
1737.335205078125	-3.358356864220757	-8.744194209135573	2.162217034320553	-1.731844027089076	0.359739955335053	-0.3979465103109594	-0.1738197424892704	-0.9441964285714285	0.5941043083900227
1741.241455078125	-3.377748982222609	-8.754101298056563	2.060612507975192	-1.374857755103019	0.3745053077217764	-0.03124220817927815	-0.1738197424892704	-0.9441964285714285	0.5941043083900227
1745.147705078125	-3.233854612362884	-8.462610948825867	1.956889807716913	-1.728074425924188	-0.002431725814566389	-0.3942494014761655	-0.1738197424892704	-0.9441964285714285	0.5941043083900227
1749.053955078125	-3.274650981651509	-8.664223187153183	1.954894083518284	-1.374857755103019	0.3745053077217764	-0.03124220817927815	-0.1630901287553648	-0.9441964285714285	0.5736961451247166
1752.960205078125	-3.327679788795698	-8.683894919283761	2.155733981610652	-1.025410685446737	1.113614022407738	0.3280678762828152	-0.1630901287553648	-0.9441964285714285	0.5736961451247166
1756.866455078125	-3.49034607091584	-8.672167246361552	2.095831581379924	-1.725168995917328	1.101932076664054	-0.0455227006849871	-0.1630901287553648	-0.9441964285714285	0.5736961451247166
1760.772705078125	-3.203579559551982	-9.079075315515594	1.9906090164226	-1.735613628253964	0.7219116364846723	-0.4016436191457534	-0.1630901287553648	-0.9441964285714285	0.5736961451247166
1764.678955078125	-3.418397875878907	-8.864805920231111	2.043869220543709	-2.060401832072084	0.380672121007855	-0.04501475785152025	-0.1394849785407725	-0.9575892857142857	0.5736961451247166
1768.585205078125	-2.929249527671975	-8.627273161288938	2.108626236585291	-1.735613628253964	0.7219116364846723	-0.4016436191457534	-0.1394849785407725	-0.9575892857142857	0.5736961451247166
1772.491455078125	-3.337120290707726	-8.946426776890904	2.079376009548163	-1.025410685446737	1.113614022407738	0.3280678762828152	-0.1394849785407725	-0.9575892857142857	0.5736961451247166
1776.397705078125	-3.398832019460886	-8.976112689906403	2.128099905272283	-2.074616065573609	0.3628233619780922	-0.4048327851470805	-0.1545064377682404	-0.9665178571428571	0.5895691609977325
1780.303955078125	-3.173728751710791	-8.988464732684914	2.066752722099512	-1.378627356267907	0.7366769888713958	-0.0349393170140721	-0.1545064377682404	-0.9665178571428571	0.5895691609977325
1784.210205078125	-3.346999179088458	-8.815014856693963	2.046856684355939	-1.025410685446737	1.113614022407738	0.3280678762828152	-0.1545064377682404	-0.9665178571428571	0.5895691609977325
1788.116455078125	-3.404331083582873	-8.905350628558113	1.657598154205706	-2.060401832072084	0.380672121007855	-0.04501475785152025	-0.1545064377682404	-0.9665178571428571	0.5895691609977325
1792.022705078125	-3.398114843440658	-8.824604710151453	2.056382303249499	-1.725168995917328	1.101932076664054	-0.0455227006849871	-0.1759656652360515	-0.9553571428571428	0.5804988662131519
1795.928955078125	-3.520730215290383	-8.883984617039017	2.073021529038265	-2.075480236731636	1.829358845606332	-0.05980319319069606	-0.1759656652360515	-0.9553571428571428	0.5804988662131519
1799.835205078125	-3.744445595925276	-8.659525241010446	1.995580000690889	-1.739383229418852	1.084083317634292	-0.4053407279805473	-0.1759656652360515	-0.9553571428571428	0.5804988662131519
1803.741455078125	-3.581490423182902	-8.479336610919686	2.026593338698355	-1.36818272393127	1.116697429050778	0.3211816014466942	-0.1566523605150215	-0.9709821428571428	0.5555555555555556
1807.647705078125	-3.376829784788233	-8.602595338515755	1.96869276453754	-1.371088153938131	0.0123336265721571	-0.02754509934448419	-0.1566523605150215	-0.9709821428571428	0.5555555555555556
1811.553955078125	-3.43784655987672	-8.61208618086588	1.947921293794512	-2.063307262078945	-0.7236916814707658	-0.3937414586426986	-0.1566523605150215	-0.9709821428571428	0.5555555555555556
1815.460205078125	-3.338085953067357	-8.683790857641045	2.175942245511235	-1.02164108428185	0.7514423412581193	0.3317649851176092	-0.1566523605150215	-0.9709821428571428	0.5555555555555556
1819.366455078125	-3.511526078432909	-8.73256150689244	2.173016006556151	-1.725168995917328	1.101932076664054	-0.0455227006849871	-0.1716738197424893	-0.9642857142857142	0.5736961451247166
1823.272705078125	-3.432672750231513	-8.814158120982533	2.450948492539029	-1.025410685446737	1.113614022407738	0.3280678762828152	-0.1716738197424893	-0.9642857142857142	0.5736961451247166
1827.178955078125	-3.44936788235448	-8.773587129257264	2.079645378305171	-1.003657249615437	0.4071194191382627	0.6952801212479633	-0.1716738197424893	-0.9642857142857142	0.5736961451247166
1831.085205078125	-3.5207261748621	-8.722368495827139	2.072617486209968	-0.6893136781339535	0.3683384944356979	-0.01746965850703605	-0.1609442060085837	-0.9642857142857142	0.564625850340136
1834.991455078125	-3.326580792302729	-8.663703889046671	2.045834332313766	-1.014101881952074	0.02709897895888059	0.3391592027871971	-0.1609442060085837	-0.9642857142857142	0.564625850340136
1838.897705078125	-3.277814636997078	-8.94701983342801	2.271259618075128	-2.073751894415582	-1.103712121650148	-0.7498623771034649	-0.1609442060085837	-0.9642857142857142	0.564625850340136
1842.803955078125	-3.174716636425978	-8.857141722524631	2.165541193618219	-1.692106756591363	-0.6910775700542795	0.3327808707845429	-0.1609442060085837	-0.9642857142857142	0.564625850340136
1846.710205078125	-3.36658119721961	-8.845122066815685	1.964242170940554	-1.360643521601494	0.3923540667515392	0.3285758191162821	-0.167381974248927	-0.9821428571428571	0.5736961451247166
1850.616455078125	-3.213418043649883	-8.84665369835138	1.954049262947402	-1.050069551284899	0.7157448231985937	-0.3878710694735113	-0.167381974248927	-0.9821428571428571	0.5736961451247166
1854.522705078125	-3.335869778154146	-8.673712009289169	1.954324754190125	-1.375721926261046	1.841040791350017	0.3137873837771062	-0.167381974248927	-0.9821428571428571	0.5736961451247166
1858.428955078125	-3.264412495153594	-8.55321446090705	1.951453596992042	-0.3407307796356988	2.5739826927499	0.6868700179114418	-0.1587982832618026	-0.9464285714285714	0.5850340136054422
1862.335205078125	-3.241921368658701	-8.826166644899272	1.743157274033317	-1.022505255439877	2.217977824886359	0.6767945770739936	-0.1587982832618026	-0.9464285714285714	0.5850340136054422
1866.241455078125	-3.38813090392457	-8.794401519243584	2.078396514905991	-1.032949887776513	1.837957384706977	0.3206736586132273	-0.1587982832618026	-0.9464285714285714	0.5850340136054422
1870.147705078125	-3.439139496927272	-8.814093453515577	2.077214998849672	-1.728074425924188	-0.002431725814566389	-0.3942494014761655	-0.1587982832618026	-0.9464285714285714	0.5850340136054422
1874.053955078125	-3.212496826001364	-8.866864930729886	1.861927498095601	-1.025410685446737	1.113614022407738	0.3280678762828152	-0.1781115879828326	-0.9441964285714285	0.562358276643991
1877.960205078125	-3.438874848874737	-8.581772867672871	2.050750193596194	-1.725168995917328	1.101932076664054	-0.0455227006849871	-0.1781115879828326	-0.9441964285714285	0.562358276643991
1881.866455078125	-3.284978357571651	-8.795433044707114	1.967223512267069	-1.74315283058374	1.446254998783911	-0.4090378368153413	-0.1781115879828326	-0.9441964285714285	0.562358276643991
1885.772705078125	-3.540417284556892	-8.570656433215039	2.000912129158613	-1.739383229418852	1.084083317634292	-0.4053407279805473	-0.1695278969957082	-0.953125	0.562358276643991
1889.678955078125	-3.226311091529711	-8.57379749514531	2.222945887665019	-1.371952325096158	1.478869110200397	0.3174844926119002	-0.1695278969957082	-0.953125	0.562358276643991
1893.585205078125	-3.440018290078819	-8.864589716089112	2.165094314004351	-2.060401832072084	0.380672121007855	-0.04501475785152025	-0.1695278969957082	-0.953125	0.562358276643991
1897.491455078125	-3.244727446101226	-8.694825452811717	2.023765018285843	-1.36818272393127	1.116697429050778	0.3211816014466942	-0.1695278969957082	-0.953125	0.562358276643991
1901.397705078125	-3.296568367330221	-8.674105023397406	2.105816324858782	-2.413618502893254	0.003735087471512161	-0.4080219511484076	-0.1630901287553648	-0.9598214285714285	0.5895691609977325
1905.303955078125	-3.306715944191769	-8.936629810255054	2.100165847748334	-1.025410685446737	1.113614022407738	0.3280678762828152	-0.1630901287553648	-0.9598214285714285	0.5895691609977325
1909.210205078125	-3.296673418465578	-8.835720134502214	2.116321438394514	-1.72139939475244	0.7397603955144351	-0.04182559185019315	-0.1630901287553648	-0.9598214285714285	0.5895691609977325
1913.116455078125	-3.407773528479967	-8.723498022290959	2.001842643915068	-1.392841589769432	0.718828229841633	-0.3947573443096323	-0.1802575107296137	-0.9486607142857142	0.5827664399092971
1917.022705078125	-3.406811906548619	-8.642699557702192	1.905680450780293	-2.078385666738497	0.7249950431277116	-0.4085298939818744	-0.1802575107296137	-0.9486607142857142	0.5827664399092971
1920.928955078125	-3.408838181332531	-8.632578284853343	2.108307929171426	-1.739383229418852	1.084083317634292	-0.4053407279805473	-0.1802575107296137	-0.9486607142857142	0.5827664399092971
1924.835205078125	-3.438351613412092	-8.612081130330527	1.998426647331684	-1.717629793587552	0.3775887143648157	-0.03812848301539919	-0.1802575107296137	-0.9486607142857142	0.5827664399092971
1928.741455078125	-3.459941724399882	-8.6623702797257	2.116621419580095	-1.707185161250915	0.7576091545441979	0.3179924354453671	-0.1609442060085837	-0.9553571428571428	0.562358276643991
1932.647705078125	-3.395983517521389	-8.673110871895494	1.843249711322634	-1.703415560086027	0.3954374733945785	0.3216895442801611	-0.1609442060085837	-0.9553571428571428	0.562358276643991
1936.553955078125	-3.470850921992772	-8.833978359466943	2.187133015603701	-2.77727980605106	-0.7532223862442128	-1.127150062906061	-0.1609442060085837	-0.9553571428571428	0.562358276643991
1940.460205078125	-3.622892856713974	-8.680942788604579	2.085204038744332	-2.038648396240784	-0.325822482261621	0.3221974871136279	-0.1609442060085837	-0.9441964285714285	0.5873015873015873
1944.366455078125	-3.346589075617736	-8.825119967829682	2.005846337283755	-2.081291096745358	-0.3793687593509092	-0.7572565947730527	-0.1609442060085837	-0.9441964285714285	0.5873015873015873
1948.272705078125	-3.427888883144472	-8.874812020259466	1.972561783834938	-2.406079300563478	-0.7206082748277266	-0.4006277334788196	-0.1609442060085837	-0.9441964285714285	0.5873015873015873
1952.178955078125	-3.182076317772275	-8.715653984297028	1.881101164982583	-2.413618502893254	0.003735087471512161	-0.4080219511484076	-0.1609442060085837	-0.9441964285714285	0.5873015873015873
1956.085205078125	-3.398797675820481	-8.865001922231695	2.124665541231755	-2.067076863243833	-0.3615200003211465	-0.3974385674774926	-0.1652360515021459	-0.9732142857142857	0.564625850340136
1959.991455078125	-3.395868365315325	-8.865031215336746	1.831734490716159	-2.056632230907196	0.01850043985823565	-0.04131764901672629	-0.1652360515021459	-0.9732142857142857	0.564625850340136
1963.897705078125	-3.327453524811852	-8.724301222327639	2.133107583225999	-2.042417997405672	0.03634919888799841	0.3185003782788339	-0.1652360515021459	-0.9732142857142857	0.564625850340136
1967.803955078125	-3.521259511395452	-8.843575283673927	2.125951139545222	-1.710090591257776	-0.346754647934423	-0.03073426534581129	-0.1716738197424893	-0.9330357142857142	0.5714285714285714
1971.710205078125	-3.456772008411889	-8.894725209208813	1.799649820780805	-2.067076863243833	-0.3615200003211465	-0.3974385674774926	-0.1716738197424893	-0.9330357142857142	0.5714285714285714
1975.616455078125	-3.171312575597573	-8.806670712627865	1.825135110777682	-2.067076863243833	-0.3615200003211465	-0.3974385674774926	-0.1716738197424893	-0.9330357142857142	0.5714285714285714
1979.522705078125	-3.285430885539343	-8.714620438619356	2.012476309036375	-2.420293534065002	-0.7384570338574893	-0.7604457607743799	-0.1716738197424893	-0.9330357142857142	0.5714285714285714
1983.428955078125	-3.714481656092163	-8.589117809701705	2.060410507175474	-1.72139939475244	0.7397603955144351	-0.04182559185019315	-0.1759656652360515	-0.9508928571428571	0.5714285714285714
1987.335205078125	-3.518544343589294	-8.823400415149969	1.854434358929386	-2.049957199735448	0.7606925611872372	0.311106160609246	-0.1759656652360515	-0.9508928571428571	0.5714285714285714
1991.241455078125	-3.386074325928536	-8.855028145629607	1.872738715302628	-2.060401832072084	0.380672121007855	-0.04501475785152025	-0.1759656652360515	-0.9508928571428571	0.5714285714285714
1995.147705078125	-3.236088969203368	-8.947437090105948	2.180325491765361	-1.707185161250915	0.7576091545441979	0.3179924354453671	-0.1759656652360515	-0.9486607142857142	0.5759637188208617
1999.053955078125	-3.571098400410234	-8.792571844278728	2.007799224696812	-2.766835173714424	-0.3732019460648306	-0.7710291444452949	-0.1759656652360515	-0.9486607142857142	0.5759637188208617
2002.960205078125	-3.357304332653042	-8.814911805158319	2.056963877549087	-1.72139939475244	0.7397603955144351	-0.04182559185019315	-0.1759656652360515	-0.9486607142857142	0.5759637188208617
2006.866455078125	-3.449745662398938	-8.480654058527525	2.117423382750975	-2.088830299075134	0.3449746029483294	-0.7646508124426407	-0.1759656652360515	-0.9486607142857142	0.5759637188208617
2010.772705078125	-3.407543224067838	-8.60228820412296	1.978812202702118	-2.067076863243833	-0.3615200003211465	-0.3974385674774926	-0.1502145922746781	-0.9620535714285714	0.5804988662131519
2014.678955078125	-3.478899496361315	-8.722786762612145	1.971582289192767	-1.695876357756251	-0.3289058889046602	0.3290837619497489	-0.1502145922746781	-0.9620535714285714	0.5804988662131519
2018.585205078125	-3.297616858469652	-8.946821811213283	2.210665438801951	-2.052862629742309	-0.3436712412913837	-0.03762054018193234	-0.1502145922746781	-0.9620535714285714	0.5804988662131519
2022.491455078125	-3.480598496454306	-8.753072802914247	2.141482298491812	-1.703415560086027	0.3954374733945785	0.3216895442801611	-0.1824034334763948	-0.9553571428571428	0.5668934240362812
2026.397705078125	-3.4396667728182	-8.9454013120698	2.129942587942479	-2.424063135229891	-0.3762853527078699	-0.7641428696091739	-0.1824034334763948	-0.9553571428571428	0.5668934240362812
2030.303955078125	-3.398549189481078	-8.774095316185997	2.099816907291467	-1.703415560086027	0.3954374733945785	0.3216895442801611	-0.1824034334763948	-0.9553571428571428	0.5668934240362812
2034.210205078125	-3.235935432928615	-8.866630544660614	2.164971864290061	-1.717629793587552	0.3775887143648157	-0.03812848301539919	-0.1824034334763948	-0.9553571428571428	0.5668934240362812
2038.116455078125	-3.316930188119986	-8.582992314280418	2.101182077304792	-1.371088153938131	0.0123336265721571	-0.02754509934448419	-0.1609442060085837	-0.9553571428571428	0.5759637188208617
2042.022705078125	-3.222648443291196	-8.785955333748909	1.85668106381345	-1.710090591257776	-0.346754647934423	-0.03073426534581129	-0.1609442060085837	-0.9553571428571428	0.5759637188208617
2045.928955078125	-3.407622012419355	-8.976024789976819	1.986691037853917	-1.374857755103019	0.3745053077217764	-0.03124220817927815	-0.1609442060085837	-0.9553571428571428	0.5759637188208617
2049.835205078125	-3.397989590163886	-8.86501000308826	2.043856975572281	-1.710090591257776	-0.346754647934423	-0.03073426534581129	-0.167381974248927	-0.9642857142857142	0.5782312925170068
2053.741455078125	-3.346684025682386	-8.835220028430046	2.015341343748743	-1.34642928809997	0.410202825781302	0.6883938464118423	-0.167381974248927	-0.9642857142857142	0.5782312925170068
2057.647705078125	-3.459868996690789	-8.783583128214913	2.109348648670742	-1.7243048247593	-0.3646034069641857	-0.3905522926413715	-0.167381974248927	-0.9642857142857142	0.5782312925170068
2061.553955078125	-3.285715735733293	-8.744920620420448	2.040961328431339	-2.063307262078945	-0.7236916814707658	-0.3937414586426986	-0.167381974248927	-0.9642857142857142	0.5782312925170068
2065.460205078125	-3.427890903358613	-8.703094828340152	1.972763805249086	-1.34642928809997	0.410202825781302	0.6883938464118423	-0.1695278969957082	-0.953125	0.5714285714285714
2069.366455078125	-3.529948493646847	-8.843488393851411	1.974441201419421	-1.34642928809997	0.410202825781302	0.6883938464118423	-0.1695278969957082	-0.953125	0.5714285714285714
2073.272705078125	-3.51178668605716	-8.803265971523269	2.199076768981332	-1.713860192422664	0.01541703321519637	-0.03443137418060524	-0.1695278969957082	-0.953125	0.5714285714285714
2077.178955078125	-3.644315289928021	-8.842344725888601	2.186631033618402	-1.353968490429745	1.134546188080541	0.6809996287422544	-0.167381974248927	-0.9642857142857142	0.5873015873015873
2081.085205078125	-3.651602243565224	-8.822069836150208	1.894918234073412	-1.003657249615437	0.4071194191382627	0.6952801212479633	-0.167381974248927	-0.9642857142857142	0.5873015873015873
2084.991455078125	-3.436143519355447	-8.925234524402407	1.777617241667169	-1.381532786274768	-0.367686813607225	-0.3836660178052504	-0.167381974248927	-0.9642857142857142	0.5873015873015873
2088.897705078125	-3.447335546928145	-8.793809472813548	1.876411835671592	-1.020776913123822	-0.7150931423701209	-0.01326460683877524	-0.167381974248927	-0.9642857142857142	0.5873015873015873
2092.803955078125	-3.367643829858032	-8.925919521297381	2.070505434782764	-1.356873920436606	0.03018238560191986	0.332272927951076	-0.167381974248927	-0.9642857142857142	0.5873015873015873
2096.710205078125	-3.29652594283325	-8.744812518349447	2.10157387516166	-1.34642928809997	0.410202825781302	0.6883938464118423	-0.167381974248927	-0.9642857142857142	0.5873015873015873
2100.616455078125	-3.356568974705541	-8.693707037525673	1.983428082798965	-1.371088153938131	0.0123336265721571	-0.02754509934448419	-0.167381974248927	-0.9642857142857142	0.5873015873015873
2104.522705078125	-3.491907696447209	-8.763060721015329	2.251994134516859	-1.371088153938131	0.0123336265721571	-0.02754509934448419	-0.1545064377682404	-0.9553571428571428	0.5714285714285714
2108.428955078125	-3.358575047348038	-8.885606168718441	2.184035347048611	-1.003657249615437	0.4071194191382627	0.6952801212479633	-0.1545064377682404	-0.9553571428571428	0.5714285714285714
2112.335205078125	-3.491836988952257	-8.712556377585226	2.244923385021655	-1.363548951608355	-0.7120097357270816	-0.02015088167489629	-0.1545064377682404	-0.9553571428571428	0.5714285714285714
2116.241455078125	-3.287432917753557	-8.744903448600246	2.212679530457723	-1.712996021264637	-1.451118450413044	-0.3794609661369897	-0.1545064377682404	-0.9553571428571428	0.5714285714285714
2120.147705078125	-3.368585249647964	-8.70368788487726	2.164647413776052	-1.006562679622298	-0.6972443833403581	0.346553420456785	-0.1545064377682404	-0.9553571428571428	0.5714285714285714
2124.053955078125	-3.379561114307523	-8.764184186836724	2.241825716466565	-2.051998458584281	-1.810206724919624	-0.3826501321383168	-0.1545064377682404	-0.9553571428571428	0.5714285714285714
2127.960205078125	-3.19478754637937	-8.745829902313986	2.131815862426818	-1.34933471810683	-0.6941609766973188	0.3396671456206639	-0.1545064377682404	-0.9553571428571428	0.5714285714285714
2131.866455078125	-3.297105744291856	-8.956927932456072	2.159554021022333	-1.381532786274768	-0.367686813607225	-0.3836660178052504	-0.167381974248927	-0.9486607142857142	0.5782312925170068
2135.772705078125	-3.346316346708635	-8.774617644613722	1.978573446373682	-1.363548951608355	-0.7120097357270816	-0.02015088167489629	-0.167381974248927	-0.9486607142857142	0.5782312925170068
2139.678955078125	-3.234688960803317	-8.755531898270757	2.040324651760321	-1.028316115453598	0.009250219929117825	-0.02065882450836315	-0.167381974248927	-0.9486607142857142	0.5782312925170068
2143.585205078125	-3.316063516253289	-9.017344415342517	2.014514890635005	-1.720535223594412	-0.7267750881138051	-0.3868551838065776	-0.167381974248927	-0.9486607142857142	0.5782312925170068
2147.491455078125	-3.108275586367598	-8.797200072419153	1.643885167372023	-0.6608852111309039	0.4040360124952234	0.7021663960840844	-0.167381974248927	-0.9486607142857142	0.5782312925170068
2151.397705078125	-3.02166055420575	-8.848571273245822	2.166055420574948	-1.017871483116962	0.3892706601084999	0.3354620939524031	-0.167381974248927	-0.9486607142857142	0.5782312925170068
2155.303955078125	-3.274620678439387	-8.714728540690356	1.951863762306054	-1.364413122766382	0.7545257479011586	0.3248787102814881	-0.167381974248927	-0.9486607142857142	0.5782312925170068
2159.210205078125	-3.388310702983162	-8.663086589939867	2.096376420765225	-1.371088153938131	0.0123336265721571	-0.02754509934448419	-0.1523605150214592	-0.9776785714285714	0.5691609977324263
2163.116455078125	-3.418787777208214	-8.551670708086506	2.082859353474406	-0.6855440769690655	0.00616681328607855	-0.0137725496722421	-0.1523605150214592	-0.9776785714285714	0.5691609977324263
2167.022705078125	-3.398605755477039	-9.016518992950282	2.10547350688763	-1.006562679622298	-0.6972443833403581	0.346553420456785	-0.1523605150214592	-0.9776785714285714	0.5691609977324263
2170.928955078125	-3.478543938672414	-8.641982237380955	1.936026520302598	-0.6600210399728769	-1.062499471133017	0.3571368041277	-0.1523605150214592	-0.9776785714285714	0.5691609977324263
2174.835205078125	-3.295356238845328	-8.674117144682254	1.98460347636957	-0.6533460088011279	-0.3203073498040153	0.7095606137536723	-0.1523605150214592	-0.9776785714285714	0.5691609977324263
2178.741455078125	-3.284707648876692	-9.078264034622347	1.940152642771145	0.04264270050457435	0.05354627708928829	1.079454081886681	-0.1523605150214592	-0.9776785714285714	0.5691609977324263
2182.647705078125	-3.355633615558032	-8.905837603238361	1.889892168048123	-0.3143435714814832	0.03878092470256481	0.7127497797549994	-0.1523605150214592	-0.9776785714285714	0.5691609977324263
2186.553955078125	-3.072879249479166	-8.686442924676927	2.185884131590092	0.3778755366593312	0.7748062327454877	1.078946139053214	-0.1523605150214592	-0.9508928571428571	0.5668934240362812
2190.460205078125	-3.377256049972087	-8.733904207177048	2.011319282922913	0.03510349817479845	0.777889639388527	1.072059864217093	-0.1523605150214592	-0.9508928571428571	0.5668934240362812
2194.366455078125	-3.400391624778114	-8.733672851428988	2.284060436995069	-0.3323274061478959	0.3831038468224214	0.3492346436246452	-0.1523605150214592	-0.9508928571428571	0.5668934240362812
2198.272705078125	-3.388108681569014	-8.663088610154009	2.076174279350356	0.3712005054875823	0.03261411141648625	0.7265223294272415	-0.1523605150214592	-0.9508928571428571	0.5668934240362812
2202.178955078125	-3.193878450015701	-8.745838993277623	2.040906226059909	0.3494470696562816	0.7391087146859622	0.3593100844620934	-0.1523605150214592	-0.9508928571428571	0.5668934240362812
2206.085205078125	-3.633416193405839	-8.822251696651803	2.117129544665539	-0.3218827738112591	0.7631242870018035	0.7053555620854115	-0.1523605150214592	-0.9508928571428571	0.5668934240362812
2209.991455078125	-3.528112118992236	-8.873809787900989	1.790803735958264	-0.325652374976147	1.125295968151423	0.7016584532506176	-0.1523605150214592	-0.9508928571428571	0.5668934240362812
2213.897705078125	-3.428602018736417	-8.864703878802535	2.043875343029424	0.3741059354944433	1.136977913895107	1.07524903021842	-0.1587982832618026	-0.9575892857142857	0.5691609977324263
2217.803955078125	-3.356914431323735	-8.622996512252421	2.017973744618391	-0.6713298434675408	0.02401557231584131	0.3460454776233181	-0.1587982832618026	-0.9575892857142857	0.5691609977324263
2221.710205078125	-3.354821489473155	-8.744229562883049	1.808679559560351	0.02465886583816162	0.3978691992091449	0.7159389457563266	-0.1587982832618026	-0.9575892857142857	0.5691609977324263
2225.616455078125	-3.529582834887238	-8.611168818115775	1.937875325458508	0.01044463233663683	0.3800204401793821	0.3561209184607663	-0.1587982832618026	-0.9575892857142857	0.5691609977324263
2229.522705078125	-3.356615439630795	-8.784615663785512	1.988074575324385	-0.3181131726463711	0.4009526058521842	0.7090526709202054	-0.1587982832618026	-0.9575892857142857	0.5691609977324263
2233.428955078125	-3.347284029282407	-8.845315038495055	2.075341703750903	0.3636613031578064	0.7569574737157249	0.7191281117576536	-0.1587982832618026	-0.9575892857142857	0.5691609977324263
2237.335205078125	-3.33670412659458	-8.461582453683551	2.037759598233533	0.01044463233663683	0.3800204401793821	0.3561209184607663	-0.1587982832618026	-0.9575892857142857	0.5691609977324263
2241.241455078125	-3.359924550394551	-8.824986613081915	2.318985651699934	-0.32478820381812	-0.3412395154768173	0.3566288612942332	-0.1630901287553648	-0.9486607142857142	0.5736961451247166
2245.147705078125	-3.60201790153227	-8.953878810883667	2.038524847104556	-0.3427720384845327	0.003083406643039275	-0.006886274836121049	-0.1630901287553648	-0.9486607142857142	0.5736961451247166
2249.053955078125	-3.307081602951378	-8.663898880940184	2.136731723709246	0.03510349817479845	0.777889639388527	1.072059864217093	-0.1630901287553648	-0.9486607142857142	0.5736961451247166
2252.960205078125	-3.418476664230425	-8.733492001034465	2.051748055695509	-0.3323274061478959	0.3831038468224214	0.3492346436246452	-0.1630901287553648	-0.9486607142857142	0.5736961451247166
2256.866455078125	-3.378104539911511	-8.834905823287754	2.096168276865361	0.01044463233663683	0.3800204401793821	0.3561209184607663	-0.1630901287553648	-0.9486607142857142	0.5736961451247166
2260.772705078125	-3.316493821865425	-8.805218900165185	2.057545451848675	-0.6713298434675408	0.02401557231584131	0.3460454776233181	-0.1630901287553648	-0.9486607142857142	0.5736961451247166
2264.678955078125	-3.266265031521337	-8.664307046654484	2.136707233766388	-0.328557804983008	0.02093216567280204	0.3529317524594392	-0.1630901287553648	-0.9486607142857142	0.5736961451247166
2268.585205078125	-3.326639378512833	-8.73441037389164	2.051692953324078	-1.02164108428185	0.7514423412581193	0.3317649851176092	-0.1824034334763948	-0.9397321428571428	0.5510204081632654
2272.491455078125	-3.470303443960429	-8.904690904954338	2.132385212369407	-0.3038989391448463	0.4188013648819469	1.068870698215766	-0.1824034334763948	-0.9397321428571428	0.5510204081632654
2276.397705078125	-3.327126250120931	-8.76470853547859	2.100380114133911	-1.020776913123822	-0.7150931423701209	-0.01326460683877524	-0.1824034334763948	-0.9397321428571428	0.5510204081632654
2280.303955078125	-3.469513540231107	-8.874395773688601	2.05339483943727	-0.6608852111309039	0.4040360124952234	0.7021663960840844	-0.1824034334763948	-0.9397321428571428	0.5510204081632654
2284.210205078125	-3.612092750684725	-8.832565941180022	2.025601599084755	-0.3181131726463711	0.4009526058521842	0.7090526709202054	-0.1824034334763948	-0.9397321428571428	0.5510204081632654
2288.116455078125	-3.327172715046185	-8.855617161738429	2.105026606659331	-0.6713298434675408	0.02401557231584131	0.3460454776233181	-0.1824034334763948	-0.9397321428571428	0.5510204081632654
2292.022705078125	-3.334566740032887	-8.825240191185532	1.824020942064222	-0.6675602423026528	-0.3381561088337781	0.3497425864581121	-0.1824034334763948	-0.9397321428571428	0.5510204081632654
2295.928955078125	-3.386771299807349	-8.703506024375665	1.942436103183925	-0.6608852111309039	0.4040360124952234	0.7021663960840844	-0.1695278969957082	-0.9642857142857142	0.5873015873015873
2299.835205078125	-3.184207643691543	-8.867147822552985	2.094233756909448	-1.010332280787186	-0.3350727021907388	0.342856311621991	-0.1695278969957082	-0.9642857142857142	0.5873015873015873
2303.741455078125	-3.532801036014626	-8.803055828023695	2.259695438197367	-1.00279307845741	-1.059416064489977	0.350250529291579	-0.1695278969957082	-0.9642857142857142	0.5873015873015873
2307.647705078125	-3.265105428604124	-8.745126723491738	2.020746942045042	-1.353104319271718	-0.3319892955476995	0.33597003678587	-0.184549356223176	-0.9508928571428571	0.562358276643991
2311.553955078125	-3.559716472708236	-8.903796774666858	1.890014617762413	-1.706320990092888	-0.7089263290840423	-0.02703715651101733	-0.184549356223176	-0.9508928571428571	0.562358276643991
2315.460205078125	-3.396951200095162	-8.743808265776828	1.940017968699856	-0.6571156099660159	0.04186433134560408	0.7058635049188784	-0.184549356223176	-0.9508928571428571	0.562358276643991
2319.366455078125	-3.058436697352817	-8.848203511814351	1.762037082220432	-1.367318552773243	-0.3498380545774623	-0.02384799050969024	-0.184549356223176	-0.9508928571428571	0.562358276643991
2323.272705078125	-3.344599164688371	-8.774634816433926	1.806855244347298	-1.02454651428871	-0.3529214612205015	-0.01696171567356919	-0.1523605150214592	-0.9575892857142857	0.5668934240362812
2327.178955078125	-3.415759476210125	-8.885034324429821	1.780029253665524	-0.9998876484505487	0.04494773798864335	0.6989772300827574	-0.1523605150214592	-0.9575892857142857	0.5668934240362812
2331.085205078125	-3.338098074352206	-8.663588716226176	2.177154373996127	-0.9819038137841359	-0.2993751841312132	1.062492366213111	-0.1523605150214592	-0.9575892857142857	0.5668934240362812
2334.991455078125	-3.498192623870235	-8.560977669720895	1.860078713554121	-1.359779350443467	-1.074181416876701	-0.01645377284010233	-0.1716738197424893	-0.9553571428571428	0.5691609977324263
2338.897705078125	-3.101588636330416	-8.827569972222557	1.995598326919172	-1.363548951608355	-0.7120097357270816	-0.02015088167489629	-0.1716738197424893	-0.9553571428571428	0.5691609977324263
2342.803955078125	-3.447761812111998	-8.925118341474841	1.919038354056965	-0.6608852111309039	0.4040360124952234	0.7021663960840844	-0.1716738197424893	-0.9553571428571428	0.5691609977324263
2346.710205078125	-3.335356643762208	-8.855535322451269	1.903011314996359	-2.063307262078945	-0.7236916814707658	-0.3937414586426986	-0.1716738197424893	-0.9553571428571428	0.5691609977324263
2350.616455078125	-3.264903407189975	-8.74512874370588	2.000544800630173	-1.028316115453598	0.009250219929117825	-0.02065882450836315	-0.1609442060085837	-0.9486607142857142	0.5804988662131519
2354.522705078125	-3.416979685551583	-8.703203940518224	1.902050187811331	-1.017871483116962	0.3892706601084999	0.3354620939524031	-0.1609442060085837	-0.9486607142857142	0.5804988662131519
2358.428955078125	-3.375985335277091	-8.663209843616928	1.884247813423389	-1.042530348955123	-0.008598539100644939	-0.3804768518039234	-0.1609442060085837	-0.9486607142857142	0.5804988662131519
2362.335205078125	-3.285335935474693	-8.704520378018993	2.002981302571386	-1.356873920436606	0.03018238560191986	0.332272927951076	-0.1695278969957082	-0.9553571428571428	0.5691609977324263
2366.241455078125	-3.397557264337608	-8.743802205134404	2.000624392944462	-1.34642928809997	0.410202825781302	0.6883938464118423	-0.1695278969957082	-0.9553571428571428	0.5691609977324263
2370.147705078125	-3.390179401064038	-8.915593155484311	2.28324622885276	-1.710090591257776	-0.346754647934423	-0.03073426534581129	-0.1695278969957082	-0.9553571428571428	0.5691609977324263
2374.053955078125	-3.316683721994725	-8.825419021365912	2.076535464778652	-1.713860192422664	0.01541703321519637	-0.03443137418060524	-0.1695278969957082	-0.9553571428571428	0.5691609977324263
2377.960205078125	-3.435911194729176	-8.97574189815372	1.75438477904007	-1.003657249615437	0.4071194191382627	0.6952801212479633	-0.1630901287553648	-0.96875	0.5827664399092971
2381.866455078125	-3.366864027199418	-8.542088935485584	1.992525168921371	-1.028316115453598	0.009250219929117825	-0.02065882450836315	-0.1630901287553648	-0.96875	0.5827664399092971
2385.772705078125	-3.439141517141414	-8.642376261596265	2.07741702026382	-1.356873920436606	0.03018238560191986	0.332272927951076	-0.1630901287553648	-0.96875	0.5827664399092971
2389.678955078125	-3.396397661420394	-8.824621881971655	1.884664101223115	-1.728074425924188	-0.002431725814566389	-0.3942494014761655	-0.167381974248927	-0.9553571428571428	0.5873015873015873
2393.585205078125	-3.469943845843244	-8.662270258511267	2.096425400650941	-1.374857755103019	0.3745053077217764	-0.03124220817927815	-0.167381974248927	-0.9553571428571428	0.5873015873015873
2397.491455078125	-3.274596435869689	-8.755132823520093	1.94943950533627	-1.710090591257776	-0.346754647934423	-0.03073426534581129	-0.167381974248927	-0.9553571428571428	0.5873015873015873
2401.397705078125	-3.386140992995206	-8.743916367847829	1.879405421969535	-1.699645958921139	0.03326579224495914	0.325386653114955	-0.167381974248927	-0.9553571428571428	0.5873015873015873
2405.303955078125	-3.479683339448212	-8.763182964585317	2.049966597882457	-1.720535223594412	-0.7267750881138051	-0.3868551838065776	-0.1738197424892704	-0.953125	0.5714285714285714
2409.210205078125	-3.356134628665121	-8.744216431491129	1.939993478756997	-1.014101881952074	0.02709897895888059	0.3391592027871971	-0.1738197424892704	-0.953125	0.5714285714285714
2413.116455078125	-3.499647178052105	-8.661973225189177	2.005534131741175	-1.367318552773243	-0.3498380545774623	-0.02384799050969024	-0.1738197424892704	-0.953125	0.5714285714285714
2417.022705078125	-3.398256258430562	-8.925613397011654	2.070523802239907	-1.7243048247593	-0.3646034069641857	-0.3905522926413715	-0.1781115879828326	-0.9486607142857142	0.5759637188208617
2420.928955078125	-3.35655483320655	-8.885626370859855	1.982013932899924	-1.389071988604544	0.3566565486920137	-0.3910602354748384	-0.1781115879828326	-0.9486607142857142	0.5759637188208617
2424.835205078125	-3.356882107897472	-8.845219057708906	2.014741401992012	-1.381532786274768	-0.367686813607225	-0.3836660178052504	-0.1781115879828326	-0.9486607142857142	0.5759637188208617
2428.741455078125	-3.336849582012767	-8.72420726175563	2.052305140052238	-1.381532786274768	-0.367686813607225	-0.3836660178052504	-0.1781115879828326	-0.9486607142857142	0.5759637188208617
2432.647705078125	-3.387419788546767	-8.632792468781203	2.007284977125654	-1.017871483116962	0.3892706601084999	0.3354620939524031	-0.1587982832618026	-0.9642857142857142	0.5736961451247166
2436.553955078125	-3.540801125243775	-8.772672796828372	2.039296197846864	-1.042530348955123	-0.008598539100644939	-0.3804768518039234	-0.1587982832618026	-0.9642857142857142	0.5736961451247166
2440.460205078125	-3.264986235969776	-8.77543094572111	2.008827678610269	-1.371088153938131	0.0123336265721571	-0.02754509934448419	-0.1587982832618026	-0.9642857142857142	0.5736961451247166
2444.366455078125	-3.446422410136193	-8.632202442565307	1.785098156476385	-1.385302387439656	-0.005515132457605664	-0.3873631266400444	-0.1609442060085837	-0.9620535714285714	0.562358276643991
2448.272705078125	-3.073125715604427	-8.949066722641936	2.210530744116232	-1.371088153938131	0.0123336265721571	-0.02754509934448419	-0.1609442060085837	-0.9620535714285714	0.562358276643991
2452.178955078125	-3.266054929250623	-8.846127329495374	2.115697006694925	-1.710090591257776	-0.346754647934423	-0.03073426534581129	-0.1609442060085837	-0.9620535714285714	0.562358276643991
2456.085205078125	-3.367585243647929	-8.855213036452414	2.064646813772452	-1.738519058260825	-0.3824521659939485	-0.7503703199369317	-0.1609442060085837	-0.9620535714285714	0.562358276643991
2459.991455078125	-3.338092013709781	-8.673689786933611	2.176548309753681	-1.032085716618486	0.3714219010787372	-0.0243559333431571	-0.167381974248927	-0.9575892857142857	0.5759637188208617
2463.897705078125	-3.2056159354066	-8.715418588120684	2.194246601884477	-1.748963690597462	-0.7624726061733306	-1.106491238397698	-0.167381974248927	-0.9575892857142857	0.5759637188208617
2467.803955078125	-3.326382811316864	-8.825322030472691	2.026036233727194	-1.385302387439656	-0.005515132457605664	-0.3873631266400444	-0.167381974248927	-0.9575892857142857	0.5759637188208617
2471.710205078125	-3.358851816685421	-8.592674108095773	2.211712280786982	-1.374857755103019	0.3745053077217764	-0.03124220817927815	-0.1781115879828326	-0.9642857142857142	0.5555555555555556
2475.616455078125	-3.203294709358032	-9.048775133714502	1.962123997027635	-1.720535223594412	-0.7267750881138051	-0.3868551838065776	-0.1781115879828326	-0.9642857142857142	0.5555555555555556
2479.522705078125	-3.531059611424665	-8.843477282673634	2.085552979201199	-1.7243048247593	-0.3646034069641857	-0.3905522926413715	-0.1781115879828326	-0.9642857142857142	0.5555555555555556
2483.428955078125	-3.204684616687374	-8.584114769994745	2.101114729961932	-1.109831915297859	-0.4600140153990781	-2.17586987944693	-0.1781115879828326	-0.9642857142857142	0.5555555555555556
2487.335205078125	-3.304881589751299	-8.795234012385317	1.916730403701326	-1.738519058260825	-0.3824521659939485	-0.7503703199369317	-0.1652360515021459	-0.9620535714285714	0.5895691609977325
2491.241455078125	-3.281857126723053	-8.946979408530751	1.655100427407347	-1.386166558597683	1.461020351170635	-0.04233353468366001	-0.1652360515021459	-0.9620535714285714	0.5895691609977325
2495.147705078125	-3.284748053159521	-8.674223226539114	1.944193071054118	-1.738519058260825	-0.3824521659939485	-0.7503703199369317	-0.1652360515021459	-0.9620535714285714	0.5895691609977325
2499.053955078125	-3.477814641367337	-9.015726904091379	1.863096789794922	-1.035855317783374	0.7335935822283565	-0.02805304217795105	-0.184549356223176	-0.9598214285714285	0.5827664399092971
2502.960205078125	-3.24424461492141	-8.826143412436645	1.975481900304307	-0.6893136781339535	0.3683384944356979	-0.01746965850703605	-0.184549356223176	-0.9598214285714285	0.5827664399092971
2506.866455078125	-3.121813082558562	-8.797064697457243	1.977226623203071	-1.032085716618486	0.3714219010787372	-0.0243559333431571	-0.184549356223176	-0.9598214285714285	0.5827664399092971
2510.772705078125	-3.214157442025666	-8.624424082145401	2.027989100525822	-1.056744582456648	-0.0264472981304077	-0.7402948790994835	-0.184549356223176	-0.9598214285714285	0.5827664399092971
2514.678955078125	-3.622100932770511	-8.822364849258156	2.006011644398046	-0.7177421451370031	0.3326409763761723	-0.7371057130981565	-0.184549356223176	-0.9732142857142857	0.562358276643991
2518.585205078125	-3.457644740921012	-8.955322542489782	1.886923071693038	-0.7035279116354782	0.3504897354059351	-0.3772876858025963	-0.184549356223176	-0.9732142857142857	0.562358276643991
2522.491455078125	-3.435474828474615	-8.692917978987984	1.710748153583954	-1.032085716618486	0.3714219010787372	-0.0243559333431571	-0.184549356223176	-0.9732142857142857	0.562358276643991
2526.397705078125	-3.479717683088618	-8.874293732260025	2.053400961922985	-1.056744582456648	-0.0264472981304077	-0.7402948790994835	-0.1802575107296137	-0.96875	0.5850340136054422
2530.303955078125	-3.521103954906558	-8.934485930147908	2.110395490655773	-0.6930832792988414	0.7305101755853173	-0.02116676734183	-0.1802575107296137	-0.96875	0.5850340136054422
2534.210205078125	-3.488794546455178	-8.732788822212218	1.940679135313732	-0.3540808419791966	1.089598450091897	-0.01797760134050291	-0.1802575107296137	-0.96875	0.5850340136054422
2538.116455078125	-3.357815446830838	-8.804805683915532	2.108075295328705	-1.064283784786424	0.697896064168831	-0.7476890967690715	-0.1802575107296137	-0.96875	0.5850340136054422
2542.022705078125	-3.328605046872499	-8.825299808117135	2.24825978929075	-0.7043920827935053	1.817025219034175	-0.03225809384621187	-0.1652360515021459	-0.9397321428571428	0.5782312925170068
2545.928955078125	-3.631309110056268	-8.630353575566106	1.906421209708458	-0.01507840465955181	1.448686724598477	-0.01478843533917581	-0.1652360515021459	-0.9397321428571428	0.5782312925170068
2549.835205078125	-3.480745972086634	-8.843980419067014	2.156229861724666	-0.725281347466779	1.056984338675411	-0.7444999307677445	-0.1652360515021459	-0.9397321428571428	0.5782312925170068
2553.741455078125	-3.531944465218636	-8.883872474539734	2.174038358598323	-0.6968528804637294	1.092681856734937	-0.02486387617662396	-0.1781115879828326	-0.9620535714285714	0.5736961451247166
2557.647705078125	-3.410500817570974	-8.723470749400049	2.274571553015796	-0.02175343583130069	0.7064946032694759	-0.3672122449651481	-0.1781115879828326	-0.9620535714285714	0.5736961451247166
2561.553955078125	-3.336760692590541	-8.704006130447834	2.043416197829696	-1.75273329176235	-0.4003009250237112	-1.110188347232492	-0.1781115879828326	-0.9620535714285714	0.5736961451247166
2565.460205078125	-3.439573842967692	-8.763584059550125	2.12064960289164	-0.6893136781339535	0.3683384944356979	-0.01746965850703605	-0.1781115879828326	-0.9620535714285714	0.5736961451247166
2569.366455078125	-3.275731796217205	-8.714717429512577	2.062975540087832	-1.392841589769432	0.718828229841633	-0.3947573443096323	-0.1695278969957082	-0.9799107142857142	0.5555555555555556
2573.272705078125	-3.398522926697239	-8.98621679093505	2.097190628907534	-1.385302387439656	-0.005515132457605664	-0.3873631266400444	-0.1695278969957082	-0.9799107142857142	0.5555555555555556
2577.178955078125	-3.538708183393194	-8.893905847458999	1.830002012788824	-0.6893136781339535	0.3683384944356979	-0.01746965850703605	-0.1695278969957082	-0.9799107142857142	0.5555555555555556
2581.085205078125	-3.460812436694863	-8.894684804925983	2.203692649078179	-1.035855317783374	0.7335935822283565	-0.02805304217795105	-0.1695278969957082	-0.9642857142857142	0.5668934240362812
2584.991455078125	-3.183193496192517	-8.705541802411814	1.992819007006807	-1.717629793587552	0.3775887143648157	-0.03812848301539919	-0.1695278969957082	-0.9642857142857142	0.5668934240362812
2588.897705078125	-3.328364641389662	-9.057625444495194	2.224219241007056	-1.007426850780325	0.7692911002878819	0.6915830124131694	-0.1695278969957082	-0.9642857142857142	0.5668934240362812
2592.803955078125	-3.510905872691472	-8.924486900869047	2.110995432412504	-0.6608852111309039	0.4040360124952234	0.7021663960840844	-0.1695278969957082	-0.9642857142857142	0.5668934240362812
2596.710205078125	-3.410937183825535	-9.006294668565788	2.318208178471912	-1.038760747790235	-0.3707702202502642	-0.3767797429691294	-0.1866952789699571	-0.9464285714285714	0.5668934240362812
2600.616455078125	-3.441670825246555	-8.803967130131376	2.330347830777977	-1.010332280787186	-0.3350727021907388	0.342856311621991	-0.1866952789699571	-0.9464285714285714	0.5668934240362812
2604.522705078125	-3.682903565160002	-8.852059853237291	1.963825903755258	-1.363548951608355	-0.7120097357270816	-0.02015088167489629	-0.1866952789699571	-0.9464285714285714	0.5668934240362812
2608.428955078125	-3.438458684761591	-9.107029554566527	2.009133782281564	-0.3143435714814832	0.03878092470256481	0.7127497797549994	-0.1759656652360515	-0.9553571428571428	0.5736961451247166
2612.335205078125	-3.430109098485966	-8.541456484772718	2.194583317984344	0.02842846700304957	0.03569751805952553	0.7196360545911205	-0.1759656652360515	-0.9553571428571428	0.5736961451247166
2616.241455078125	-3.633375789123009	-8.721241999684528	2.113089116382565	-1.367318552773243	-0.3498380545774623	-0.02384799050969024	-0.1759656652360515	-0.9553571428571428	0.5736961451247166
2620.147705078125	-3.479283337048198	-8.924803126225479	2.009966357881017	-0.6571156099660159	0.04186433134560408	0.7058635049188784	-0.1759656652360515	-0.9553571428571428	0.5736961451247166
2624.053955078125	-3.58203184057282	-8.923775641190232	2.080735077690203	0.02842846700304957	0.03569751805952553	0.7196360545911205	-0.1630901287553648	-0.9553571428571428	0.5668934240362812
2627.960205078125	-3.256206344082014	-8.927033896155141	2.151246653099379	0.01421423350152478	0.01784875902976276	0.3598180272955602	-0.1630901287553648	-0.9553571428571428	0.5668934240362812
2631.866455078125	-3.521384764672224	-8.803169990737119	2.13847646722244	-0.6959887093057022	-0.3738536268933035	-0.3698934681330084	-0.1630901287553648	-0.9553571428571428	0.5668934240362812
2635.772705078125	-3.633824276662419	-8.983863777435397	2.157937870323574	-0.3532166708211696	-0.3769370335363428	-0.3630071932968873	-0.1609442060085837	-0.9709821428571428	0.564625850340136
2639.678955078125	-3.339401112473465	-9.017111039380318	2.30745818612203	0.6780048746392896	0.7181765490131601	0.006378332002654191	-0.1609442060085837	-0.9709821428571428	0.564625850340136
2643.585205078125	-3.37685402735793	-9.067241560736523	1.971117021507324	0.01044463233663683	0.3800204401793821	0.3561209184607663	-0.1609442060085837	-0.9709821428571428	0.564625850340136
2647.491455078125	-3.388979393863994	-8.895403135354291	2.16324550884844	-0.01798383466641273	0.3443229221198566	-0.3635151361303542	-0.1609442060085837	-0.9709821428571428	0.564625850340136
2651.397705078125	-3.626418130390868	-9.034442889403163	2.43773140643379	-0.3465416396494207	0.3652550877926586	-0.010583383670915	-0.1609442060085837	-0.9665178571428571	0.564625850340136
2655.303955078125	-3.389726873096345	-8.996405761572069	2.237993432083454	-0.3465416396494207	0.3652550877926586	-0.010583383670915	-0.1609442060085837	-0.9665178571428571	0.564625850340136
2659.210205078125	-3.422793861850782	-8.945570041179474	2.483467817731253	-0.6997583104705902	-0.01168194574368421	-0.3735905769678023	-0.1609442060085837	-0.9665178571428571	0.564625850340136
2663.116455078125	-3.319144342819056	-9.269838859602114	2.322597547211752	-0.6959887093057022	-0.3738536268933035	-0.3698934681330084	-0.1523605150214592	-0.9553571428571428	0.562358276643991
2667.022705078125	-3.451638603049512	-9.197806846292739	2.306717447808295	-1.388207817446517	-1.109878934936226	-0.7360898274312228	-0.1523605150214592	-0.9553571428571428	0.562358276643991
2670.928955078125	-3.47219436439686	-9.288510379588358	2.321477256012578	-0.7064333416423392	-0.7538740670726856	-0.7260143865937746	-0.1523605150214592	-0.9553571428571428	0.562358276643991
2674.835205078125	-3.414783671550926	-9.329488526920857	2.702856951011012	-1.38734364628849	-2.576414418564466	-1.081119419387607	-0.1523605150214592	-0.9553571428571428	0.562358276643991
2678.741455078125	-3.312998810171793	-9.239597284625557	2.72845244575075	-1.708362248941722	-3.279825615190903	-0.7207934492585801	-0.1566523605150215	-0.96875	0.5736961451247166
2682.647705078125	-3.210951320954267	-9.250718769618743	2.727785156651159	-0.9972951349764676	-4.354658712896076	-0.336111545786396	-0.1566523605150215	-0.96875	0.5736961451247166
2686.553955078125	-3.345540543249444	-9.390787018809931	2.921401263719889	-1.014414798484853	-5.47687127440446	-1.044656273873135	-0.1566523605150215	-0.96875	0.5736961451247166
2690.460205078125	-3.345789029588846	-9.481693624855628	2.946249897660178	-0.6281358883377192	-6.892943887586451	-0.3033455091067172	-0.167381974248927	-0.9598214285714285	0.562358276643991
2694.366455078125	-3.364409425788651	-9.431002370388581	2.767473191110019	-0.9520599209978121	-8.700718886691508	-0.2917462397688685	-0.167381974248927	-0.9598214285714285	0.562358276643991
2698.272705078125	-3.456864897033538	-9.409875795474111	2.829346846210948	-0.9436565475100093	-10.89159773261899	-0.629381614055665	-0.167381974248927	-0.9598214285714285	0.562358276643991
2702.178955078125	-3.399779458664383	-9.582163821574975	3.24325198888732	-0.9039192770122959	-11.94241525800832	0.1013457670398373	-0.167381974248927	-0.9598214285714285	0.562358276643991
2706.085205078125	-3.050220403981669	-9.40384123030362	2.981224071636329	-0.560283067369736	-13.4120341482796	-0.2367975500804261	-0.1587982832618026	-0.9464285714285714	0.564625850340136
2709.991455078125	-3.224294876587647	-9.573817657294731	3.041732556723933	0.1829821147634556	-14.81334140907487	0.8712175168176726	-0.1587982832618026	-0.9464285714285714	0.564625850340136
2713.897705078125	-3.379981277620092	-9.743977965001578	3.304250210988795	-0.4970640187246679	-18.10241724419489	0.1710828920674556	-0.1587982832618026	-0.9464285714285714	0.564625850340136
2717.803955078125	-3.327782778488054	-9.855611061104009	3.186441114111538	-0.4288982812239049	-19.11753725152469	1.621446327754078	-0.1502145922746781	-0.9464285714285714	0.5691609977324263
2721.710205078125	-3.392775335006988	-9.80445608503377	3.563247786413126	0.6362496747205457	-21.28196879932177	2.024105832566765	-0.1502145922746781	-0.9464285714285714	0.5691609977324263
2725.616455078125	-3.127906007180425	-9.918215889423147	3.606927248654814	1.351086389850688	-22.71897357817656	2.412484844873743	-0.1502145922746781	-0.9464285714285714	0.5691609977324263
2729.522705078125	-3.097457215953356	-10.15084360965865	3.623272615743714	2.380266676462313	-24.19475928173392	2.088114077425722	-0.1502145922746781	-0.9464285714285714	0.5691609977324263
2733.428955078125	-3.054711340018194	-9.999755916902849	3.43031767528886	3.458764694750262	-24.87480658687299	3.195621201490354	-0.1802575107296137	-0.9486607142857142	0.5918367346938775
2737.335205078125	-3.117172568217846	-9.958727264216813	3.553991515662144	4.523048479536686	-25.57270265104182	3.943310298259425	-0.1802575107296137	-0.9486607142857142	0.5918367346938775
2741.241455078125	-2.855753766144943	-10.2138667047628	3.942723553269789	5.223670961165302	-27.02755618892637	3.971871283270843	-0.1802575107296137	-0.9486607142857142	0.5918367346938775
2745.147705078125	-2.854287090678223	-10.13307329070938	3.796056006597842	6.290860175958588	-26.62108845061658	5.068287080831094	-0.1459227467811159	-0.9486607142857142	0.5804988662131519
2749.053955078125	-2.459943722762728	-10.16731975469157	4.157637582395274	6.655385650274422	-27.3306664605291	5.442385600632362	-0.1459227467811159	-0.9486607142857142	0.5804988662131519
2752.960205078125	-2.81750286667459	-10.3152593147676	4.199266259295763	8.393040537377217	-25.48167881090691	6.537785512525678	-0.1459227467811159	-0.9486607142857142	0.5804988662131519
2756.866455078125	-2.64475769497371	-10.28668373618158	4.271687864717995	9.778342924816876	-25.4761636784493	6.925148639165723	-0.1459227467811159	-0.9486607142857142	0.5804988662131519
2760.772705078125	-2.553104248742994	-10.31790330094691	4.290016711034095	10.49899049996074	-24.70444085234686	8.010981053055058	-0.1459227467811159	-0.9486607142857142	0.5804988662131519
2764.678955078125	-2.763706378156637	-10.39660536046086	3.921658223826895	12.25085962056506	-22.8376044436949	9.466198992243934	-0.1459227467811159	-0.9486607142857142	0.5804988662131519
2768.585205078125	-2.70433607759346	-10.33659300286043	4.107077147101102	12.93263409636924	-22.48159957583136	9.476274433081382	-0.1459227467811159	-0.9486607142857142	0.5804988662131519
2772.491455078125	-2.774383251123254	-10.11367030890291	3.968937357223402	14.33882574848217	-21.71604356301499	10.57587939664296	-0.1523605150214592	-0.953125	0.5895691609977325
2776.397705078125	-2.735140426509432	-10.18476980785612	4.126287548902371	15.39180072977393	-21.32742458373496	11.31247716690765	-0.1523605150214592	-0.953125	0.5895691609977325
2780.303955078125	-2.867848829438885	-10.09253363291773	4.131821719398674	16.41634724406264	-20.97450312251446	11.32943888258122	-0.1523605150214592	-0.953125	0.5895691609977325
2784.210205078125	-3.00996339063996	-10.15171854791178	4.057563553791961	17.14162859152941	-22.03148746118988	12.07393881334896	-0.1523605150214592	-0.953125	0.5895691609977325
2788.116455078125	-3.010716930514735	-10.24262010342213	4.13291754126942	17.84138690200001	-22.01980551544619	12.44752939031676	-0.1523605150214592	-0.953125	0.5895691609977325
2792.022705078125	-2.921109961209345	-10.061697991297	4.355894080118141	19.58367556142572	-21.99952503060187	13.20159681908849	-0.1523605150214592	-0.953125	0.5895691609977325
2795.928955078125	-3.228030211306397	-10.07883080899805	4.435674191864158	20.29387850423295	-21.60782264467879	13.93130831451706	-0.1523605150214592	-0.953125	0.5895691609977325
2799.835205078125	-3.260557802885057	-9.916889371466102	4.627208859934258	21.00117601703332	-22.32048406123435	14.31229310915445	-0.1502145922746781	-0.9419642857142857	0.5963718820861679
2803.741455078125	-3.279721636688921	-10.13891995535029	4.502775913790095	23.10131511960311	-23.75197370763154	15.08803524810147	-0.1502145922746781	-0.9419642857142857	0.5963718820861679
2807.647705078125	-3.546877846923647	-10.08574334274289	4.687784692364721	23.47801356857164	-27.01460224462115	15.12819550245074	-0.1502145922746781	-0.9419642857142857	0.5963718820861679
2811.553955078125	-3.587607549145604	-9.893416853801476	4.679122261499185	25.58859730347807	-28.06607145083896	16.26005855985853	-0.1502145922746781	-0.9419642857142857	0.5963718820861679
2815.460205078125	-3.637854521416966	-10.00402549518987	4.601778672308811	25.9435423166153	-30.62220538455909	15.93300656924265	-0.1502145922746781	-0.9419642857142857	0.5963718820861679
2819.366455078125	-3.780310498807953	-9.83088376369879	4.561662125693225	28.39312848884137	-31.31458631627032	17.06805879265176	-0.1502145922746781	-0.9419642857142857	0.5963718820861679
2823.272705078125	-3.967324484219014	-9.81891261374367	4.895713728023866	29.12594903863793	-33.09591401724497	17.8199529410891	-0.1502145922746781	-0.9419642857142857	0.5963718820861679
2827.178955078125	-3.902374352197051	-9.799360094861871	4.5231495054194	30.5643387589188	-32.65683216751869	19.64289106807659	-0.1459227467811159	-0.9441964285714285	0.6213151927437642
2831.085205078125	-3.853270821129771	-9.971568301889715	4.714837215017932	31.96558372217603	-35.56653924328781	19.70001303809942	-0.1459227467811159	-0.9441964285714285	0.6213151927437642
2834.991455078125	-3.936207002111112	-9.819223788564749	4.84519000702955	33.38017874777676	-36.99186207639891	20.4619826273742	-0.1459227467811159	-0.9441964285714285	0.6213151927437642
2838.897705078125	-3.984769115788473	-9.707627056316865	4.599360558439171	33.3760962300791	-42.13366064861263	19.07447004187908	-0.1459227467811159	-0.9441964285714285	0.6213151927437642
2842.803955078125	-3.728845337409274	-9.730388314302676	4.517186802151941	35.82191280114029	-42.46386989917424	20.2058251564534	-0.1459227467811159	-0.9441964285714285	0.6213151927437642
2846.710205078125	-3.708942105229626	-9.730587346624473	4.567679910717684	37.21561856206775	-44.64923361264411	20.25555290880665	-0.1459227467811159	-0.9441964285714285	0.6213151927437642
2850.616455078125	-3.455171875125252	-9.531104846905315	4.700860981912955	37.89825720902995	-45.75976422840881	19.92059875768771	-0.1459227467811159	-0.9441964285714285	0.6213151927437642
2854.522705078125	-3.66666491897529	-9.640101027577925	4.421593938345326	38.94455715914997	-46.11333737045778	20.30477271832643	-0.1416309012875537	-0.921875	0.6258503401360545
2858.428955078125	-3.719818979396251	-9.619367466771696	4.634959164114911	40.00043757044858	-44.62035458869914	21.3900971893823	-0.1416309012875537	-0.921875	0.6258503401360545
2862.335205078125	-3.708463314478093	-9.518470922410776	4.519800835564445	41.71806736403613	-44.99794330306396	21.42822567239769	-0.1416309012875537	-0.921875	0.6258503401360545
2866.241455078125	-3.831135252323779	-9.315224001012117	4.542096660949375	42.08259283835196	-45.70752131297647	21.80232419219896	-0.1416309012875537	-0.921875	0.6258503401360545
2870.147705078125	-4.037450446100326	-9.464676000589503	4.765452773297964	43.11467855497045	-46.07894321405521	21.82668012554212	-0.1416309012875537	-0.921875	0.6258503401360545
2874.053955078125	-4.15104350036531	-9.574651181157964	4.900268403877998	44.87872065022746	-46.76515733248035	22.94795979927899	-0.1416309012875537	-0.921875	0.6258503401360545
2877.960205078125	-4.148601061468252	-9.604978635849966	4.656024514172235	45.57934313185608	-48.22001087036491	22.97652078429041	-0.1416309012875537	-0.921875	0.6258503401360545
2881.866455078125	-4.066668926915231	-9.767414118811656	4.626076364992514	47.36136906177951	-49.25054791090991	24.46131559415764	-0.1459227467811159	-0.9196428571428571	0.6485260770975056
2885.772705078125	-4.199609654470954	-9.624670570121959	4.654842998115916	48.4152082142293	-50.32846441525813	24.85288377246594	-0.1459227467811159	-0.9196428571428571	0.6485260770975056
2889.678955078125	-4.159637532552056	-9.564464230735087	4.739263459287209	49.82893906867201	-50.287251764741	25.95988295369711	-0.1459227467811159	-0.9196428571428571	0.6485260770975056
2893.585205078125	-3.873042739390223	-9.516825128161654	4.651212714532524	51.20670225378188	-49.55739326998415	26.33985186266757	-0.1459227467811159	-0.9196428571428571	0.6485260770975056
2897.491455078125	-3.819704839482387	-9.507257497059724	4.419463540075408	53.64874922367819	-49.52543083939614	27.4675098684071	-0.1459227467811159	-0.9196428571428571	0.6485260770975056
2901.397705078125	-3.977948831617954	-9.455170006633317	4.937740304652507	54.69041540147528	-48.05029681666726	28.1930163121674	-0.1459227467811159	-0.9196428571428571	0.6485260770975056
2905.303955078125	-3.780191306173605	-9.35613748087766	4.549742862258452	56.08239282008669	-47.30258956288065	28.93280324843342	-0.1459227467811159	-0.9196428571428571	0.6485260770975056
2909.210205078125	-3.783049909183809	-9.305603844342507	4.835603163278845	57.47727566870496	-45.45051850661542	30.02131688549062	-0.1266094420600858	-0.890625	0.6689342403628118
2913.116455078125	-3.913837088464708	-9.385104053357777	4.649014968919746	58.51517224533716	-43.61321280273691	30.74312622041613	-0.1266094420600858	-0.890625	0.6689342403628118
2917.022705078125	-3.922338190800944	-9.193099850415225	4.478717039278118	60.2281682666018	-42.16209435232387	31.12258718655312	-0.1266094420600858	-0.890625	0.6689342403628118
2920.928955078125	-3.812308794281543	-9.204301154481429	4.700267183256368	61.65147958222312	-40.27432577799912	32.93073687820144	-0.1266094420600858	-0.890625	0.6689342403628118
2924.835205078125	-4.17149017014902	-9.342123482136895	4.904119055718252	62.67893152651868	-38.8170405143	33.29642529466618	-0.1266094420600858	-0.890625	0.6689342403628118
2928.741455078125	-4.303038970161259	-9.330706984035762	4.793692934493209	64.10310701329803	-38.39580742360349	34.75954539435811	-0.1266094420600858	-0.890625	0.6689342403628118
2932.647705078125	-4.241250473270723	-9.260617798297597	4.737292225031438	65.49217900190257	-38.75246397229549	35.15060562983295	-0.1266094420600858	-0.890625	0.6689342403628118
2936.553955078125	-4.464113323537909	-9.278591189996947	4.574597659913316	66.56604324786761	-37.60380411265671	36.59944523701918	-0.1502145922746781	-0.8638392857142857	0.7074829931972789
2940.460205078125	-4.373276043820352	-9.12798441127897	4.674543157545485	67.97686867230344	-38.6669552646182	37.35771771745916	-0.1502145922746781	-0.8638392857142857	0.7074829931972789
2944.366455078125	-4.598007592168414	-9.398464368522763	4.698718400514898	69.01562942009369	-38.29618504436793	37.73449746042829	-0.1502145922746781	-0.8638392857142857	0.7074829931972789
2948.272705078125	-4.741338322282664	-9.114202778393336	4.746077126225694	70.41514604103487	-38.27282115288056	38.48167861436389	-0.1502145922746781	-0.8638392857142857	0.7074829931972789
2952.178955078125	-4.968829483147998	-9.162432917289733	5.046213620922213	72.17832396513384	-37.49249978767747	39.94798788005716	-0.1502145922746781	-0.8638392857142857	0.7074829931972789
2956.085205078125	-4.831753377244651	-9.295116809661899	4.603909153036449	73.56362635257351	-37.48698465521987	40.33535100669719	-0.1502145922746781	-0.8638392857142857	0.7074829931972789
2959.991455078125	-4.843563590344642	-9.143483556015747	4.76452229977037	74.95937337234979	-37.10144908258287	41.07883505179801	-0.1502145922746781	-0.8638392857142857	0.7074829931972789
2963.897705078125	-4.854428343226419	-9.05246581757784	4.830589424682705	76.33423112745281	-37.47595439030465	41.11007725997729	-0.1437768240343348	-0.8415178571428571	0.7301587301587302
2967.803955078125	-4.874398242472736	-8.941155007474265	4.786763022783869	78.09363945038693	-36.33346134395194	42.57268941683575	-0.1437768240343348	-0.8415178571428571	0.7301587301587302
2971.710205078125	-4.744703999042382	-8.891946899403516	5.082644802197406	79.14661443167869	-35.94484236467191	43.30928718710044	-0.1437768240343348	-0.8415178571428571	0.7301587301587302
2975.616455078125	-4.846001988813417	-8.951539980111868	5.008362146647834	80.5252417879466	-36.6815193535433	43.34422650411451	-0.1437768240343348	-0.8191964285714285	0.7528344671201814
2979.522705078125	-4.815288549533812	-8.951847114504664	4.998242708483256	81.9389726423893	-36.64030670302617	44.45122568534568	-0.1437768240343348	-0.8191964285714285	0.7528344671201814
2983.428955078125	-4.784486220831982	-8.931953117589661	4.979234328096137	83.68793633298675	-35.87783409685284	45.55771692374337	-0.1437768240343348	-0.8191964285714285	0.7528344671201814
2987.335205078125	-4.630365485759189	-9.01430240574847	4.873283269796507	84.38769464345734	-35.86615215110915	45.93130750071118	-0.1437768240343348	-0.8191964285714285	0.7528344671201814
2991.241455078125	-4.712344085237466	-8.942775549046617	4.907877911501648	85.79388629557026	-35.10059613829279	47.03091246427275	-0.1416309012875537	-0.7991071428571428	0.7732426303854876
2995.147705078125	-4.815581480584328	-8.800329033679006	5.027535813534817	86.14042793521969	-35.46585122608545	47.04149584794366	-0.1416309012875537	-0.7991071428571428	0.7732426303854876
2999.053955078125	-4.96637290275195	-8.879629200265411	4.800555581317409	88.57116610162133	-34.34737375204858	48.15806252717881	-0.1416309012875537	-0.7991071428571428	0.7732426303854876
3002.960205078125	-4.89888534053942	-8.708586904170364	5.194656502921497	89.94225425555946	-34.35970737862074	48.1856076265233	-0.1566523605150215	-0.7857142857142857	0.8049886621315193
3006.866455078125	-4.966863814788331	-8.566492978013734	4.84964678495554	90.98478460451459	-34.35110883952009	48.56608447832722	-0.1566523605150215	-0.7857142857142857	0.8049886621315193
3010.772705078125	-4.699834878044519	-8.407547105765012	4.677365355472282	92.01310071996819	-34.36035905944921	48.58674330283559	-0.1566523605150215	-0.7857142857142857	0.8049886621315193
3014.678955078125	-4.989449891347874	-8.303640854621877	5.067438114379254	92.72330366277542	-33.96865667352614	49.31645479826415	-0.1566523605150215	-0.7857142857142857	0.8049886621315193
3018.585205078125	-5.122936076721799	-8.261901952364095	5.150750529322802	93.43350660558264	-33.57695428760307	50.04616629369272	-0.1437768240343348	-0.7611607142857142	0.8095238095238095
3022.491455078125	-4.960130399825895	-8.000903746506793	5.196713451977271	94.48648158687439	-33.18833530832305	50.78276406395742	-0.1437768240343348	-0.7611607142857142	0.8095238095238095
3026.397705078125	-4.776088149416961	-7.942138108404822	5.159835349859348	94.13035948604636	-34.66963614433801	50.07103016986935	-0.1437768240343348	-0.7611607142857142	0.8095238095238095
3030.303955078125	-4.971601216950118	-7.909879947426459	5.323387001134211	95.19377909967476	-33.9009967248786	51.1637488585948	-0.1630901287553648	-0.7477678571428571	0.8163265306122449
3034.210205078125	-5.012262231891264	-8.000382428186139	5.307855842187621	94.87362466817956	-36.07094340513328	51.17904523676744	-0.1630901287553648	-0.7477678571428571	0.8163265306122449
3038.116455078125	-5.064709217362704	-7.979655938129404	5.450513573005166	96.26646625794899	-36.78977163497491	51.57380258107708	-0.1630901287553648	-0.7477678571428571	0.8163265306122449
3042.022705078125	-5.022795669653837	-7.788155881687302	5.340791455179571	96.65942019926787	-37.4636521268279	52.66753715546947	-0.1630901287553648	-0.7477678571428571	0.8163265306122449
3045.928955078125	-4.830203831769269	-8.002203012187358	5.469362768763709	97.69527551705126	-38.19724570905626	52.69559019764742	-0.1523605150214592	-0.7455357142857142	0.8390022675736961
3049.835205078125	-5.043993859098179	-7.818246930095889	5.419794073083136	97.69150591588637	-37.83507402790664	52.69189308881263	-0.1523605150214592	-0.7455357142857142	0.8390022675736961
3053.741455078125	-4.890861008740573	-7.769273208094415	5.412631486302215	97.31739998039191	-38.97205194180174	51.6166440585942	-0.1523605150214592	-0.7455357142857142	0.8390022675736961
3057.647705078125	-5.036353367986214	-7.586000102683776	5.676153125152106	97.72079855404743	-39.26591199347536	53.06649955144736	-0.1802575107296137	-0.7142857142857142	0.8594104308390023
3061.553955078125	-4.985189218494619	-7.657218814885763	5.661778992318976	97.38933531905757	-40.34934363028118	53.07070460311562	-0.1802575107296137	-0.7142857142857142	0.8594104308390023
3065.460205078125	-5.171094106342005	-7.473541584189106	5.884920838281988	97.7793838303696	-42.12758792461278	53.81571247671683	-0.1802575107296137	-0.7142857142857142	0.8594104308390023
3069.366455078125	-5.078984091715311	-7.423957633830323	5.857592845000485	97.44878476653776	-44.67755504504684	53.47488793642871	-0.1802575107296137	-0.7142857142857142	0.8594104308390023
3073.272705078125	-5.016601651867178	-7.333672367319713	5.741797839779	97.10687689921124	-46.14100712203204	53.12297206963621	-0.1587982832618026	-0.6941964285714285	0.8843537414965986
3077.178955078125	-4.997660041618877	-7.414669864230277	5.888453141479518	97.82548321550628	-47.94018358203645	53.51504819077797	-0.1587982832618026	-0.6941964285714285	0.8843537414965986
3081.085205078125	-5.026478520033768	-7.373977639042089	5.709076493172628	96.80180087237558	-49.7596405268852	53.15305688314803	-0.1587982832618026	-0.6941964285714285	0.8843537414965986
3084.991455078125	-4.984599315965304	-7.293588350274692	5.60278873938756	96.44567877154756	-51.24094136290016	52.44132298905996	-0.1523605150214592	-0.6540178571428571	0.8866213151927438
3088.897705078125	-5.23092703594358	-7.099205881155718	5.74576481884783	97.18894395368076	-52.64224862369543	53.54933805595805	-0.1523605150214592	-0.6540178571428571	0.8866213151927438
3092.803955078125	-5.098604493915151	-7.221741227788123	5.778816738453926	97.20025275717542	-53.72876366714429	53.56042938246244	-0.1523605150214592	-0.6540178571428571	0.8866213151927438
3096.710205078125	-4.822114853117896	-7.002283901973873	5.68087306689167	95.48725673591076	-55.17988211755733	53.18096841632545	-0.1523605150214592	-0.6540178571428571	0.8866213151927438
3100.616455078125	-5.098673181195962	-6.938912258087031	5.785685466534981	95.84887678021975	-56.99382392994847	53.20634023533554	-0.1437768240343348	-0.640625	0.9070294784580499
3104.522705078125	-5.272905230504976	-6.846260846684849	5.861951621926183	95.16796647557361	-58.81636428144025	52.8512352025417	-0.1437768240343348	-0.640625	0.9070294784580499
3108.428955078125	-4.90684902468516	-7.051941610763251	5.99102491749562	94.87624051108145	-60.95061344363539	53.58616763530547	-0.1437768240343348	-0.640625	0.9070294784580499
3112.335205078125	-4.84588275495021	-6.789925010834338	6.016846923592365	94.21998907227345	-62.37528459591803	53.94700154826796	-0.1502145922746781	-0.6205357142857143	0.9319727891156463
3116.241455078125	-4.926633064230461	-6.576996295620322	5.928612545495105	93.85719194027368	-64.59877755326201	52.88284384455392	-0.1502145922746781	-0.6205357142857143	0.9319727891156463
3120.147705078125	-4.905333864079044	-6.546906257318807	5.839508856884105	93.56837140578837	-65.62866291297853	53.96650297810886	-0.1502145922746781	-0.6205357142857143	0.9319727891156463
3124.053955078125	-4.885957907790325	-6.678413148194826	5.942729554542655	92.51249099448977	-67.12164569473718	52.881178507053	-0.1502145922746781	-0.6205357142857143	0.9319727891156463
3127.960205078125	-4.723172433035836	-6.72044504334641	5.990712691338611	92.86947726647581	-67.10688034235045	53.24788280918468	-0.1309012875536481	-0.6116071428571428	0.9614512471655329
3131.866455078125	-4.805163153798961	-6.628716045229688	6.026519461528644	91.8135968551772	-68.59986312410911	52.16255833812881	-0.1309012875536481	-0.6116071428571428	0.9614512471655329
3135.772705078125	-4.815916794902955	-6.386184266394405	6.081475408662802	90.76816107621519	-69.71282546568837	51.43335478553371	-0.1309012875536481	-0.6116071428571428	0.9614512471655329
3139.678955078125	-4.84741811769774	-6.58788945518666	6.170383198345367	91.13268655053105	-70.42240347560089	51.80745330533498	-0.1201716738197425	-0.5625	0.9501133786848073
3143.585205078125	-4.857927312890614	-6.41606719151756	6.200894554367533	89.73026449958301	-71.55013116956687	50.7115454506082	-0.1201716738197425	-0.5625	0.9501133786848073
3147.491455078125	-4.736414977962141	-6.538494436078967	6.29455902070395	89.04935419493685	-73.37267152105866	50.35644041781436	-0.1201716738197425	-0.5625	0.9501133786848073
3151.397705078125	-4.930540158380097	-6.294128941850543	6.319321960458666	89.03513996143533	-73.39052028008842	49.9966223905188	-0.1201716738197425	-0.5625	0.9501133786848073
3155.303955078125	-4.747152457353005	-6.154548677446673	6.347898796524918	88.00014881480999	-74.12346218148829	49.62353975638447	-0.111587982832618	-0.546875	0.9727891156462586
3159.210205078125	-4.665731436977778	-6.306878039165577	6.369062065124814	87.66114637749034	-74.48255045599488	49.62035059038314	-0.111587982832618	-0.546875	0.9727891156462586
3163.116455078125	-4.586332650958182	-6.287470006823753	6.592448769287546	87.30125467549743	-75.60167961086022	48.90491958746028	-0.111587982832618	-0.546875	0.9727891156462586
3167.022705078125	-4.840452378109032	-6.072807597431032	6.494217402739998	86.94426840351136	-75.61644496324693	48.5382152853286	-0.1008583690987124	-0.5267857142857143	0.9682539682539683
3170.928955078125	-4.869925405905765	-5.951300745940943	6.380295692617282	87.65156591631172	-76.32910637980251	48.91920007996599	-0.1008583690987124	-0.5267857142857143	0.9682539682539683
3174.835205078125	-4.759590957050999	-6.134222272247673	6.57134060305908	86.61657476968638	-77.06204828120238	48.54611744583165	-0.1008583690987124	-0.5267857142857143	0.9682539682539683
3178.741455078125	-4.547887810930247	-5.701995869365446	6.829597419555246	86.25958849770032	-77.07681363358911	48.17941314369997	-0.1008583690987124	-0.5267857142857143	0.9682539682539683
3182.647705078125	-4.353069697061762	-5.754449101009182	6.735541134747531	85.54184635256331	-76.74417265721294	47.44230743060182	-0.111587982832618	-0.5133928571428571	1.011337868480726
3186.553955078125	-4.506008606861784	-5.62160658059805	6.723309665770179	85.53807675139842	-76.38200097606332	47.43861032176702	-0.111587982832618	-0.5133928571428571	1.011337868480726
3190.460205078125	-4.445597896015741	-5.6121096776055	6.804687560757813	84.83831844092784	-76.39368292180701	47.06501974479922	-0.111587982832618	-0.5133928571428571	1.011337868480726
3194.366455078125	-4.42431889800574	-5.885049740312873	6.7176040862883	83.79201849080783	-76.04010977975803	46.6808457841605	-0.08583690987124463	-0.4821428571428571	1.00453514739229
3198.272705078125	-4.812425823637605	-5.972077761965646	6.752786445393173	83.09226018033723	-76.05179172550172	46.3072552071927	-0.08583690987124463	-0.4821428571428571	1.00453514739229
3202.178955078125	-4.568433471206888	-5.641184352156619	6.843347120688786	83.43880181998665	-76.41704681329438	46.31783859086362	-0.08583690987124463	-0.4821428571428571	1.00453514739229
3206.085205078125	-4.527701748770789	-5.500177527966838	6.851807530140173	81.6898381293892	-77.17951941946771	45.21134735246591	-0.08583690987124463	-0.4821428571428571	1.00453514739229
3209.991455078125	-4.109483407673483	-5.756884963903064	6.86670811428703	81.02604748825144	-77.8798472094511	45.56478704775882	-0.06866952789699571	-0.4642857142857142	1.024943310657596
3213.897705078125	-4.363174849426339	-5.582630877768364	6.72564820793996	80.28741607844115	-78.30724711343369	44.11543949773913	-0.06866952789699571	-0.4642857142857142	1.024943310657596
3217.803955078125	-4.30472576651168	-5.502407287789429	7.003188896065969	80.61683805458219	-79.79471476273473	43.41747815332331	-0.06866952789699571	-0.4642857142857142	1.024943310657596
3221.710205078125	-4.50875003745178	-5.429659974372958	6.997452724769947	79.57807730679197	-80.16548498298499	43.04069841035418	-0.07510729613733906	-0.4441964285714285	1.024943310657596
3225.616455078125	-4.407635887167622	-5.400368085572769	7.09011932900705	79.22195520596392	-81.64678581899996	42.32896451626612	-0.07510729613733906	-0.4441964285714285	1.024943310657596
3229.522705078125	-4.396534769231291	-5.380277076550112	7.000415698639318	77.81199395268612	-82.0501701506667	41.22566244386974	-0.07510729613733906	-0.4441964285714285	1.024943310657596
3233.428955078125	-4.396538809659575	-5.541893197761992	7.000819741467615	77.815763553851	-82.41234183181633	41.22935955270454	-0.07510729613733906	-0.4441964285714285	1.024943310657596
3237.335205078125	-4.243169594247415	-5.381810728299951	6.970020649231297	77.4483326495283	-82.80712762438243	40.50653433211209	-0.03004291845493562	-0.4241071428571428	1.038548752834467
3241.241455078125	-4.348770640139817	-5.340350677436987	7.326043605818429	77.10265518103692	-83.90840802021802	40.15092135648479	-0.03004291845493562	-0.4241071428571428	1.038548752834467
3245.147705078125	-4.478602258131793	-5.328951351156057	7.043899282567001	76.05054437090318	-85.76356248312628	39.06929399426372	-0.03004291845493562	-0.4241071428571428	1.038548752834467
3249.053955078125	-4.450995908201794	-5.369631455059397	7.344488779363104	76.41420567406098	-85.00660500941056	39.78842210602137	-0.02145922746781116	-0.4129464285714285	1.029478458049887
3252.960205078125	-4.2972792159573	-5.451976702789923	7.278942003893212	75.35455566159747	-86.13741611001959	38.69940052613071	-0.02145922746781116	-0.4129464285714285	1.029478458049887
3256.866455078125	-4.379401250639621	-5.309741341028959	7.32788016600291	75.35078606043258	-85.77524442886997	38.69570341729592	-0.02145922746781116	-0.4129464285714285	1.029478458049887
3260.772705078125	-4.246444361370765	-5.311070909921647	7.297497361566319	75.36209486392724	-86.86175947231882	38.70679474380029	-0.02145922746781116	-0.4129464285714285	1.029478458049887
3264.678955078125	-4.108127802755685	-5.150837913891636	7.751555785772564	75.36876989509901	-86.11956735098983	39.05921855342627	-0.01716738197424893	-0.3839285714285714	1.070294784580499
3268.585205078125	-4.126887593731253	-5.372872538204103	7.586718556798664	75.34788063042572	-86.87960823134858	38.34697671650473	-0.01716738197424893	-0.3839285714285714	1.070294784580499
3272.491455078125	-4.087123553868926	-5.302563107895655	7.691947223627272	75.34034142809595	-86.15526486904935	38.33958249883515	-0.01716738197424893	-0.3839285714285714	1.070294784580499
3276.397705078125	-4.09563475727587	-5.262073955457545	7.522659401056387	75.99368743689708	-85.83495751924534	37.63002188508148	-0.004291845493562232	-0.3705357142857142	1.058956916099773
3280.303955078125	-3.942174632227344	-5.25350754660702	7.482769345183378	76.69635117737452	-84.71891177102303	38.35233916284046	-0.004291845493562232	-0.3705357142857142	1.058956916099773
3284.210205078125	-3.953259588450543	-5.132184575832667	7.57085680423792	77.34969718617566	-84.39860442121902	37.64277854908678	-0.004291845493562232	-0.3705357142857142	1.058956916099773
3288.116455078125	-3.7392877418489	-5.114122274096664	7.602243572645111	76.63949424336842	-84.79030680714209	36.91306705365822	-0.004291845493562232	-0.3705357142857142	1.058956916099773
3292.022705078125	-3.841812001603818	-4.981783900185983	7.650587915483792	77.29284025216957	-84.46999945733806	36.20350643990454	0.01931330472103004	-0.3616071428571428	1.070294784580499
3295.928955078125	-3.553817200041935	-4.742239605777359	7.422536330724067	77.61385885482279	-83.76658826071163	35.84318046977552	0.01931330472103004	-0.3616071428571428	1.070294784580499
3299.835205078125	-3.502404564210935	-4.722551711933649	7.383313563950649	76.88567207734916	-83.81396772451484	34.74995383821659	0.01931330472103004	-0.3616071428571428	1.070294784580499
3303.741455078125	-3.849745423766297	-4.557462141721934	7.423521968466383	76.86014904035297	-82.74530144009574	34.37904448441665	0.05579399141630902	-0.3370535714285714	1.056689342403628
3307.647705078125	-3.370805258845158	-4.481443462563064	7.488689149821975	76.84216520568656	-82.40097851797587	34.0155293482863	0.05579399141630902	-0.3370535714285714	1.056689342403628
3311.553955078125	-3.310487477849625	-4.653763812090192	7.579360029860449	76.83462600335677	-81.67663515567664	34.00813513061671	0.05579399141630902	-0.3370535714285714	1.056689342403628
3315.460205078125	-3.07602249653902	-4.272270078064913	7.602249653901965	77.13389117017871	-80.26672935578073	33.28059691552254	0.05579399141630902	-0.3370535714285714	1.056689342403628
3319.366455078125	-3.084646831937887	-4.211577774104864	7.444275030523406	76.40484022154703	-78.84757333595572	32.53239987592	0.06866952789699571	-0.3169642857142857	1.072562358276644
3323.272705078125	-2.921517920779345	-4.152603002610389	7.457914526914085	76.36133334988443	-77.43458412941676	31.7979753859897	0.06866952789699571	-0.3169642857142857	1.072562358276644
3327.178955078125	-2.800104576343805	-3.941695923933533	7.561478042543787	75.99303827440373	-76.36283443835461	31.42017975735364	0.06866952789699571	-0.3169642857142857	1.072562358276644
3331.085205078125	-2.788550930439782	-4.002417520998633	7.42652161540675	76.31405687705694	-75.65942324172818	31.05985378722461	0.08583690987124463	-0.2991071428571428	1.074829931972789
3334.991455078125	-2.584132717742091	-3.721633420297328	7.392863610943778	75.94953140274112	-74.94984523181566	30.68575526742334	0.08583690987124463	-0.2991071428571428	1.074829931972789
3338.897705078125	-2.412409774396803	-3.67284559922573	7.567508051925246	75.57746672609551	-73.51592385960392	30.30426252995249	0.08583690987124463	-0.2991071428571428	1.074829931972789
3342.803955078125	-2.565409290621071	-3.438992371740255	7.561337225372354	73.79630496733012	-73.95192230268715	28.47443812812887	0.08583690987124463	-0.2991071428571428	1.074829931972789
3346.710205078125	-2.565051712718027	-3.529905038428376	7.525579435068036	73.79834622617894	-71.3810230165803	29.16819442087643	0.09871244635193133	-0.296875	1.08390022675737
3350.616455078125	-2.686511522078821	-3.326670238314566	7.426662411963754	72.37330656824157	-70.33572062364856	28.05010391314089	0.09871244635193133	-0.296875	1.08390022675737
3354.522705078125	-2.769102246441967	-3.245036250262854	7.522469542155948	71.29103894878872	-69.29350163735987	26.93889968024146	0.09871244635193133	-0.296875	1.08390022675737
3358.428955078125	-2.962118329296247	-3.334015180343402	7.436322725543033	71.61496298144883	-67.48572663825482	26.92730041090361	0.1244635193133047	-0.265625	1.061224489795918
3362.335205078125	-2.811678424389243	-3.173903417776311	7.698454683822312	70.53355953315402	-67.91004313559436	25.4710665860478	0.1244635193133047	-0.265625	1.061224489795918
3366.241455078125	-2.883123586104947	-3.314603107573294	7.700113712535503	70.16989822999621	-68.66700060931009	24.75193847429015	0.1244635193133047	-0.265625	1.061224489795918
3370.147705078125	-2.973857834901287	-3.131877583267149	7.589865122781751	69.46346488835387	-69.42087467638278	24.02592408769637	0.1244635193133047	-0.265625	1.061224489795918
3374.053955078125	-2.966631487688328	-3.051141765931198	7.8876385647512	69.44634522484549	-70.54308723789116	23.31737935960964	0.1459227467811159	-0.2566964285714285	1.074829931972789
3377.960205078125	-2.637816074268121	-3.155440021075501	7.65915844722032	69.432995162502	-72.02747148054918	22.61253174035769	0.1459227467811159	-0.2566964285714285	1.074829931972789
3381.866455078125	-2.750740437652273	-3.033098656229538	7.727104989717138	67.99837504338602	-72.82872501142506	20.79329072220499	0.1459227467811159	-0.2566964285714285	1.074829931972789
3385.772705078125	-2.689551944361759	-2.973104480556383	7.730704640257527	67.62717453789843	-72.86133912284156	20.06676839277775	0.1394849785407725	-0.2477678571428571	1.095238095238095
3389.678955078125	-2.372910382587012	-2.824755744658979	7.699201524007331	67.60542110206713	-72.15484451957208	19.6995561478126	0.1394849785407725	-0.2477678571428571	1.095238095238095
3393.585205078125	-2.434634232625021	-2.834239516259609	7.749137548216344	67.21246716074823	-71.48096402771908	18.60582157342022	0.1394849785407725	-0.2477678571428571	1.095238095238095
3397.491455078125	-2.383839782321316	-2.794343420358605	7.771733334172424	66.48804998443948	-71.89051517267193	17.51629205069609	0.1394849785407725	-0.2477678571428571	1.095238095238095
3401.397705078125	-2.292562095920916	-2.704347106313519	7.82763816352018	66.13019954129541	-70.43874504143039	17.49461734052079	0.167381974248927	-0.234375	1.08843537414966
3405.303955078125	-2.283410484631121	-2.633731551719346	7.932885197805931	66.09800147312748	-70.1122708783403	16.77128417709487	0.167381974248927	-0.234375	1.08843537414966
3409.210205078125	-2.293400484789633	-2.653833671919781	7.911477050391885	65.38402892915536	-70.14180158311373	16.03787557283151	0.167381974248927	-0.234375	1.08843537414966
3413.116455078125	-2.334390794635842	-2.532211647609197	7.928875381951531	65.02704265716929	-70.15656693550046	15.67117127069983	0.1609442060085837	-0.1919642857142857	1.077097505668934
3417.022705078125	-2.302826845202671	-2.6032343578106	7.833704928430356	64.6596117528466	-70.55135272806658	14.94834605010738	0.1609442060085837	-0.1919642857142857	1.077097505668934
3420.928955078125	-2.140303998286575	-2.544253525673701	7.90795084906564	64.27710244386435	-69.4974517960342	14.21073239417576	0.1609442060085837	-0.1919642857142857	1.077097505668934
3424.835205078125	-2.12986349037451	-2.43324681964171	7.884308221124529	64.23822934452467	-69.9131697542731	13.13497542112387	0.1609442060085837	-0.1919642857142857	1.077097505668934
3428.741455078125	-1.98795903144415	-2.192241621806771	7.979576613802706	63.86993426904395	-68.84142006321099	12.75717979248781	0.1609442060085837	-0.1919642857142857	1.077097505668934
3432.647705078125	-1.925835179006127	-2.344378011846303	7.889640349592254	63.84064163088287	-67.41058209764228	12.38257332985307	0.1609442060085837	-0.1919642857142857	1.077097505668934
3436.553955078125	-1.948384891711123	-2.142132312699051	8.103795293561291	62.42691077644017	-67.4517947481594	11.27557414862191	0.1609442060085837	-0.1919642857142857	1.077097505668934
3440.460205078125	-1.80416728758876	-2.052665397831184	7.967749167039221	62.78303287726819	-65.97049391214443	11.98730804270997	0.2103004291845494	-0.1540178571428571	1.077097505668934
3444.366455078125	-1.722736166142827	-2.053479709045643	7.987902328568374	61.71207406131002	-66.0147899693046	10.88719513631493	0.2103004291845494	-0.1540178571428571	1.077097505668934
3448.272705078125	-1.691929797012713	-1.871969590918762	7.968489905352956	61.66856718964742	-64.60180076276565	10.15277064638464	0.2103004291845494	-0.1540178571428571	1.077097505668934
3452.178955078125	-1.620846253628336	-1.801973355645535	8.00299270977238	61.67524222081916	-63.85960864143666	10.50519445601061	0.2103004291845494	-0.1540178571428571	1.077097505668934
3456.085205078125	-1.78244182225349	-1.891266490868375	7.836018960042848	61.27097947600562	-62.0992131061348	9.400368555113836	0.2103004291845494	-0.1540178571428571	1.077097505668934
3459.991455078125	-1.66932957895418	-1.821690542594297	7.749284426030203	60.9064540016898	-61.38963509622229	9.026270035312566	0.2103004291845494	-0.1540178571428571	1.077097505668934
3463.897705078125	-1.629535235879731	-1.801886465823021	7.851482771646579	60.17740305305813	-59.97047907639725	8.278072995710028	0.2103004291845494	-0.1540178571428571	1.077097505668934
3467.803955078125	-1.660739587195717	-1.488443109178548	7.910693413449288	59.82332221107893	-58.88088062630536	8.260095394369525	0.2467811158798283	-0.140625	1.08843537414966
3471.710205078125	-1.589946954647714	-1.438645984998978	7.974287301506124	58.05260508465017	-58.93685862920921	6.786391911006679	0.2467811158798283	-0.140625	1.08843537414966
3475.616455078125	-1.457232491075837	-1.540983230644797	7.968147066767374	57.68054040800456	-57.50293725699746	6.404899173535822	0.2467811158798283	-0.140625	1.08843537414966
3479.522705078125	-1.480071094403066	-1.530653834510515	8.211191072959673	56.27348458473359	-56.80195778618559	5.650323801930629	0.2467811158798283	-0.140625	1.08843537414966
3483.428955078125	-1.335710055076657	-1.511895424701759	8.060801426033047	55.95160181092234	-56.03883349918378	6.355679364016041	0.2467811158798283	-0.140625	1.08843537414966
3487.335205078125	-1.366958851103756	-1.461077886236437	8.124456538947028	55.58330673544162	-54.96708380812165	5.977883735379978	0.2467811158798283	-0.140625	1.08843537414966
3491.241455078125	-1.479846850633361	-1.399342945635081	8.18876669598917	54.15913124866228	-55.38831689881817	4.514763635688047	0.2467811158798283	-0.140625	1.08843537414966
3495.147705078125	-1.181896392553371	-1.250807298700729	7.985557622684018	54.1515920463325	-54.66397353651893	4.507369418018458	0.2703862660944206	-0.1183035714285714	1.074829931972789
3499.053955078125	-0.9787105104819869	-1.273041177723463	8.075132680851745	53.78039154084492	-54.69658764793542	3.780847088591217	0.2703862660944206	-0.1183035714285714	1.074829931972789
3502.960205078125	-0.9067946388713171	-1.24345730613654	8.02640266264191	53.07309402804455	-53.98392623137986	3.399862293953826	0.2703862660944206	-0.1183035714285714	1.074829931972789
3506.866455078125	-1.029571627852361	-1.201825495842689	8.059203601562572	51.99546018091463	-54.77041440986903	1.947325577932811	0.2703862660944206	-0.1183035714285714	1.074829931972789
3510.772705078125	-0.865782106669552	-1.233766421357547	8.00678209552663	50.91986759263354	-52.98600330225134	1.188545154659357	0.2703862660944206	-0.1183035714285714	1.074829931972789
3514.678955078125	-0.8457010956454524	-1.193563191063748	8.039497319647287	50.24099854683622	-52.23764436763626	1.527196414613087	0.2703862660944206	-0.1183035714285714	1.074829931972789
3518.585205078125	-0.7437626979915662	-1.022865403323115	8.049739186911726	48.83394272356527	-51.5366648968244	0.7726210430078948	0.2703862660944206	-0.1183035714285714	1.074829931972789
3522.491455078125	-0.6308524761064048	-0.9532874348348956	7.983206794313948	47.76965893877885	-50.83876883265555	0.02493194623882333	0.2832618025751073	-0.08928571428571427	1.061224489795918
3526.397705078125	-0.764894220369239	-1.16406822951348	8.122075098148384	46.7262644186657	-49.38083188812796	-0.01051531360871572	0.2832618025751073	-0.08928571428571427	1.061224489795918
3530.303955078125	-0.8182583830609147	-0.9615143858663607	8.356450550989434	44.9764365569102	-48.67676901067306	-0.7719769600500292	0.2832618025751073	-0.08928571428571427	1.061224489795918
3534.210205078125	-0.510620956943635	-1.297924093460867	8.204952837220633	44.62989491726078	-48.31151392288039	-0.7825603437209443	0.2832618025751073	-0.08928571428571427	1.061224489795918
3538.116455078125	-0.6557112935751208	-0.9429378365591986	8.428272214654934	43.93390620795508	-48.6853675497737	-1.152453811853953	0.2832618025751073	-0.08928571428571427	1.061224489795918
3542.022705078125	-0.5014228807285851	-1.136399912606856	8.305553378980964	42.9018204913366	-48.31394564869496	-1.17680974519711	0.2832618025751073	-0.08928571428571427	1.061224489795918
3545.928955078125	-0.5436717839849401	-1.105674393271262	8.448811051555241	42.21250681320264	-47.94560715425926	-1.194279403704146	0.2832618025751073	-0.08928571428571427	1.061224489795918
3549.835205078125	-0.3108148931309584	-0.9059827601595997	8.632509721259112	41.50897890156716	-47.59511741885333	-1.571567089506742	0.3004291845493562	-0.03794642857142857	1.054421768707483
3553.741455078125	-0.1690619502612089	-0.9175012996893072	8.742929719998441	41.17665149541927	-47.21201357203091	-1.222332445882097	0.3004291845493562	-0.03794642857142857	1.054421768707483
3557.647705078125	-0.4130886463323316	-0.8544549721225354	8.655803408743356	40.13412114646415	-47.22061211113155	-1.60280929768602	0.3004291845493562	-0.03794642857142857	1.054421768707483
3561.553955078125	-0.1161462751089432	-0.8776264160367896	8.553403021098401	40.09901764828935	-47.99850175052008	-2.674869161903113	0.3004291845493562	-0.03794642857142857	1.054421768707483
