Time Stamp	Accelerometer X	Accelerometer Y	Accelerometer Z	Gyroscope X	Gyroscope Y	Gyroscope Z	Magnetometer X	Magnetometer Y	Magnetometer Z
60.577392578125	4.969304315928967	-8.120400113866362	-3.052880572488548	-0.9526111756230593	-1.730213149699928	1.437098828847847	-0.03433476394849785	-1.017857142857143	0.5578231292517007
64.483642578125	-2.947415375689945	-8.829111704828961	1.884394711851677	-45.01968176105254	17.13521863923969	0.3671030992498618	-0.03433476394849785	-1.017857142857143	0.5578231292517007
68.389892578125	-2.98152479494139	-9.061093842959679	2.234112147200197	-1.364385203181677	59.69309916685422	-2.063067616595485	-0.03433476394849785	-1.017857142857143	0.5578231292517007
72.296142578125	-3.123243394170734	-8.938464535755264	2.120257784420341	30.57605884047188	82.16652857774525	-2.728129720478806	-0.03433476394849785	-1.017857142857143	0.5578231292517007
76.202392578125	-2.989793572651356	-8.919597013768437	2.04058175493147	34.43385459423193	105.2906665325747	-3.241927415167727	-0.03433476394849785	-1.017857142857143	0.5578231292517007
80.108642578125	-2.817987800526267	-8.840506990681607	2.206943317932841	30.48069297267139	125.6418956680863	-2.805078478522399	-0.06866952789699571	-1.004464285714286	0.5351473922902494
84.014892578125	-2.819686800619257	-8.870793030983707	2.376843327231887	25.58214646128479	138.0345980382354	-2.307551972019968	-0.06866952789699571	-1.004464285714286	0.5351473922902494
87.921142578125	-3.02193328311485	-8.899073596461783	2.193328311485021	5.740110910911854	2.773560500146236	-1.351782307646535	-0.06866952789699571	-1.004464285714286	0.5351473922902494
91.827392578125	-2.857062947366346	-8.880520279617247	2.032825348879531	4.106276514109864	-6.283163254408814	-1.653603988252851	-0.06866952789699571	-1.004464285714286	0.5351473922902494
95.733642578125	-2.846656783094688	-8.880624341259965	2.012617084978948	4.430513463302737	1.028581998059585	-0.2813877809303684	-0.06866952789699571	-1.004464285714286	0.5351473922902494
99.639892578125	-2.867384262644063	-9.021831207878611	2.04454871338587	2.70534446738541	2.130514074723639	-0.3269104816153556	-0.06866952789699571	-1.004464285714286	0.5351473922902494
103.546142578125	-3.018967608755147	-8.959709313811439	1.896760875514748	0.2879563633272675	2.496420843344771	-0.7386295415985571	-0.06866952789699571	-1.004464285714286	0.5351473922902494
107.452392578125	-3.011288733574496	-8.959786102563246	2.149281520714893	-0.4013573148066859	2.864759337780469	-0.7560992001055932	-0.05793991416309013	-1.006696428571429	0.5102040816326531
111.358642578125	-2.980678325216107	-8.788375034929659	2.149465174671898	-1.058472924772702	2.906623669126073	-0.05023569518671477	-0.05793991416309013	-1.006696428571429	0.5102040816326531
115.264892578125	-3.071129744032639	-8.908682641953614	2.010933586937329	-1.74315283058374	1.446254998783911	-0.4090378368153413	-0.05793991416309013	-1.006696428571429	0.5102040816326531
119.171142578125	-2.926853553700172	-8.748509242240779	1.869028839404948	-1.392841589769432	0.718828229841633	-0.3947573443096323	-0.05793991416309013	-1.006696428571429	0.5102040816326531
123.077392578125	-3.071830758339734	-8.918776641911554	2.081035017646923	-1.035855317783374	0.7335935822283565	-0.02805304217795105	-0.05793991416309013	-1.006696428571429	0.5102040816326531
126.983642578125	-3.235446541106375	-9.008049574992979	2.116082682066079	0	0	0	-0.05793991416309013	-1.006696428571429	0.5102040816326531
130.889892578125	-3.091085501779966	-8.989291165184222	1.965693035139452	-1.741424488267686	-1.486815968472569	-1.09909702072811	-0.05793991416309013	-1.006696428571429	0.5102040816326531
134.796142578125	-2.734255655173181	-8.97265744344827	1.99699408874664	-0.6742352734744016	-1.080348230162779	-0.002681223167860238	-0.07510729613733906	-1.029017857142857	0.5328798185941043
138.702392578125	-2.843988080213783	-8.951358098995843	1.745746796888533	-1.020776913123822	-0.7150931423701209	-0.01326460683877524	-0.07510729613733906	-1.029017857142857	0.5328798185941043
142.608642578125	-3.049483067048887	-8.615969815794159	1.887082215092755	-0.6817744758041775	-0.3560048678635408	-0.01007544083744814	-0.07510729613733906	-1.029017857142857	0.5328798185941043
146.514892578125	-3.022153486456272	-8.868768364125337	2.215348645627228	-0.6742352734744016	-1.080348230162779	-0.002681223167860238	-0.05150214592274678	-1.03125	0.5283446712018141
150.421142578125	-3.085129869262003	-8.979249711408393	2.390537946608426	-0.3390024373196448	-0.35908827450658	-0.003189166001327095	-0.05150214592274678	-1.03125	0.5283446712018141
154.327392578125	-2.959116497226297	-8.859297723916628	2.034098702221569	-1.023682343130683	-1.819456944848742	-0.3619913076299536	-0.05150214592274678	-1.03125	0.5283446712018141
158.233642578125	-2.653028575355538	-8.801752542529274	2.03755141310481	0.007539202329775903	-0.7243433622992387	0.007394217669587907	-0.05150214592274678	-1.03125	0.5283446712018141
162.139892578125	-2.806476579119215	-8.830521092794667	2.076229340492926	-0.3323274061478959	0.3831038468224214	0.3492346436246452	-0.05579399141630902	-1.011160714285714	0.5306122448979592
166.046142578125	-2.786076374260761	-9.153957418075574	2.077025181178092	-0.6780048746392896	-0.7181765490131601	-0.006378332002654191	-0.05579399141630902	-1.011160714285714	0.5306122448979592
169.952392578125	-2.949756803879929	-8.798785260244031	2.118537530850005	-1.038760747790235	-0.3707702202502642	-0.3767797429691294	-0.05579399141630902	-1.011160714285714	0.5306122448979592
173.858642578125	-2.978559120581687	-9.121729560309337	1.937544711229925	-1.028316115453598	0.009250219929117825	-0.02065882450836315	-0.06437768240343347	-1.022321428571429	0.5147392290249433
177.764892578125	-2.839412253954456	-8.830191736046315	2.30857233422106	-1.017871483116962	0.3892706601084999	0.3354620939524031	-0.06437768240343347	-1.022321428571429	0.5147392290249433
181.671142578125	-2.72296463710755	-8.932366313224886	1.888300445448932	-1.017871483116962	0.3892706601084999	0.3354620939524031	-0.06437768240343347	-1.022321428571429	0.5147392290249433
185.577392578125	-2.711309980496453	-8.993088920397058	1.74324294760446	-1.373993583944992	-1.092030175906463	-0.3762718001356626	-0.06437768240343347	-1.022321428571429	0.5147392290249433
189.483642578125	-2.978963163409984	-9.121725519881055	1.977948994059663	0.01421423350152478	0.01784875902976276	0.3598180272955602	-0.07081545064377683	-1.026785714285714	0.5147392290249433
193.389892578125	-2.796371426754638	-9.002339316035485	2.086122267300498	-0.6608852111309039	0.4040360124952234	0.7021663960840844	-0.07081545064377683	-1.026785714285714	0.5147392290249433
197.296142578125	-3.021113076173406	-8.919283818733218	2.111307617340654	-0.6959887093057022	-0.3738536268933035	-0.3698934681330084	-0.07081545064377683	-1.026785714285714	0.5147392290249433
201.202392578125	-2.887758204718678	-8.910516357346753	2.041126594316771	-0.6893136781339535	0.3683384944356979	-0.01746965850703605	-0.05150214592274678	-1.002232142857143	0.5306122448979592
205.108642578125	-2.773593429851653	-8.911658005095425	1.849138903532659	-0.4213824083219326	0.6381829737934641	-1.81337062898351	-0.05150214592274678	-1.002232142857143	0.5306122448979592
209.014892578125	-2.927336384879987	-9.122241787666354	1.917311957386484	-1.056744582456648	-0.0264472981304077	-0.7402948790994835	-0.05150214592274678	-1.002232142857143	0.5306122448979592
212.921142578125	-3.313501884721883	-8.572925587213387	1.75835173749447	-1.381532786274768	-0.367686813607225	-0.3836660178052504	-0.05150214592274678	-1.002232142857143	0.5306122448979592
216.827392578125	-2.948738615952619	-8.980613623941485	2.016718738119067	-0.6930832792988414	0.7305101755853173	-0.02116676734183	-0.06223175965665236	-0.9977678571428571	0.5192743764172336
220.733642578125	-2.948459826401094	-8.940212371432962	1.988839782966548	-1.395747019776292	-0.3855355726369878	-0.7434840451008107	-0.06223175965665236	-0.9977678571428571	0.5192743764172336
224.639892578125	-2.825854555622077	-9.032347515049842	1.973210664248525	-1.388207817446517	-1.109878934936226	-0.7360898274312228	-0.06223175965665236	-0.9977678571428571	0.5192743764172336
228.546142578125	-2.939528418452721	-8.839291584502343	2.116107151394507	-0.6855440769690655	0.00616681328607855	-0.0137725496722421	-0.04935622317596566	-1	0.5147392290249433
232.452392578125	-2.816430215423181	-8.911229637239709	2.051184807624204	-0.6959887093057022	-0.3738536268933035	-0.3698934681330084	-0.04935622317596566	-1	0.5147392290249433
236.358642578125	-3.070986308828593	-8.979391147012725	1.996590066532772	-0.9961180472856607	-0.317223943160976	0.7026743389175513	-0.04935622317596566	-1	0.5147392290249433
240.264892578125	-2.876651026139923	-8.900526419031532	1.950816899706593	-0.6997583104705902	-0.01168194574368421	-0.3735905769678023	-0.04935622317596566	-1	0.5147392290249433
244.171142578125	-2.898689624667123	-8.708386841127068	2.113860425896013	-0.6855440769690655	0.00616681328607855	-0.0137725496722421	-0.0536480686695279	-1.026785714285714	0.5306122448979592
248.077392578125	-3.083869255637715	-9.060070398352716	2.264476584179646	-1.045435778961984	-1.112962341579266	-0.7292035525951017	-0.0536480686695279	-1.026785714285714	0.5306122448979592
251.983642578125	-3.021818130908785	-9.090993939903035	2.181813090878546	-0.6675602423026528	-0.3381561088337781	0.3497425864581121	-0.0536480686695279	-1.026785714285714	0.5306122448979592
255.889892578125	-2.827767698414065	-9.042429393722932	2.164524943447332	-0.6713298434675408	0.02401557231584131	0.3460454776233181	-0.04506437768240344	-1.008928571428571	0.5238095238095238
259.796142578125	-2.837965780629151	-9.052428423001791	2.1639250016906	-1.017007311958934	-1.07726482351974	-0.009567498003981286	-0.04506437768240344	-1.008928571428571	0.5238095238095238
263.702392578125	-2.939580944020399	-8.920099140054747	2.121359708162372	-1.038760747790235	-0.3707702202502642	-0.3767797429691294	-0.04506437768240344	-1.008928571428571	0.5238095238095238
267.608642578125	-2.837903153990765	-8.820105816944942	2.157662337851991	-1.010332280787186	-0.3350727021907388	0.342856311621991	-0.04506437768240344	-1.008928571428571	0.5238095238095238
271.514892578125	-2.889800641215721	-9.041809064294915	2.245370244021093	-1.038760747790235	-0.3707702202502642	-0.3767797429691294	-0.06866952789699571	-1.017857142857143	0.526077097505669
275.421142578125	-3.082861168781113	-8.888363307504109	2.163667898519451	-1.042530348955123	-0.008598539100644939	-0.3804768518039234	-0.06866952789699571	-1.017857142857143	0.526077097505669
279.327392578125	-2.817428201209075	-8.93142167758387	2.150983386213655	-1.073864245965034	-1.148659859638791	-1.448839607186222	-0.06866952789699571	-1.017857142857143	0.526077097505669
283.233642578125	-2.788884471917427	-8.850899034068705	2.357834946844767	-1.020776913123822	-0.7150931423701209	-0.01326460683877524	-0.07510729613733906	-1.017857142857143	0.5374149659863946
287.139892578125	-2.881077315323921	-8.930785186442723	2.393445818106366	-0.6997583104705902	-0.01168194574368421	-0.3735905769678023	-0.07510729613733906	-1.017857142857143	0.5374149659863946
291.046142578125	-3.032078839762257	-8.828265070188239	2.187475812960423	-1.034991146625347	-0.7329419013998837	-0.3730826341343355	-0.07510729613733906	-1.017857142857143	0.5374149659863946
294.952392578125	-2.908004873302379	-9.011323991671018	2.024977126156305	-1.402422050948042	-1.127727693965989	-1.095907854726783	-0.07510729613733906	-1.017857142857143	0.5374149659863946
298.858642578125	-2.921110043667065	-8.88998081875525	2.315085999359534	-0.6637906411377649	-0.7003277899833973	0.353439695292906	-0.06223175965665236	-1.020089285714286	0.5283446712018141
302.764892578125	-2.694877476211879	-8.932647184833842	2.140808845677647	-0.3427720384845327	0.003083406643039275	-0.006886274836121049	-0.06223175965665236	-1.020089285714286	0.5283446712018141
306.671142578125	-2.899491649681294	-8.718479830977937	2.194062927313042	-0.6959887093057022	-0.3738536268933035	-0.3698934681330084	-0.06223175965665236	-1.020089285714286	0.5283446712018141
310.577392578125	-2.81845446999295	-9.072825556310173	2.253610264601188	0.3210186026532321	0.7034111966264366	-0.3603259701290271	-0.03648068669527897	-1.017857142857143	0.5192743764172336
314.483642578125	-2.938005176990039	-9.02112499873515	1.963783005126396	-0.3540808419791966	1.089598450091897	-0.01797760134050291	-0.03648068669527897	-1.017857142857143	0.5192743764172336
318.389892578125	-2.848420430040206	-8.971515795699601	2.188981779530752	-0.3787397078173582	0.6917292508827525	-0.7339165470968294	-0.03648068669527897	-1.017857142857143	0.5192743764172336
322.296142578125	-2.980833881705002	-8.69746438845568	2.165020823561347	-1.074728417123061	0.3178756239894489	-1.103810015229838	-0.03648068669527897	-1.017857142857143	0.5192743764172336
326.202392578125	-2.77626617316084	-9.002540368571424	2.116413234451372	-0.7281867774736398	-0.04737946380320975	-1.093226631558923	-0.05150214592274678	-1.011160714285714	0.5283446712018141
330.108642578125	-2.909881652239821	-9.082012294588715	2.212655019900435	-0.32478820381812	-0.3412395154768173	0.3566288612942332	-0.05150214592274678	-1.011160714285714	0.5283446712018141
334.014892578125	-2.887907700565148	-8.829706781580208	2.056076178963774	-0.3778755366593312	-0.7748062327454877	-1.078946139053214	-0.05150214592274678	-1.011160714285714	0.5283446712018141
337.921142578125	-2.744698183299386	-8.911946957560946	2.020838738101899	-0.3636613031578064	-0.7569574737157249	-0.7191281117576536	-0.05150214592274678	-1.013392857142857	0.5328798185941043
341.827392578125	-2.77508434788807	-8.9520471363191	1.99823070717439	0.3218827738112591	-0.7631242870018035	-0.7053555620854115	-0.05150214592274678	-1.013392857142857	0.5328798185941043
345.733642578125	-2.746320415255	-8.901829725140383	2.183061933663295	-0.01421423350152478	-0.01784875902976276	-0.3598180272955602	-0.05150214592274678	-1.013392857142857	0.5328798185941043
349.639892578125	-2.838971847271611	-8.890802200719204	2.264531665936646	-0.7348618086453887	-0.7895715851322112	-1.445650441184895	-0.05150214592274678	-1.013392857142857	0.5328798185941043
353.546142578125	-2.826925269117065	-8.931326706904791	2.080282013747329	-0.7177421451370031	0.3326409763761723	-0.7371057130981565	-0.05793991416309013	-1.006696428571429	0.5306122448979592
357.452392578125	-2.848511339676572	-8.819999735088084	2.198072743167443	-0.3891843401539951	0.3117088107033704	-1.090037465557596	-0.05793991416309013	-1.006696428571429	0.5306122448979592
361.358642578125	-2.910128118365082	-8.839585587503217	2.237301632426575	-0.03596766933282547	0.6886458442397132	-0.7270302722607084	-0.05793991416309013	-1.006696428571429	0.5306122448979592
365.264892578125	-2.94989417844155	-8.738177825892354	2.132274987012116	-0.721511746301891	0.6948126575257918	-0.7408028219329504	-0.0536480686695279	-1.020089285714286	0.5192743764172336
369.171142578125	-3.091986517287069	-9.171100336847331	2.055794585849767	-1.046299950120011	0.3535731420489744	-0.3841739606387173	-0.0536480686695279	-1.020089285714286	0.5192743764172336
373.077392578125	-2.940530444666898	-9.021099746058383	2.216309772812255	-1.070958815958173	-0.04429605716017047	-1.100112906395044	-0.0536480686695279	-1.020089285714286	0.5192743764172336
376.983642578125	-2.825676776777627	-8.991945252434247	1.955432779803441	-0.721511746301891	0.6948126575257918	-0.7408028219329504	-0.0536480686695279	-1.020089285714286	0.5192743764172336
380.889892578125	-2.755288187057921	-8.942144087826392	2.059430950690013	0.3068043691517073	0.6855624375966739	-0.7201439974245873	-0.07081545064377683	-1.042410714285714	0.5328798185941043
384.796142578125	-2.857800325527989	-8.83000785533058	2.106563165043802	-0.7177421451370031	0.3326409763761723	-0.7371057130981565	-0.07081545064377683	-1.042410714285714	0.5328798185941043
388.702392578125	-3.102352277275898	-9.069986578237344	2.071962421467376	-1.085173049459697	-0.06214481618993323	-1.459930933690604	-0.07081545064377683	-1.042410714285714	0.5328798185941043
392.608642578125	-2.93917488097796	-9.091820372402342	2.080753403918486	-0.3569862719860575	-0.01476535238672349	-0.3667043021316813	-0.04935622317596566	-1.017857142857143	0.5170068027210885
396.514892578125	-2.857662950966368	-8.890615289682255	2.092825708881692	-0.7319563786385278	0.3147922173464096	-1.096923740393717	-0.04935622317596566	-1.017857142857143	0.5170068027210885
400.421142578125	-3.225664623004436	-8.977844363870966	2.15829903513744	-0.03596766933282547	0.6886458442397132	-0.7270302722607084	-0.04935622317596566	-1.017857142857143	0.5170068027210885
404.327392578125	-2.978241946961473	-8.808601418914225	1.905827349208581	-0.7319563786385278	0.3147922173464096	-1.096923740393717	-0.04935622317596566	-1.017857142857143	0.5170068027210885
408.233642578125	-2.838066791336225	-9.052427412894721	2.174026072398035	-1.081403448294809	-0.4243164973395526	-1.45623382485581	-0.0536480686695279	-1.013392857142857	0.5079365079365079
412.139892578125	-2.796234052193016	-9.062946750387162	2.072384811138387	-0.7319563786385278	0.3147922173464096	-1.096923740393717	-0.0536480686695279	-1.013392857142857	0.5079365079365079
416.046142578125	-2.877376283016717	-8.870216136159733	2.023342587385972	-1.070958815958173	-0.04429605716017047	-1.100112906395044	-0.0536480686695279	-1.013392857142857	0.5079365079365079
419.952392578125	-2.98905215406143	-8.808493316843226	1.966439895938902	-0.7386314098102766	-0.4273999039825919	-1.449347550019689	-0.06223175965665236	-1.03125	0.5215419501133787
423.858642578125	-2.889540033591469	-8.971104599664088	2.219309481595913	-0.3569862719860575	-0.01476535238672349	-0.3667043021316813	-0.06223175965665236	-1.03125	0.5215419501133787
427.764892578125	-2.789603668151797	-8.830689821904341	2.4297545702817	-0.3891843401539951	0.3117088107033704	-1.090037465557596	-0.06223175965665236	-1.03125	0.5215419501133787
431.671142578125	-3.00998973588152	-8.767879900620985	2.019381751417287	0.3143435714814832	-0.03878092470256481	-0.7127497797549994	-0.06223175965665236	-1.03125	0.5215419501133787
435.577392578125	-2.950946710009264	-8.667460229869606	2.237528143783582	-0.3749701066524703	0.3295575697331331	-0.7302194382620355	-0.04291845493562232	-1.03125	0.5328798185941043
439.483642578125	-2.969672157344426	-8.778384086507366	2.069256550769154	-0.3712005054875823	-0.03261411141648625	-0.7265223294272415	-0.04291845493562232	-1.03125	0.5328798185941043
443.389892578125	-3.010761457683568	-8.828478244009023	2.096553931622085	-0.7139725439721151	-0.02953070477344698	-0.7334086042633625	-0.04291845493562232	-1.03125	0.5328798185941043
447.296142578125	-2.848998211284671	-8.850297896675034	2.246759903977277	-0.7177421451370031	0.3326409763761723	-0.7371057130981565	-0.04935622317596566	-1.002232142857143	0.5238095238095238
451.202392578125	-3.011836211606839	-8.889073557075852	2.204029323949187	-1.067189214793285	-0.4064677383097898	-1.09641579756025	-0.04935622317596566	-1.002232142857143	0.5238095238095238
455.108642578125	-2.999197710708837	-8.737684790569681	1.960587397414304	-0.3532166708211696	-0.3769370335363428	-0.3630071932968873	-0.04935622317596566	-1.002232142857143	0.5238095238095238
459.014892578125	-2.868923665819876	-8.981411773442813	2.198489030967169	-1.056744582456648	-0.0264472981304077	-0.7402948790994835	-0.04935622317596566	-1.002232142857143	0.5238095238095238
462.921142578125	-2.725633339988454	-8.861632555489008	2.155170733539347	-1.056744582456648	-0.0264472981304077	-0.7402948790994835	-0.07939914163090128	-1.029017857142857	0.5102040816326531
466.827392578125	-2.81671506561713	-8.941529819040801	2.079669827019169	-0.7035279116354782	0.3504897354059351	-0.3772876858025963	-0.07939914163090128	-1.029017857142857	0.5102040816326531
470.733642578125	-2.959268013286909	-9.111821461281274	2.04925030828272	-1.060514183621536	0.3357243830192116	-0.7439919879342776	-0.07939914163090128	-1.029017857142857	0.5102040816326531
474.639892578125	-2.91901104117406	-9.021314940093312	2.105185750059048	-0.6893136781339535	0.3683384944356979	-0.01746965850703605	-0.0536480686695279	-1.015625	0.5396825396825397
478.546142578125	-2.776490416930545	-8.628800752396353	2.138837611421876	-0.7177421451370031	0.3326409763761723	-0.7371057130981565	-0.0536480686695279	-1.015625	0.5396825396825397
482.452392578125	-2.969995391607064	-9.081411157195044	2.101579977032944	-1.056744582456648	-0.0264472981304077	-0.7402948790994835	-0.0536480686695279	-1.015625	0.5396825396825397
486.358642578125	-2.886236983470138	-8.92063257966025	1.88900446946281	-0.7206475751438639	-0.7717228261024484	-1.085832413889335	-0.0536480686695279	-1.015625	0.5396825396825397
490.264892578125	-2.826414154939269	-8.94143282814758	2.029170595967711	-0.7035279116354782	0.3504897354059351	-0.3772876858025963	-0.03218884120171674	-1.013392857142857	0.5056689342403629
494.171142578125	-2.825228289238216	-8.729323474683376	1.910584025862432	-1.042530348955123	-0.008598539100644939	-0.3804768518039234	-0.03218884120171674	-1.013392857142857	0.5056689342403629
498.077392578125	-2.88941882074298	-8.668075508762268	2.207188196746992	-1.403286222106068	0.3388077896622509	-0.7508782627703986	-0.03218884120171674	-1.013392857142857	0.5056689342403629
501.983642578125	-3.022125203458291	-9.252607030793701	2.212520345829146	-0.6893136781339535	0.3683384944356979	-0.01746965850703605	-0.05793991416309013	-1.008928571428571	0.5283446712018141
505.889892578125	-2.81714941165755	-8.891020425075345	2.123104431061136	-1.738519058260825	-0.3824521659939485	-0.7503703199369317	-0.05793991416309013	-1.008928571428571	0.5283446712018141
509.796142578125	-2.928253562100223	-8.94041443407597	2.009029679409988	-1.407055823270956	0.7009794708118703	-0.7545753716051926	-0.05793991416309013	-1.008928571428571	0.5283446712018141
513.702392578125	-2.856254861709752	-8.880528360473813	1.952016783220057	-1.39951662094118	-0.02336389148736843	-0.7471811539356047	-0.05793991416309013	-1.008928571428571	0.5283446712018141
517.608642578125	-2.889398618601565	-8.870095912803885	2.205167982605505	-0.7035279116354782	0.3504897354059351	-0.3772876858025963	-0.06008583690987124	-1.011160714285714	0.5555555555555556
521.514892578125	-2.927063655970886	-9.071739464450394	1.890039066476411	-1.032085716618486	0.3714219010787372	-0.0243559333431571	-0.06008583690987124	-1.011160714285714	0.5555555555555556
525.421142578125	-2.987601640307842	-8.869113882586822	1.821388520580145	-1.028316115453598	0.009250219929117825	-0.02065882450836315	-0.06008583690987124	-1.011160714285714	0.5555555555555556
529.327392578125	-2.916980725961865	-8.869820091730281	1.902154228839618	-1.742288659425713	-0.02028048484432915	-0.7540674287717257	-0.05150214592274678	-1.020089285714286	0.5351473922902494
533.233642578125	-3.019793876339016	-8.92939802083257	1.979387633901561	-1.734749457095937	-0.7446238471435678	-0.7466732111021378	-0.05150214592274678	-1.020089285714286	0.5351473922902494
537.139892578125	-2.968999426035312	-8.889501924931567	2.001983419857642	-0.6750994446324288	0.3861872534654606	0.3423483687885241	-0.05150214592274678	-1.020089285714286	0.5351473922902494
541.046142578125	-2.949144678995058	-8.80889239159389	2.057325042362953	-1.710090591257776	-0.346754647934423	-0.03073426534581129	-0.05150214592274678	-1.020089285714286	0.5351473922902494
544.952392578125	-3.133635416943403	-9.13027980744673	2.139051898421884	-1.010332280787186	-0.3350727021907388	0.342856311621991	-0.05579399141630902	-1.013392857142857	0.5215419501133787
548.858642578125	-2.947871944085921	-8.909915219953081	1.93005155144928	-0.32478820381812	-0.3412395154768173	0.3566288612942332	-0.05579399141630902	-1.013392857142857	0.5215419501133787
552.764892578125	-2.845588089813841	-8.809927957485701	1.905747756894293	-1.710090591257776	-0.346754647934423	-0.03073426534581129	-0.05579399141630902	-1.013392857142857	0.5215419501133787
556.671142578125	-3.154512392339248	-8.685626593248326	2.185933111475808	-1.356873920436606	0.03018238560191986	0.332272927951076	-0.06008583690987124	-1.006696428571429	0.5374149659863946
560.577392578125	-3.144829464730241	-8.827137563938557	2.238048513840455	-2.395634668226841	-0.3405878346483444	-0.04450681501805339	-0.06008583690987124	-1.006696428571429	0.5374149659863946
564.483642578125	-3.101851264168809	-8.726557244934071	2.021861110758502	-0.9856734149490239	0.06279649701840612	1.058795257378317	-0.06008583690987124	-1.006696428571429	0.5374149659863946
568.389892578125	-2.866703450478381	-8.809716803879056	1.976467496817762	-1.324675852268669	-0.296291777488174	1.05560609137699	-0.06008583690987124	-1.006696428571429	0.5374149659863946
572.296142578125	-2.97812881496955	-8.828804570436166	1.894514150016255	-2.028203763904147	0.05419795791776118	0.6783184055743942	-0.04291845493562232	-1.008928571428571	0.5238095238095238
576.202392578125	-2.836105163404842	-8.618103594830599	1.97786327925966	-1.681662124254726	-0.3110571298748974	0.6889017892453092	-0.04291845493562232	-1.008928571428571	0.5238095238095238
580.108642578125	-2.989888522716006	-8.9296970743688	2.050076761396459	-1.345565116941942	-1.056332657846938	0.3433642544554579	-0.04291845493562232	-1.008928571428571	0.5238095238095238
584.014892578125	-2.971187317950541	-8.778368934901303	2.22077261138067	-1.667447890753201	-0.2932083708451347	1.048719816540869	-0.05793991416309013	-1.017857142857143	0.5306122448979592
587.921142578125	-2.980450041018119	-9.000498529892852	2.126636754873096	-1.671217491918089	0.06896331030448466	1.045022707706075	-0.05793991416309013	-1.017857142857143	0.5306122448979592
591.827392578125	-2.979013668763522	-8.869199762302266	1.98299952941338	-2.377650833560428	-0.684910756768201	0.3190083211123008	-0.05793991416309013	-1.017857142857143	0.5306122448979592
595.733642578125	-2.931962675263992	-8.819165221732209	2.379940995786977	-1.671217491918089	0.06896331030448466	1.045022707706075	-0.05793991416309013	-1.017857142857143	0.5306122448979592
599.639892578125	-2.814123130873603	-9.052666849499346	1.820476352666403	-1.31800082109692	0.4459003438408275	1.408029901002963	-0.05150214592274678	-1.017857142857143	0.526077097505669
603.546142578125	-2.98909255834426	-8.909503013810497	1.970480324221876	-1.685431725419614	0.05111455127472191	0.6852046804105152	-0.05150214592274678	-1.017857142857143	0.526077097505669
607.452392578125	-3.143205212560486	-9.008971988278438	2.075623296864911	-2.024434162739259	-0.3079737232318582	0.6820155144091882	-0.05150214592274678	-1.017857142857143	0.526077097505669
611.358642578125	-2.906675572397281	-8.869923143265927	1.892047035646469	-1.324675852268669	-0.296291777488174	1.05560609137699	-0.04291845493562232	-1.017857142857143	0.5192743764172336
615.264892578125	-2.724473737071242	-8.942452232326259	2.039210441818001	-1.999775296901097	0.0898954759772867	1.397954460165515	-0.04291845493562232	-1.017857142857143	0.5192743764172336
619.171142578125	-2.909637206328701	-9.152721809754896	2.188210428788444	-1.663678289588313	-0.655380051994754	1.052416925375663	-0.04291845493562232	-1.017857142857143	0.5192743764172336
623.077392578125	-2.960148826652597	-8.990600531935495	2.137331644851547	-2.363436600058904	-0.6670619977384383	0.678826348407861	-0.04291845493562232	-1.017857142857143	0.5192743764172336
626.983642578125	-2.774514647500171	-8.89144677271692	1.94126066838446	-1.314231219932032	0.08372866269120816	1.411727009837757	-0.04291845493562232	-1.017857142857143	0.5192743764172336
630.889892578125	-2.808153356856649	-8.72949422400719	2.243907114236336	-1.300016986430507	0.1015774217209709	1.771545037133317	-0.04291845493562232	-1.017857142857143	0.5192743764172336
634.796142578125	-2.875590413715643	-8.648011772630522	1.844755657278533	-2.349222366557379	-0.6492132387086755	1.038644375703421	-0.04291845493562232	-1.017857142857143	0.5192743764172336
638.702392578125	-2.699954315578295	-8.892192376036137	1.628084619053994	-1.653233657251677	-0.2753596118153719	1.40853784383643	-0.05579399141630902	-1.024553571428571	0.5238095238095238
642.608642578125	-2.89797850928932	-9.05182829571519	2.042748888115675	-1.649464056086789	-0.6375312929649912	1.412234952671224	-0.05579399141630902	-1.024553571428571	0.5238095238095238
646.514892578125	-3.234983912067975	-8.937347130576292	2.069819778226029	-2.010219929237735	-0.2901249642020954	1.041833541704748	-0.05579399141630902	-1.024553571428571	0.5238095238095238
650.421142578125	-2.883972323417531	-8.991362296967846	1.662538464202132	-2.349222366557379	-0.6492132387086755	1.038644375703421	-0.05579399141630902	-1.024553571428571	0.5238095238095238
654.327392578125	-2.885691525651937	-8.819627933228329	1.834458687642664	-2.349222366557379	-0.6492132387086755	1.038644375703421	-0.05579399141630902	-1.024553571428571	0.5238095238095238
658.233642578125	-2.949019425718286	-8.849297684530697	2.044799714685734	-1.64278902491504	0.1046608283640102	1.764658762297196	-0.05579399141630902	-1.024553571428571	0.5238095238095238
662.139892578125	-2.706491728540147	-8.770914880694399	2.281825915239145	-1.310461618767144	-0.2784430184584112	1.415424118672551	-0.05579399141630902	-1.024553571428571	0.5238095238095238
666.046142578125	-2.877107594535899	-8.981329934155653	1.996473739304197	-1.657003258416565	0.08681206933424743	1.404840735001636	-0.05793991416309013	-0.9888392857142857	0.5215419501133787
669.952392578125	-2.961902372527408	-8.929976935870686	2.312686232332608	-2.010219929237735	-0.2901249642020954	1.041833541704748	-0.05793991416309013	-0.9888392857142857	0.5215419501133787
673.858642578125	-2.807634161822287	-8.921418607876728	2.191987610800124	-1.999775296901097	0.0898954759772867	1.397954460165515	-0.05793991416309013	-0.9888392857142857	0.5215419501133787
677.764892578125	-2.897588607960013	-8.859913002809291	2.003758755184978	-2.010219929237735	-0.2901249642020954	1.041833541704748	-0.05793991416309013	-0.9888392857142857	0.5215419501133787
681.671142578125	-2.97009842252828	-8.909692955168659	2.111883069154528	-1.646558626079928	0.4668325095136295	1.760961653462402	-0.05793991416309013	-0.9888392857142857	0.5215419501133787
685.577392578125	-2.806836177236399	-9.072941739237738	2.112189152211393	-1.307556188760283	0.8259207840202096	1.764150819463729	-0.05793991416309013	-0.9888392857142857	0.5215419501133787
689.483642578125	-2.76728425985893	-9.154145339219594	2.238630067525613	-1.660772859581453	0.4489837504838668	1.401143626166842	-0.05793991416309013	-0.9888392857142857	0.5215419501133787
693.389892578125	-2.905418999201276	-9.11235995142213	1.766389716045986	-1.307556188760283	0.8259207840202096	1.764150819463729	-0.06652360515021459	-0.9955357142857142	0.5238095238095238
697.296142578125	-2.958597302191935	-9.051222107786163	1.982179198785356	-2.007314499230874	0.8142388382765254	1.390560242495927	-0.06652360515021459	-0.9955357142857142	0.5238095238095238
701.202392578125	-3.050862873307522	-9.009895411670968	2.025062840956308	-1.999775296901097	0.0898954759772867	1.397954460165515	-0.06652360515021459	-0.9955357142857142	0.5238095238095238
705.108642578125	-2.824020201181607	-8.890951717180105	1.789775220201517	-1.667447890753201	-0.2932083708451347	1.048719816540869	-0.06652360515021459	-0.9955357142857142	0.5238095238095238
709.014892578125	-2.878014670685427	-9.153038035111329	2.087181354256957	-1.646558626079928	0.4668325095136295	1.760961653462402	-0.06652360515021459	-0.9955357142857142	0.5238095238095238
712.921142578125	-3.051303279990366	-8.949284946998077	2.069103509240722	-1.657003258416565	0.08681206933424743	1.404840735001636	-0.06652360515021459	-0.9955357142857142	0.5238095238095238
716.827392578125	-2.825581826712977	-8.981845191833882	1.945937773338452	-2.352991967722267	-0.2870415575590561	1.034947266868627	-0.06652360515021459	-0.9955357142857142	0.5238095238095238
720.733642578125	-3.000076503860384	-8.788181053143216	2.048466712568983	-2.338777734220742	-0.2691927985292933	1.394765294164187	-0.04506437768240344	-1.024553571428571	0.5170068027210885
724.639892578125	-2.96944589336058	-8.818790389551243	2.046630152384502	-1.31800082109692	0.4459003438408275	1.408029901002963	-0.04506437768240344	-1.024553571428571	0.5170068027210885
728.546142578125	-2.93016670489221	-8.95049631274906	2.200343958608794	-1.678756694247865	0.7933066726037233	1.037628490036488	-0.04506437768240344	-1.024553571428571	0.5170068027210885
732.452392578125	-2.459964007361863	-8.793582178108203	2.118849715778155	-1.350198889264858	0.7723745069309212	0.6846967375770483	-0.04506437768240344	-1.024553571428571	0.5170068027210885
736.358642578125	-2.880543978790568	-8.809578398595935	2.340112164771113	-2.007314499230874	0.8142388382765254	1.390560242495927	-0.04506437768240344	-1.024553571428571	0.5170068027210885
740.264892578125	-2.787007692979986	-8.780210731151008	2.170157053100637	-1.329309624591584	1.532415387289686	1.396938574498581	-0.04506437768240344	-1.024553571428571	0.5170068027210885
744.171142578125	-2.808173558998064	-9.032524325016082	2.245927328377824	-1.674987093082977	0.431134991454104	1.041325598871282	-0.04506437768240344	-1.024553571428571	0.5170068027210885
748.077392578125	-2.633111201676899	-8.993870908185253	2.086630371771512	-0.9827679849421629	1.167160299497027	1.407521958169496	-0.04506437768240344	-1.015625	0.5351473922902494
751.983642578125	-2.815276673148392	-8.981948243369528	1.935830580145304	-0.9865375861070509	1.529331980646646	1.403824849334702	-0.04506437768240344	-1.015625	0.5351473922902494
755.889892578125	-3.011058429162366	-8.838576284395245	2.126251079501942	-1.343523858093108	1.514566628259923	1.037120547203021	-0.04506437768240344	-1.015625	0.5351473922902494
759.796142578125	-3.019727209272346	-9.040509798614348	1.972720927234655	-0.9903071872719389	1.891503661796266	1.400127740499908	-0.04506437768240344	-1.015625	0.5351473922902494
763.702392578125	-3.083051068910413	-8.908563428704838	2.182657911449428	-1.371952325096158	1.478869110200397	0.3174844926119002	-0.04506437768240344	-1.015625	0.5351473922902494
767.608642578125	-2.940273877470929	-9.112011402639434	2.190653053215372	-1.686295896577641	1.517650034902962	1.0302342723669	-0.04506437768240344	-1.015625	0.5351473922902494
771.514892578125	-2.803646259106992	-9.002266567711962	1.793197339270616	-0.661749382288931	1.870571496123464	1.047195988040469	-0.04506437768240344	-1.015625	0.5351473922902494
775.421142578125	-2.74536889439436	-8.972546311056059	2.087909847599263	-1.018735654274989	1.85580614373674	0.6804916859087875	-0.05793991416309013	-1.013392857142857	0.5102040816326531
779.327392578125	-3.010090746588594	-9.272929395564418	2.029482822124721	-1.057608753614675	1.440088185497832	-0.3952652871430992	-0.05793991416309013	-1.013392857142857	0.5102040816326531
783.233642578125	-3.051004288297427	-9.110904098531169	2.039204339946716	-1.36818272393127	1.116697429050778	0.3211816014466942	-0.05793991416309013	-1.013392857142857	0.5102040816326531
787.139892578125	-3.030957620913732	-9.181811635912076	2.075353928107902	-0.7043920827935053	1.817025219034175	-0.03225809384621187	-0.05793991416309013	-1.013392857142857	0.5102040816326531
791.046142578125	-2.869202455371401	-9.021813025951337	2.226367986119688	-0.3691592466387484	2.538285174690375	-0.03276603667967872	-0.05793991416309013	-1.013392857142857	0.5102040816326531
794.952392578125	-2.938645584872891	-9.132229705767433	2.02782379341153	-1.047164121278038	1.820108625677215	-0.03914436868233291	-0.05793991416309013	-1.013392857142857	0.5102040816326531
798.858642578125	-3.18473289936833	-9.17017287302652	2.146759324588106	-1.386166558597683	1.461020351170635	-0.04233353468366001	-0.05793991416309013	-1.013392857142857	0.5102040816326531
802.764892578125	-2.949865895443569	-9.122016492560718	2.129446687214034	-1.040489090106289	2.562300747006216	0.3132794409436394	-0.0536480686695279	-1.017857142857143	0.5170068027210885
806.671142578125	-3.011304895287628	-9.101200082360256	2.150897692028082	-0.6939474504568685	2.197045659213557	0.3238628246145544	-0.0536480686695279	-1.017857142857143	0.5170068027210885
810.577392578125	-2.928649524071954	-9.122228656274435	2.04862587658313	-0.6835028181202316	2.577066099392939	0.6799837430753207	-0.0536480686695279	-1.017857142857143	0.5170068027210885
814.483642578125	-2.896681531810485	-9.19325540690412	1.913051140232218	-0.7043920827935053	1.817025219034175	-0.03225809384621187	-0.0536480686695279	-1.017857142857143	0.5170068027210885
818.389892578125	-2.877582344859149	-9.031830237157472	2.043948771629138	-0.005497943480941993	3.295242648406099	0.6863620750779749	-0.0536480686695279	-1.017857142857143	0.5170068027210885
822.296142578125	-2.992120859342349	-9.081189902517689	2.273310424030758	-0.3520395831303627	3.660497736198758	0.6757786914070598	-0.0536480686695279	-1.017857142857143	0.5170068027210885
826.202392578125	-2.899683570024735	-9.072013265309856	2.213254961657167	-0.6910420204500075	3.301409461692178	0.6725895254057328	-0.0536480686695279	-1.017857142857143	0.5170068027210885
830.108642578125	-3.196187554779421	-8.937735094149177	2.271816702431858	-0.3236111161273131	3.696195254258284	1.39541474599818	-0.07725321888412018	-1.026785714285714	0.5328798185941043
834.014892578125	-3.072523691790265	-9.110688904496239	2.150328362699923	-0.6559385222752091	4.079299101080705	1.744649389622825	-0.07725321888412018	-1.026785714285714	0.5328798185941043
837.921142578125	-2.824581820712941	-9.133370343409034	1.845937173334852	-0.3064914526189274	4.818407815766667	2.103959474084919	-0.07725321888412018	-1.026785714285714	0.5328798185941043
841.827392578125	-3.072673187636735	-9.029879328729695	2.165277947346926	0.05049481936713011	4.83317316815339	2.4706637762166	-0.07296137339055794	-1.024553571428571	0.5306122448979592
845.733642578125	-3.132570764090839	-9.221199544884346	2.032586613165526	0.06093945170376695	5.213193608332773	2.826784694677366	-0.07296137339055794	-1.024553571428571	0.5306122448979592
849.639892578125	-3.122176721104029	-9.201101465112194	2.013590477749835	0.09313751987170446	4.886719445242679	3.550117858103281	-0.07296137339055794	-1.024553571428571	0.5306122448979592
853.546142578125	-2.970181251308081	-8.93999515718389	2.120165947134624	-0.2705237832861019	4.129761971526954	2.830989746345627	-0.07296137339055794	-1.024553571428571	0.5306122448979592
857.452392578125	-3.093600668386117	-8.837750862003007	2.217209695754567	-0.2847380167876267	4.111913212497192	2.471171719050067	-0.08798283261802575	-1.011160714285714	0.5147392290249433
861.358642578125	-2.992050151847397	-9.030685559087589	2.266239674535553	0.1006767222014804	4.162376082943441	3.557512075772869	-0.08798283261802575	-1.011160714285714	0.5147392290249433
865.264892578125	-2.745607279663056	-8.911937866597311	2.111748374468808	0.07978745752820671	3.402335202584676	2.845270238851336	-0.08798283261802575	-1.011160714285714	0.5147392290249433
869.171142578125	-2.992603690522164	-8.949871942892759	2.321593542012294	0.07978745752820671	3.402335202584676	2.845270238851336	-0.07725321888412018	-1.020089285714286	0.5283446712018141
873.077392578125	-3.013327129643256	-8.929462688299527	2.353121127590918	-0.2980880791311245	2.627528969839188	1.766324099798122	-0.07725321888412018	-1.020089285714286	0.5283446712018141
876.983642578125	-2.563720597743087	-8.964261783921561	2.290427121247535	0.7653315344972722	3.396168389298598	2.859042788523579	-0.07725321888412018	-1.020089285714286	0.5283446712018141
880.889892578125	-3.071576211357907	-8.83797110657329	2.055580319464189	0.7728707368270481	2.671825026999359	2.866437006193166	-0.07725321888412018	-1.020089285714286	0.5283446712018141
884.796142578125	-2.705073538212823	-8.609312900981509	2.140006882506766	0.7586565033255233	2.653976267969596	2.506618978897606	-0.06866952789699571	-1.017857142857143	0.5283446712018141
888.702392578125	-2.580518760787271	-8.751972590169908	1.929427099135261	0.06643739518470894	1.917950959926673	2.140422619599391	-0.06866952789699571	-1.017857142857143	0.5283446712018141
892.608642578125	-2.665210507857564	-8.872337793911324	2.235336500042089	-0.2725650421349358	1.558862685420093	2.137233453598065	-0.06866952789699571	-1.017857142857143	0.5283446712018141
896.514892578125	-2.625630307482113	-8.832329555511039	2.358949115558227	0.05222316168318416	1.900102200896911	1.780604592303831	-0.07081545064377683	-1.015625	0.5328798185941043
900.421142578125	-2.88565516179739	-8.880234357472936	1.830822302187988	0.03423932701677142	2.244425123016767	1.417089456173477	-0.07081545064377683	-1.015625	0.5328798185941043
904.327392578125	-2.602284630405371	-8.509330689049481	2.065197734414607	0.7122442016560611	2.962601672029928	1.423467788176131	-0.07081545064377683	-1.015625	0.5328798185941043
908.233642578125	-2.797694667017312	-8.648790730097506	2.218446293567887	-0.3227469449692861	2.229659770630044	1.050385154041796	-0.07081545064377683	-1.015625	0.5328798185941043
912.139892578125	-2.766344860283139	-8.699609278669898	2.144690109946473	-0.7014866527866443	2.921389021512796	0.3164686069449665	-0.07081545064377683	-1.024553571428571	0.5396825396825397
916.046142578125	-2.848850735652342	-8.759390280522267	2.232012340744422	0.6725069311583476	4.01341919741926	0.6927404070806291	-0.07081545064377683	-1.024553571428571	0.5396825396825397
919.952392578125	-2.745570915808509	-8.467493785791412	2.108111989014132	-0.7194704874530571	3.265711943632652	-0.04704652918538767	-0.07081545064377683	-1.024553571428571	0.5396825396825397
923.858642578125	-2.82795153790094	-8.567680080580589	2.182908892134862	-0.02725137931224269	4.001737251675576	0.3191498301128267	-0.05793991416309013	-1.011160714285714	0.5328798185941043
927.764892578125	-3.05306086629346	-8.545226967094644	2.244862139550079	-0.4088965171364619	3.589102700079708	-0.7634934177751811	-0.05793991416309013	-1.011160714285714	0.5328798185941043
931.671142578125	-2.992371365895893	-8.495328811593568	2.298361079385195	-0.398451884799825	3.969123140259089	-0.4073724993144148	-0.05793991416309013	-1.011160714285714	0.5328798185941043
935.577392578125	-3.043078946991513	-8.848357089317965	2.267078372620721	-0.7696523902874073	3.936509028842603	-1.133894828741656	-0.05793991416309013	-1.011160714285714	0.5328798185941043
939.483642578125	-3.011767524326028	-8.666852021726438	2.197160595868132	-0.4231107506379866	3.571253941049945	-1.123311445070741	-0.05150214592274678	-1.017857142857143	0.5419501133786848
943.389892578125	-2.878596492358175	-8.688385752248138	2.145363521531779	-1.482760763101495	2.440442840440916	-2.212333024961403	-0.05150214592274678	-1.017857142857143	0.5419501133786848
947.296142578125	-3.0317838884976	-8.646449837882702	2.157980686494715	-0.7830024526309051	2.4521247861846	-1.838742447993601	-0.05150214592274678	-1.017857142857143	0.5419501133786848
951.202392578125	-3.073852992695363	-8.747039247850827	2.283258453209759	-1.489435794273244	1.698250719111914	-2.564756834587376	-0.06223175965665236	-1.015625	0.5215419501133787
955.108642578125	-3.073822689483241	-8.797544601387997	2.280228131997529	-1.453468124940419	1.009604874872201	-1.837726562326667	-0.06223175965665236	-1.015625	0.5215419501133787
959.014892578125	-3.041004187068206	-8.93928692782629	2.059602380290019	-1.128679921122299	1.350844390349019	-2.1943554236209	-0.06223175965665236	-1.015625	0.5215419501133787
962.921142578125	-3.070394386085137	-8.787477874320968	1.937397792187207	-1.474357389613693	0.2495639945134371	-2.5499683992482	-0.06223175965665236	-1.015625	0.5215419501133787
966.827392578125	-2.908554371548864	-8.76889425426431	2.079926950804748	-1.45637355494728	-0.09475892760641949	-2.186453263117845	-0.07939914163090128	-1.002232142857143	0.5238095238095238
970.733642578125	-3.049919433303448	-8.898793734959897	1.930718840548871	-1.809590225768449	-0.4716959611427623	-2.549460456414733	-0.07939914163090128	-1.002232142857143	0.5238095238095238
974.639892578125	-2.99009862498672	-8.747876791527913	2.071086988467922	-2.112624993755269	-1.519430079889056	-1.825619350155352	-0.07939914163090128	-1.002232142857143	0.5238095238095238
978.546142578125	-3.068652961495176	-8.827899328970908	1.763255333191039	-1.802051023438674	-1.196039323442001	-2.542066238745145	-0.06866952789699571	-1.015625	0.5328798185941043
982.452392578125	-3.069339834303281	-9.02991266226303	1.831942614001592	-2.147728491930067	-2.297319719277582	-2.897679214372444	-0.06866952789699571	-1.015625	0.5328798185941043
986.358642578125	-3.0705337808609	-9.060203753100483	1.951337269763467	-2.101316190260605	-2.605945123337913	-1.81452802365097	-0.06866952789699571	-1.015625	0.5328798185941043
990.264892578125	-3.090931965505213	-8.908484619738887	1.950339407664152	-2.13728385959343	-1.917299279098201	-2.541558295911678	-0.06866952789699571	-1.015625	0.5328798185941043
994.171142578125	-3.222957536054843	-8.77585123272026	1.887590340178199	-1.766083354105848	-1.884685167681714	-1.815035966484437	-0.05579399141630902	-1.026785714285714	0.5170068027210885
998.077392578125	-3.142251671485704	-8.746355261062922	1.98026918938673	-1.766083354105848	-1.884685167681714	-1.815035966484437	-0.05579399141630902	-1.026785714285714	0.5170068027210885
1001.983642578125	-3.194696636743003	-8.897345962925501	2.122724898790127	-2.801074500731195	-2.617627069081597	-2.188118600618772	-0.05579399141630902	-1.026785714285714	0.5170068027210885
1005.889892578125	-2.77443181872037	-8.861144570701688	1.932977790404364	-2.102180361418632	-1.139409639709673	-1.469498431694585	-0.06437768240343347	-1.013392857142857	0.5124716553287982
1009.796142578125	-2.998262351561328	-8.949815356282368	1.867051482663463	-2.459166633404689	-1.154174992096397	-1.836202733826267	-0.06437768240343347	-1.013392857142857	0.5124716553287982
1013.702392578125	-3.030373779026842	-8.808080100593573	2.016969739418932	-2.098410760253743	-1.501581320859293	-1.465801322859791	-0.06437768240343347	-1.013392857142857	0.5124716553287982
1017.608642578125	-2.937698104440533	-8.859511907844485	1.933075750175796	-2.787724438387697	-1.133242826423595	-1.483270981366827	-0.06437768240343347	-1.013392857142857	0.5124716553287982
1021.514892578125	-3.028947507842953	-8.828296383507432	1.874342621029959	-2.081291096745358	-0.3793687593509092	-0.7572565947730527	-0.06866952789699571	-1.006696428571429	0.5147392290249433
1025.421142578125	-3.089307713335457	-9.090319044078768	1.787914190688608	-2.070846464408721	0.0006516808284728857	-0.4011356763122865	-0.06866952789699571	-1.006696428571429	0.5147392290249433
1029.327392578125	-3.027822248566145	-9.020226828019391	1.76181669334914	-1.389071988604544	0.3566565486920137	-0.3910602354748384	-0.06866952789699571	-1.006696428571429	0.5147392290249433
1033.233642578125	-3.079937918918382	-8.878291529901729	1.871342912246301	-2.413618502893254	0.003735087471512161	-0.4080219511484076	-0.06008583690987124	-1.020089285714286	0.5238095238095238
1037.139892578125	-3.148395183918825	-8.948314027958792	1.574212269433584	-1.710954762415803	1.119780835693817	0.3142953266105731	-0.06008583690987124	-1.020089285714286	0.5238095238095238
1041.046142578125	-3.04848104083471	-8.939212159288624	1.786879593675006	-2.739270877869401	1.129031055622935	0.29363650210221	-0.06008583690987124	-1.020089285714286	0.5238095238095238
1044.952392578125	-3.243430468622391	-8.836252564000645	1.894067270402386	-2.731731675539625	0.4046876933236963	0.3010307197717979	-0.06008583690987124	-1.020089285714286	0.5238095238095238
1048.858642578125	-3.080992470700237	-9.140907247010173	1.976798090431916	-2.374745403553567	0.4194530457104198	0.6677350219034791	-0.07939914163090128	-1.008928571428571	0.5238095238095238
1052.764892578125	-3.211991772465992	-8.866869981265239	1.81142214455843	-2.71461201203124	1.52690025483208	1.009575447858536	-0.07939914163090128	-1.008928571428571	0.5238095238095238
1056.671142578125	-3.007054364733939	-8.778010264433469	1.725844636659245	-2.721287043202989	0.7847081335030783	0.6571516382325642	-0.07939914163090128	-1.008928571428571	0.5238095238095238
1060.577392578125	-3.243448650549664	-8.805949351878343	1.895885463129724	-2.357625740045182	1.541665607218803	1.376279749990218	-0.05150214592274678	-1.026785714285714	0.526077097505669
1064.483642578125	-3.098915893021229	-8.736687608746557	1.728323996000459	-3.046075247021109	0.4434686180262611	1.013780499526797	-0.05150214592274678	-1.026785714285714	0.526077097505669
1068.389892578125	-3.029084882404574	-8.767688949155755	1.888080077192069	-2.696628177364827	1.182577332712223	1.373090583988891	-0.05150214592274678	-1.026785714285714	0.526077097505669
1072.296142578125	-3.225488864374126	-8.765724909336059	2.140723172106504	-2.739270877869401	1.129031055622935	0.29363650210221	-0.05150214592274678	-1.026785714285714	0.526077097505669
1076.202392578125	-3.222707029501299	-8.856661818593878	1.862539684823762	-3.392616886670529	0.8087237058189197	1.003197115855882	-0.06652360515021459	-1.015625	0.5306122448979592
1080.108642578125	-3.122364601019187	-8.887968273181729	2.032378469265662	-3.049844848185997	0.8056402991758804	1.010083390692003	-0.06652360515021459	-1.015625	0.5306122448979592
1084.014892578125	-2.966938807610995	-8.78851243010571	1.795921577425981	-3.03940021584936	1.185660739355263	1.36620430915277	-0.06652360515021459	-1.015625	0.5306122448979592
1087.921142578125	-3.153940671737207	-8.796743421565457	2.12876105127173	-2.353856138880294	1.179493926069184	1.379976858825012	-0.07296137339055794	-1.004464285714286	0.4943310657596372
1091.827392578125	-3.11084731896971	-8.888083446002222	1.901058427583301	-2.671969311526665	1.580446531921368	2.089029529745217	-0.07296137339055794	-1.004464285714286	0.4943310657596372
1095.733642578125	-2.907752346534693	-8.758801264413442	1.999724449387719	-3.392616886670529	0.8087237058189197	1.003197115855882	-0.07296137339055794	-1.004464285714286	0.4943310657596372
1099.639892578125	-2.997110829500681	-8.848816770492874	1.751899276598711	-2.996757515344785	1.239207016444551	2.44565839103945	-0.07296137339055794	-1.004464285714286	0.4943310657596372
1103.546142578125	-3.161769042764329	-8.715857057047105	1.891189990718588	-3.046939418179136	1.910004101654501	1.358810091483182	-0.06652360515021459	-1.024553571428571	0.526077097505669
1107.452392578125	-2.9868642621462	-8.919626306873489	1.747650704415874	-3.714499660481788	1.571847992820723	1.708552677941294	-0.06652360515021459	-1.024553571428571	0.526077097505669
1111.358642578125	-3.048260837493288	-8.96951739162507	1.764859259532799	-3.728713893983313	1.55399923379096	1.348734650645734	-0.06652360515021459	-1.024553571428571	0.526077097505669
1115.264892578125	-3.050394183626697	-8.949294037961714	1.978193872873813	-3.018510951176086	1.945701619714027	2.078446146074302	-0.06437768240343347	-1.03125	0.526077097505669
1119.171142578125	-3.120457518869624	-8.867785323801204	1.841670254309302	-3.689840794643626	1.969717192029868	2.42449162369762	-0.06437768240343347	-1.03125	0.526077097505669
1123.077392578125	-3.101065400867771	-8.857878234880214	1.943274780654662	-3.332854522657569	1.984482544416592	2.791195925829302	-0.06437768240343347	-1.03125	0.526077097505669
1126.983642578125	-3.14236884390591	-8.887768230752862	1.991986431407354	-3.686071193478738	1.607545510880249	2.428188732532414	-0.06437768240343347	-1.03125	0.526077097505669
1130.889892578125	-3.223628247149817	-8.836450586215371	1.954661449675563	-3.332854522657569	1.984482544416592	2.791195925829302	-0.05579399141630902	-1.008928571428571	0.5056689342403629
1134.796142578125	-3.163074101099729	-8.897662188281933	2.02169582425864	-3.361282989660618	1.948785026357066	2.071559871238181	-0.05579399141630902	-1.008928571428571	0.5056689342403629
1138.702392578125	-3.083723800219528	-8.797445590280635	2.24993104236094	-4.025073630798384	1.248457236373669	2.424999566531087	-0.05579399141630902	-1.008928571428571	0.5056689342403629
1142.608642578125	-3.214793809480235	-9.078963173016311	2.091625845982658	-4.018398599626635	1.99064935770267	2.777423376157059	-0.06866952789699571	-1.008928571428571	0.5170068027210885
1146.514892578125	-3.316518064435123	-8.764814617335448	2.05996970881846	-3.686071193478738	1.607545510880249	2.428188732532414	-0.06866952789699571	-1.008928571428571	0.5170068027210885
1150.421142578125	-2.998500736830024	-8.889206911823621	1.890890009533007	-4.010859397296859	1.266305995403431	2.784817593826647	-0.06866952789699571	-1.008928571428571	0.5170068027210885
1154.327392578125	-2.97238126450816	-8.808660025738758	2.340167267142544	-4.03551826313502	0.8684367961942865	2.068878648070321	-0.06866952789699571	-1.008928571428571	0.5170068027210885
1158.233642578125	-3.121176715103994	-8.84757611163684	1.913589877746235	-3.653873125310801	1.281071347790155	3.151521895958329	-0.07081545064377683	-1.015625	0.5124716553287982
1162.139892578125	-2.979953068339313	-8.818685317801457	2.076939486992519	-3.653873125310801	1.281071347790155	3.151521895958329	-0.07081545064377683	-1.015625	0.5124716553287982
1166.046142578125	-3.019729229486488	-8.868792606695035	1.972922948648803	-3.349974186165955	0.862269982908208	2.082651197742563	-0.07081545064377683	-1.015625	0.5124716553287982
1169.952392578125	-2.96956912642321	-8.950102288533749	2.058953458647572	-3.678531991148962	0.8832021485810101	2.435582950202002	-0.07510729613733906	-1.008928571428571	0.5215419501133787
1173.858642578125	-2.93906578941432	-8.768589140085657	2.069844247554457	-3.653873125310801	1.281071347790155	3.151521895958329	-0.07510729613733906	-1.008928571428571	0.5215419501133787
1177.764892578125	-2.968736798196918	-8.990514652220053	1.975720636018312	-3.314870687991156	1.640159622296735	3.154711061959656	-0.07510729613733906	-1.008928571428571	0.5215419501133787
1181.671142578125	-3.194821890019776	-8.856940669988694	2.135250226467345	-2.986312883008149	1.619227456623933	2.801779309500216	-0.07510729613733906	-1.008928571428571	0.5215419501133787
1185.577392578125	-2.95964983375965	-8.980504511763414	2.087432355556822	-3.339529553829318	1.24229042308759	2.438772116203329	-0.07081545064377683	-1.013392857142857	0.5238095238095238
1189.483642578125	-2.991636007948392	-8.879174549011427	2.224825284635072	-3.349974186165955	0.862269982908208	2.082651197742563	-0.07081545064377683	-1.013392857142857	0.5238095238095238
1193.389892578125	-2.941384995248747	-9.112000291461655	2.30176483099715	-2.990082484173036	1.981399137773552	2.798082200665422	-0.07081545064377683	-1.013392857142857	0.5238095238095238
1197.296142578125	-3.041882980219753	-8.989783190399825	2.147481695444698	-2.304538407203971	1.975232324487474	2.811854750337665	-0.07296137339055794	-1.011160714285714	0.5147392290249433
1201.202392578125	-3.10340076841533	-8.837652861002717	2.176811535410545	-3.000527116509673	1.60137869759417	2.441961282204656	-0.07296137339055794	-1.011160714285714	0.5147392290249433
1205.108642578125	-3.136247553828345	-8.817122372946567	2.400265586916136	-2.325427671877244	1.215191444128709	2.099612913416132	-0.07296137339055794	-1.011160714285714	0.5147392290249433
1209.014892578125	-2.929021243473987	-8.839396656252131	2.085797816786489	-2.004409069224012	1.918602640755146	1.739286943287105	-0.07296137339055794	-1.011160714285714	0.5147392290249433
1212.921142578125	-2.98098135733733	-8.788372004608448	2.179768386794201	-1.629438962571542	1.589045071022013	2.469506381549141	-0.0815450643776824	-1.022321428571429	0.5170068027210885
1216.827392578125	-2.786821833278969	-8.921626731162162	2.151571082998958	-1.297975727581673	2.672476707827832	2.46530132988088	-0.0815450643776824	-1.022321428571429	0.5170068027210885
1220.733642578125	-2.878370228374328	-8.728792055292017	2.122737123147126	-1.312189961083198	2.654627948798069	2.105483302585319	-0.0815450643776824	-1.022321428571429	0.5170068027210885
1224.639892578125	-2.838323358532194	-8.96151575631367	2.199682791994918	-0.9447590567605035	3.049413741364174	2.828308523177767	-0.09227467811158799	-0.9933035714285714	0.5215419501133787
1228.546142578125	-2.95061539489006	-9.051301926859182	2.204396631863197	-0.9836321561001899	2.633695783125267	1.75255155012588	-0.09227467811158799	-0.9933035714285714	0.5215419501133787
1232.452392578125	-2.907653356041761	-9.092135587651704	1.989825400094434	-0.6228762829492445	2.286289454362371	2.122952961092356	-0.09227467811158799	-0.9933035714285714	0.5215419501133787
1236.358642578125	-3.00094115551294	-9.030596649050933	2.134931877824621	-0.987401757265078	2.995867464274886	1.748854441291086	-0.09227467811158799	-0.9933035714285714	0.5215419501133787
1240.264892578125	-3.132875816426203	-9.049479322643821	2.063091846701977	-0.6266458841141325	2.64846113551199	2.119255852257562	-0.06223175965665236	-1.022321428571429	0.526077097505669
1244.171142578125	-3.154146733579639	-8.958357522563196	2.149367235514896	-0.6446297187805452	2.992784057631847	1.755740716127207	-0.06223175965665236	-1.022321428571429	0.526077097505669
1248.077392578125	-3.073172180529682	-9.039975348901775	2.215177236641652	-0.3018576802960124	2.989700650988808	1.762626990963329	-0.06223175965665236	-1.022321428571429	0.526077097505669
1251.983642578125	-3.060947823530685	-9.040097592471763	2.01314970000725	-0.326516546134174	2.591831451779663	1.046688045207002	-0.07939914163090128	-1.002232142857143	0.5147392290249433
1255.889892578125	-3.054046730794505	-9.090671653904177	2.343448589654639	0.03714475702363236	3.348788925495388	1.765816156964656	-0.07939914163090128	-1.002232142857143	0.5147392290249433
1259.796142578125	-3.032933390344106	-8.919165615591512	2.272930871145318	0.02670012468699552	2.968768485316006	1.409695238503889	-0.07939914163090128	-1.002232142857143	0.5147392290249433
1263.702392578125	-3.153845721672557	-8.786643360965096	2.119266044806742	-0.3123023126326492	2.609680210809426	1.406506072502562	-0.07939914163090128	-1.002232142857143	0.5147392290249433
1267.608642578125	-2.970229736447477	-8.859186591524416	2.125014461074192	0.3836863966730531	2.983533837702729	1.776399540635571	-0.06866952789699571	-1.022321428571429	0.5147392290249433
1271.514892578125	-2.993963294639384	-9.040767437760678	2.45755395373436	0.3941310290096899	3.363554277882111	2.132520459096337	-0.06866952789699571	-1.022321428571429	0.5147392290249433
1275.421142578125	-2.848474975822026	-8.880606159332691	2.194436357712767	0.02670012468699552	2.968768485316006	1.409695238503889	-0.06866952789699571	-1.022321428571429	0.5147392290249433
1279.327392578125	-2.909027101657972	-8.991111749185443	2.127199961715541	0.7264584351575858	2.98045043105969	1.783285815471692	-0.06866952789699571	-1.015625	0.5102040816326531
1283.233642578125	-2.72542323771774	-9.043452838329895	2.134160506467884	0.3836863966730531	2.983533837702729	1.776399540635571	-0.06866952789699571	-1.015625	0.5102040816326531
1287.139892578125	-3.113516021850614	-8.817349688266342	2.167928715673717	0.02293052352210757	3.330940166465625	1.405998129669095	-0.06866952789699571	-1.015625	0.5102040816326531
1291.046142578125	-2.969961047966659	-8.970300389520336	2.098145612992417	0.7122442016560611	2.962601672029928	1.423467788176131	-0.06866952789699571	-1.015625	0.5102040816326531
1294.952392578125	-3.021353481656243	-9.192008687405663	2.135348165624348	0.3590275308348915	2.585664638493584	1.060460594879244	-0.08369098712446352	-1.022321428571429	0.4965986394557823
1298.858642578125	-2.836074860192719	-9.173659453418276	1.974832958047429	0.7122442016560611	2.962601672029928	1.423467788176131	-0.08369098712446352	-1.022321428571429	0.4965986394557823
1302.764892578125	-2.972247930374822	-9.030883581302314	2.326833853808731	0.6875853358178994	2.564732472820782	0.7075288424198048	-0.08369098712446352	-1.022321428571429	0.4965986394557823
1306.671142578125	-3.072483287507435	-9.009679207528968	2.14628793441695	0.716013802820949	2.600429990880308	1.427164897010925	-0.06008583690987124	-1.040178571428571	0.5192743764172336
1310.577392578125	-2.990149130340257	-9.000401538999629	2.076137523821639	0.716013802820949	2.600429990880308	1.427164897010925	-0.06008583690987124	-1.040178571428571	0.5192743764172336
1314.483642578125	-3.039707209589372	-9.08071403901522	1.929904632406562	-0.3616200443089725	1.813941812391136	-0.02537181901009081	-0.06008583690987124	-1.040178571428571	0.5192743764172336
1318.389892578125	-3.010563476697702	-8.990096385435045	2.076755833035514	0.6771407034812625	2.1847120326414	0.3514079239590386	-0.06008583690987124	-1.040178571428571	0.5192743764172336
1322.296142578125	-2.937778913006193	-9.061531301779029	1.941156606741744	0.327693633824981	1.445603317955438	-0.007902160503054765	-0.07725321888412018	-1.008928571428571	0.5124716553287982
1326.202392578125	-3.112544298848559	-9.090086678223637	2.070756415468198	0.323924032660093	1.807774999105058	-0.01159926933784872	-0.07725321888412018	-1.008928571428571	0.5124716553287982
1330.108642578125	-3.193795621235901	-9.220587296312894	2.032623348079813	0.656251438807989	1.424671152282636	-0.360833912962494	-0.07725321888412018	-1.008928571428571	0.5124716553287982
1334.014892578125	-3.152946726379596	-8.938167502433176	2.029366515510576	1.019912741965795	2.181628625998361	0.3582941987951597	-0.07725321888412018	-1.024553571428571	0.5034013605442177
1337.921142578125	-2.785577381367813	-9.143861397903494	2.027125891883367	0.6809103046461504	1.822540351491781	0.3551050327938325	-0.07725321888412018	-1.024553571428571	0.5034013605442177
1341.827392578125	-3.052062880507566	-9.030085431800988	2.145063560960628	0.6591568688148498	2.529034954761257	-0.01210721217131558	-0.07725321888412018	-1.024553571428571	0.5034013605442177
1345.733642578125	-2.981330854383807	-8.879277600547073	2.214718091441924	0.6591568688148498	2.529034954761257	-0.01210721217131558	-0.07725321888412018	-1.024553571428571	0.5034013605442177
1349.639892578125	-2.999593672680569	-8.919499012768146	2.000183594587447	1.001928907299383	2.525951548118218	-0.005220937335194527	-0.07725321888412018	-1.024553571428571	0.5034013605442177
1353.546142578125	-3.114346329862765	-8.948654516499353	2.250959516888827	0.6307284018118002	2.493337436701732	-0.7317432667624361	-0.07725321888412018	-1.024553571428571	0.5034013605442177
1357.452392578125	-2.91782921590129	-8.97082170784099	1.987003222782066	0.6240533706400514	1.75114531537273	-1.084167076388408	-0.07725321888412018	-1.024553571428571	0.5034013605442177
1361.358642578125	-3.074000468327692	-8.837946864003593	2.298006016442613	0.2954955656570434	1.772077481045532	-0.7312353239289692	-0.08369098712446352	-1.011160714285714	0.5283446712018141
1365.264892578125	-2.919475690426602	-8.920300192590686	2.151650675313246	0.6307284018118002	2.493337436701732	-0.7317432667624361	-0.08369098712446352	-1.011160714285714	0.5283446712018141
1369.171142578125	-2.939902158068896	-8.889792897611231	2.153481113012014	0.9735004402963331	2.490254030058692	-0.724856991926315	-0.08369098712446352	-1.011160714285714	0.5283446712018141
1373.077392578125	-3.072675207850876	-8.858162136810382	2.165479968761074	-0.4222465794799596	2.104718457421704	-1.468341037027126	-0.08369098712446352	-1.011160714285714	0.5283446712018141
1376.983642578125	-3.092228942984047	-8.767057508549959	2.080037155547609	0.9697308391314451	2.852425711208312	-0.7285541007611089	-0.08369098712446352	-1.011160714285714	0.5283446712018141
1380.889892578125	-3.092291569622434	-8.999380114606806	2.086299819386218	0.6307284018118002	2.493337436701732	-0.7317432667624361	-0.08369098712446352	-1.011160714285714	0.5283446712018141
1384.796142578125	-3.021096914460275	-8.777869838936207	2.109691446027465	0.6127445671453876	2.837660358821588	-1.09525840289279	-0.08369098712446352	-1.011160714285714	0.5283446712018141
1388.702392578125	-3.040937520001537	-8.545348200557562	2.052935673623113	-0.07947454099542683	2.101635050778665	-1.461454762191005	-0.0536480686695279	-1.020089285714286	0.5170068027210885
1392.608642578125	-3.111101865951538	-8.968888981340486	1.926513125766036	0.652481837643101	1.786842833432255	-0.3645310217972879	-0.0536480686695279	-1.020089285714286	0.5170068027210885
1396.514892578125	-3.204632091119696	-9.008357719492846	2.095862173194066	0.9413023721283955	2.816728193148786	-1.448190155352229	-0.0536480686695279	-1.020089285714286	0.5170068027210885
1400.421142578125	-3.184385422535994	-8.907550085168582	2.112011641354532	-0.07947454099542683	2.101635050778665	-1.461454762191005	-0.0536480686695279	-1.020089285714286	0.5170068027210885
1404.327392578125	-3.172950969266318	-8.937967460004309	1.988974477652267	0.2632974974891059	2.098551644135625	-1.454568487354884	-0.0536480686695279	-1.020089285714286	0.5170068027210885
1408.233642578125	-3.058953872173037	-8.827996319864129	1.813754564242496	-0.08991917333206367	1.721614610599283	-1.817575680651771	-0.0536480686695279	-1.020089285714286	0.5170068027210885
1412.139892578125	-3.018880739547063	-8.767790990584329	1.888073954706355	-0.09368877449695162	2.083786291748902	-1.821272789486565	-0.0536480686695279	-1.020089285714286	0.5170068027210885
1416.046142578125	-2.989084477487693	-9.091321276437245	1.969672238565281	0.9270881386268708	2.798879434119023	-1.80800818264779	-0.07510729613733906	-1.042410714285714	0.54421768707483
1419.952392578125	-3.214262493161024	-8.786039193250209	2.038494214061554	0.2528528651524691	1.718531203956244	-1.81068940581565	-0.07510729613733906	-1.042410714285714	0.54421768707483
1423.858642578125	-2.98296520762427	-8.848958226711638	2.378153415488212	0.2528528651524691	1.718531203956244	-1.81068940581565	-0.07510729613733906	-1.042410714285714	0.54421768707483
1427.764892578125	-3.153049757300811	-8.766449300406792	2.039669607632159	0.2453136628226932	2.442874566255482	-1.818083623485238	-0.07510729613733906	-1.042410714285714	0.54421768707483
1431.671142578125	-2.857444767839088	-8.749203330099389	2.071007396153633	0.2453136628226932	2.442874566255482	-1.818083623485238	-0.07510729613733906	-1.042410714285714	0.54421768707483
1435.577392578125	-2.947324466053578	-8.980627765440476	1.875303748214986	0.584316100142338	2.801962840762063	-1.814894457483911	-0.07510729613733906	-1.042410714285714	0.54421768707483
1439.483642578125	-3.029929331915715	-8.707074444054582	1.972525028306221	0.2453136628226932	2.442874566255482	-1.818083623485238	-0.07510729613733906	-1.042410714285714	0.54421768707483
1443.389892578125	-3.029327308101552	-8.868696625908886	1.912322646889912	0.5985303336438628	2.819811599791825	-1.455076430188351	-0.1008583690987124	-1.015625	0.4988662131519275
1447.296142578125	-3.040630447452031	-8.888785614717399	2.022228418672512	0.2377744604929173	3.167217928554721	-1.825477841154826	-0.1008583690987124	-1.015625	0.4988662131519275
1451.202392578125	-2.950849739730473	-8.829077361188556	2.227831115904445	-0.4686588811494219	2.413343861482035	-2.551492227748601	-0.1008583690987124	-1.015625	0.4988662131519275
1455.108642578125	-3.152067933228049	-8.887671239859641	1.941487200355897	-0.8114309196339546	2.416427268125074	-2.558378502584721	-0.1008583690987124	-1.015625	0.4988662131519275
1459.014892578125	-3.006310925929872	-8.83862375942757	1.651500756252528	0.2377744604929173	3.167217928554721	-1.825477841154826	-0.1008583690987124	-1.015625	0.4988662131519275
1462.921142578125	-3.154492190197833	-8.887646997289943	2.183912897334321	-0.4619838499776731	3.155535982811037	-2.199068418122628	-0.1008583690987124	-1.015625	0.4988662131519275
1466.827392578125	-3.276024727267721	-9.068249853737425	2.092268645139391	-0.1049975779916155	3.17030133519776	-1.832364115990947	-0.1008583690987124	-1.015625	0.4988662131519275
1470.733642578125	-3.398377471279051	-8.723591982862967	2.082645087088828	-0.1012279768267275	2.808129654048141	-1.828667007156153	-0.06652360515021459	-1.026785714285714	0.5192743764172336
1474.639892578125	-3.276687357506128	-8.805616964808779	2.158531668980161	0.25575829515933	2.822895006434864	-1.461962705024471	-0.06652360515021459	-1.026785714285714	0.5192743764172336
1478.546142578125	-3.408668483344646	-8.915408264661504	2.091338130382936	-0.4506750464830092	2.069020939362179	-2.187977091618246	-0.06652360515021459	-1.026785714285714	0.5192743764172336
1482.452392578125	-3.142940564507951	-8.776651402435728	2.049158491611433	-1.132449522287187	1.713016071498638	-2.198052532455694	-0.06652360515021459	-1.026785714285714	0.5192743764172336
1486.358642578125	-3.24485471959214	-8.9877534730061	2.03649236737721	-0.7650186179644923	2.107801864064743	-1.475227311863247	-0.06652360515021459	-1.026785714285714	0.5192743764172336
1490.264892578125	-3.133847539428259	-8.776742332686528	2.160264146907496	-0.4326912118165964	1.724698017242322	-1.824461955487892	-0.06652360515021459	-1.026785714285714	0.5192743764172336
1494.171142578125	-3.14220520656045	-8.655446634803084	1.97562269686131	-1.128679921122299	1.350844390349019	-2.1943554236209	-0.06652360515021459	-1.026785714285714	0.5192743764172336
1498.077392578125	-3.041383987326805	-8.474636665177238	2.097582406149972	-0.7679240479713533	1.003438061586123	-1.823954012654425	-0.06652360515021459	-1.022321428571429	0.5170068027210885
1501.983642578125	-3.235571794383147	-8.967644282056172	2.128608009743297	-0.4184769783150716	1.742546776272085	-1.464643928192332	-0.06652360515021459	-1.022321428571429	0.5170068027210885
1505.889892578125	-3.244426434194144	-9.02816179626412	1.993663827577689	-0.7574794156347164	1.383458501765505	-1.467833094193659	-0.06652360515021459	-1.022321428571429	0.5170068027210885
1509.796142578125	-3.131700051795859	-8.988885019684064	1.945515383667441	-0.7574794156347164	1.383458501765505	-1.467833094193659	-0.06652360515021459	-1.022321428571429	0.5170068027210885
1513.702392578125	-3.059701351405387	-8.928998946081906	1.88850248747751	-1.096481852954361	1.024370227258925	-1.471022260194986	-0.06652360515021459	-1.022321428571429	0.5170068027210885
1517.608642578125	-3.142269853412977	-8.716052048940618	1.982087382114069	-0.7537098144698285	1.021286820615886	-1.464135985358865	-0.06652360515021459	-1.022321428571429	0.5170068027210885
1521.514892578125	-3.020076706318823	-8.62636488950247	2.007670631882378	-0.7716936491362412	1.365609742735742	-1.827651121489219	-0.06652360515021459	-1.022321428571429	0.5170068027210885
1525.421142578125	-3.019252458949097	-8.990009495612531	1.925245894909713	-1.089806821782612	1.766562348587926	-1.118598450569014	-0.07081545064377683	-1.020089285714286	0.5124716553287982
1529.327392578125	-3.235351591041725	-8.997949514392616	2.10658767560109	-1.453468124940419	1.009604874872201	-1.837726562326667	-0.07081545064377683	-1.020089285714286	0.5124716553287982
1533.233642578125	-3.233927340071977	-8.846448605387161	1.964162578626266	-1.428809259102257	1.407474074081346	-1.121787616570341	-0.07081545064377683	-1.020089285714286	0.5124716553287982
1537.139892578125	-3.103077534152692	-9.039676295365545	2.144488109146755	-0.4147073771501837	1.380375095122466	-1.460946819357538	-0.08369098712446352	-0.9955357142857142	0.5328798185941043
1541.046142578125	-3.069287308735603	-8.949105106710624	1.826690057233727	-0.7432651821331916	1.401307260795268	-1.108015066898099	-0.08369098712446352	-0.9955357142857142	0.5328798185941043
1544.952392578125	-3.039388015755017	-8.93930308953942	1.89798524897107	-1.096481852954361	1.024370227258925	-1.471022260194986	-0.08369098712446352	-0.9955357142857142	0.5328798185941043
1548.858642578125	-3.113194807802119	-8.847655930709859	2.135807310824076	-1.467682358441943	0.9917561158424386	-2.197544589622227	-0.08369098712446352	-0.9955357142857142	0.5328798185941043
1552.764892578125	-3.049622461824649	-8.888695694573673	1.901021692669014	-0.4042627448135468	1.760395535301848	-1.104825900896772	-0.1008583690987124	-1.020089285714286	0.5147392290249433
1556.671142578125	-3.15403966223014	-8.968459603377701	2.138660100565015	-1.100251454119249	1.386541908408544	-1.47471936902978	-0.1008583690987124	-1.020089285714286	0.5147392290249433
1560.577392578125	-3.049303267990295	-8.747284745097877	1.869102309233522	-0.7470347832980796	1.763478941944887	-1.111712175732892	-0.1008583690987124	-1.020089285714286	0.5147392290249433
1564.483642578125	-3.000331050842211	-8.868986588481478	2.073921410751718	-1.485666193108356	1.336079037962295	-2.561059725752582	-0.06866952789699571	-1.013392857142857	0.5170068027210885
1568.389892578125	-3.054113397861175	-8.9795598761224	2.350115296321546	-0.4260161806448475	2.466890138571324	-1.47203814586192	-0.06866952789699571	-1.013392857142857	0.5170068027210885
1572.296142578125	-2.97195903975259	-8.838967278289344	2.297944791585468	-0.4222465794799596	2.104718457421704	-1.468341037027126	-0.06866952789699571	-1.013392857142857	0.5170068027210885
1576.202392578125	-3.192900666371222	-9.028677053942349	1.943127861611944	-0.789677483802654	1.709932664855599	-2.191166257619573	-0.06866952789699571	-1.013392857142857	0.5170068027210885
1580.108642578125	-3.010531153271438	-9.212318930891529	2.073523490409135	-0.4469054453181212	1.706849258212559	-2.184279982783452	-0.08583690987124463	-1.015625	0.5056689342403629
1584.014892578125	-2.97058731435052	-8.768273924836295	2.16077225137851	-0.4260161806448475	2.466890138571324	-1.47203814586192	-0.08583690987124463	-1.015625	0.5056689342403629
1587.921142578125	-3.039056700635813	-8.818094281478491	1.864853737050685	-0.789677483802654	1.709932664855599	-2.191166257619573	-0.08583690987124463	-1.015625	0.5056689342403629
1591.827392578125	-3.008478615703688	-8.929511173438923	1.868269733634069	-0.4506750464830092	2.069020939362179	-2.187977091618246	-0.07296137339055794	-1.022321428571429	0.5102040816326531
1595.733642578125	-3.08060256937093	-8.948991954104272	1.937807957501219	-0.09368877449695162	2.083786291748902	-1.821272789486565	-0.07296137339055794	-1.022321428571429	0.5102040816326531
1599.639892578125	-3.163870065471475	-8.917856248840236	2.101292261433223	-0.08991917333206367	1.721614610599283	-1.817575680651771	-0.07296137339055794	-1.022321428571429	0.5102040816326531
1603.546142578125	-3.081911668134614	-8.787362701500475	2.068717833869568	-0.09368877449695162	2.083786291748902	-1.821272789486565	-0.07296137339055794	-1.022321428571429	0.5102040816326531
1607.452392578125	-3.175179265464378	-8.927844166941316	2.211804097458269	-0.1079030079984764	2.065937532719139	-2.181090816782125	-0.07081545064377683	-1.002232142857143	0.5102040816326531
1611.358642578125	-3.051957829372208	-8.868470320696179	2.134558447424896	-0.09368877449695162	2.083786291748902	-1.821272789486565	-0.07081545064377683	-1.002232142857143	0.5102040816326531
1615.264892578125	-3.132063690341326	-8.887871282288508	1.981879238214205	-0.1079030079984764	2.065937532719139	-2.181090816782125	-0.07081545064377683	-1.002232142857143	0.5102040816326531
1619.171142578125	-3.082212680041696	-8.959076863098575	2.098819024577722	-0.1116726091633644	2.428109213868759	-2.184787925616919	-0.07081545064377683	-1.015625	0.4988662131519275
1623.077392578125	-3.213933198255961	-8.998163698320472	2.005564723555318	-0.4544446476478971	2.431192620511798	-2.19167420045304	-0.07081545064377683	-1.015625	0.4988662131519275
1626.983642578125	-3.072182275600353	-8.837965045930867	2.116186743708795	0.584316100142338	2.801962840762063	-1.814894457483911	-0.07081545064377683	-1.015625	0.4988662131519275
1630.889892578125	-3.001056307719005	-8.838676305609679	2.146447098431096	-0.1116726091633644	2.428109213868759	-2.184787925616919	-0.07081545064377683	-1.015625	0.4988662131519275
1634.796142578125	-3.051707322818664	-8.949280906569795	2.109507792070459	0.5947607324789748	3.181983280941445	-1.458773539023144	-0.06008583690987124	-1.017857142857143	0.5351473922902494
1638.702392578125	-2.939859733571924	-8.960500392563272	2.149238663314891	0.5880857013072259	2.439791159612443	-1.811197348649117	-0.06008583690987124	-1.017857142857143	0.5351473922902494
1642.608642578125	-2.90842709805795	-8.981016739120431	2.067199601713381	0.5776410689705891	2.059770719433061	-2.167318267109883	-0.06008583690987124	-1.017857142857143	0.5351473922902494
1646.514892578125	-2.970090341671714	-9.091511217795405	2.111074983497933	0.5947607324789748	3.181983280941445	-1.458773539023144	-0.07081545064377683	-1.013392857142857	0.5170068027210885
1650.421142578125	-2.870067107023957	-9.264228621859054	2.312833151375326	1.286979840619789	3.918008588984367	-1.09257717972493	-0.07081545064377683	-1.013392857142857	0.5170068027210885
1654.327392578125	-2.725487884570267	-9.104058252467432	2.140625191720642	1.629751879104322	3.914925182341328	-1.085690904888809	-0.07081545064377683	-1.013392857142857	0.5170068027210885
1658.233642578125	-2.694043127771444	-9.144776740439459	2.057374001634239	0.9128739051253459	2.78103067508926	-2.16782620994335	-0.07081545064377683	-1.013392857142857	0.5170068027210885
1662.139892578125	-2.714724142395565	-9.195074980798269	2.084659137515741	2.319065557238275	3.54658668790563	-1.068221246381773	-0.06866952789699571	-1.008928571428571	0.5215419501133787
1666.046142578125	-2.43785470133971	-9.44026791763307	1.948735440093532	1.968754316423966	4.274013456847908	-1.082501738887482	-0.06866952789699571	-1.008928571428571	0.5215419501133787
1669.952392578125	-2.542706247785621	-9.46952243247164	2.2298084520315	1.950770481757554	4.618336378967765	-1.446016875017836	-0.06866952789699571	-1.008928571428571	0.5215419501133787
1673.858642578125	-2.459414509115379	-9.541062420565414	2.063899891129712	2.635450387568593	6.078705049309926	-1.087214733389209	-0.07725321888412018	-1.024553571428571	0.5238095238095238
1677.764892578125	-2.521701998898862	-9.621247626475659	2.170199889886208	2.974452824888238	6.437793323816506	-1.084025567387882	-0.07725321888412018	-1.024553571428571	0.5238095238095238
1681.671142578125	-2.64330322324956	-9.519021513222052	2.085424365772334	3.291701826376582	7.503376201592563	-1.448048646351703	-0.07725321888412018	-1.024553571428571	0.5238095238095238
1685.577392578125	-2.634246562024415	-9.458506019228242	2.200166406523074	3.612720429029813	8.206787398218999	-1.808374616480731	-0.07725321888412018	-1.024553571428571	0.5238095238095238
1689.483642578125	-2.382207655439295	-9.572137519405205	2.506479829643769	4.304939537170628	8.942812706261922	-1.442178257182516	-0.0536480686695279	-0.9955357142857142	0.5011337868480725
1693.389892578125	-2.4622690716973	-9.328912662818382	2.349356149321807	4.629727740988748	9.284052221738738	-1.798807118476749	-0.0536480686695279	-0.9955357142857142	0.5011337868480725
1697.296142578125	-2.429436427783275	-9.662574322590856	2.127316247715256	4.62595813982386	9.646223902888359	-1.802504227311543	-0.0536480686695279	-0.9955357142857142	0.5011337868480725
1701.202392578125	-2.483358169578001	-9.540822983960787	2.417449610861343	4.964960577143505	10.00531217739494	-1.799315061310216	-0.08369098712446352	-1.015625	0.526077097505669
1705.108642578125	-2.34057087706781	-9.592755907390941	2.424434645556544	5.378803783135662	10.09147256590071	0.006661350003706087	-0.08369098712446352	-1.015625	0.526077097505669
1709.014892578125	-2.421525227976352	-9.713158485093976	2.356604430288301	5.989507091432215	10.35823363861544	-1.782353345636647	-0.08369098712446352	-1.015625	0.526077097505669
1712.921142578125	-2.21839591190093	-9.97781604088099	2.451836088052191	6.685495800737917	10.73208726550874	-1.412459877503639	-0.08369098712446352	-1.015625	0.526077097505669
1716.827392578125	-1.788452206697573	-9.739691235508783	2.314608424859373	7.70627271386174	11.44718040787886	-1.399195270664863	-0.09442060085836909	-1.004464285714286	0.5147392290249433
1720.733642578125	-1.922526274386671	-9.728249484730883	2.456709071320188	8.373832956164392	11.78533651671264	-1.748937857122975	-0.09442060085836909	-1.004464285714286	0.5147392290249433
1724.639892578125	-1.861099395827461	-9.728863753516475	2.436470194991032	8.6806373253161	12.47089895430932	-2.469081854547563	-0.09442060085836909	-1.004464285714286	0.5147392290249433
1728.546142578125	-1.714758546642395	-9.811135242816405	2.088099562198693	9.351102997625613	13.91341886562171	-2.470097740214496	-0.1008583690987124	-1.017857142857143	0.5192743764172336
1732.452392578125	-1.521730342503267	-9.742358454150727	2.173034250326715	9.275398057795075	15.65288223525076	-3.927855393570707	-0.1008583690987124	-1.017857142857143	0.5192743764172336
1736.358642578125	-1.912984761767569	-9.465718637230811	2.522965972675243	9.899451428435126	17.40402755062349	-5.012022469959115	-0.1008583690987124	-1.017857142857143	0.5192743764172336
1740.264892578125	-1.829196050418521	-9.355445413233191	2.307360143892878	10.88426067222612	18.80776653723332	-5.725788135381048	-0.1008583690987124	-1.017857142857143	0.5192743764172336
1744.171142578125	-1.442604285392771	-9.268402239974357	2.423693845399519	10.81609493472536	19.82288654456313	-7.176151571067671	-0.09227467811158799	-1.015625	0.5192743764172336
1748.077392578125	-1.617719168281615	-9.387863212357589	2.588243358773697	10.74502376721774	19.73364274941432	-8.975241707545472	-0.09227467811158799	-1.015625	0.5192743764172336
1751.983642578125	-1.729132411487934	-9.427153120329569	2.505077883487298	10.33118056122558	19.64748236090854	-10.78121811885939	-0.09227467811158799	-1.015625	0.5192743764172336
1755.889892578125	-1.179209713889493	-9.281137195790398	2.614848939969749	11.64164217999272	19.92592537936695	-12.19664223753194	-0.08369098712446352	-1.011160714285714	0.5215419501133787
1759.796142578125	-1.219115168741724	-9.452455312959049	2.523761772131548	10.83570920383971	19.04710999908593	-15.44138281519464	-0.08369098712446352	-1.011160714285714	0.5215419501133787
1763.702392578125	-1.075788479055756	-9.393282519249848	2.47680708924905	11.77120071595438	19.65511058727747	-17.58702637212923	-0.08369098712446352	-1.011160714285714	0.5215419501133787
1767.608642578125	-1.015375747995572	-9.050452303126105	2.557982962822535	12.66404952756448	20.20956489837973	-20.81212401095049	-0.08369098712446352	-1.011160714285714	0.5215419501133787
1771.514892578125	-1.239242644691078	-9.078516664462182	2.49569304053631	13.60912150085777	22.6641214103789	-22.25661705746793	-0.07725321888412018	-1.022321428571429	0.5238095238095238
1775.421142578125	-1.038313341815734	-9.211839088804068	2.81092601830812	14.16964290631997	23.60167956830357	-25.13248005266455	-0.07725321888412018	-1.022321428571429	0.5238095238095238
1779.327392578125	-0.9657227186818078	-8.960039742510153	2.694720847772624	14.01619176781006	24.5097070214548	-28.74175165212453	-0.07725321888412018	-1.022321428571429	0.5238095238095238
1783.233642578125	-0.7925108775142446	-9.204196103346071	2.720475506526509	14.96880294343312	26.23992017115473	-30.17885048097238	-0.09442060085836909	-1.020089285714286	0.5215419501133787
1787.139892578125	-0.7923735029526237	-9.264803537697748	2.706738050364399	14.85508907542092	26.09713009891663	-33.05739469933687	-0.09442060085836909	-1.020089285714286	0.5215419501133787
1791.046142578125	-0.4545317315193935	-9.25808094531107	2.596030294796488	16.10115455785219	27.02852144355523	-35.91948514486124	-0.09442060085836909	-1.020089285714286	0.5215419501133787
1794.952392578125	-0.6107292467296341	-9.418135131775129	2.909659366840968	15.64089905019057	27.25098645910979	-38.80861274689664	-0.09442060085836909	-1.020089285714286	0.5215419501133787
1798.858642578125	-0.168924823072748	-9.584169337627859	2.606768021560511	16.89363956379359	28.92456992507739	-41.31827938279505	-0.0815450643776824	-1.029017857142857	0.5487528344671202
1802.764892578125	-0.1186717901589619	-9.483661766946897	2.683505546508439	17.82072770242046	31.72344935919641	-43.12628756544284	-0.0815450643776824	-1.029017857142857	0.5487528344671202
1806.671142578125	-0.07579864073288749	-9.544696559047217	2.477823256962218	18.74491041104047	33.41796499083681	-45.28302244888181	-0.0815450643776824	-1.029017857142857	0.5487528344671202
1810.577392578125	-0.259954023133745	-9.58325904562725	2.526014558272466	19.70042701667039	36.25254194301536	-46.37139457693848	-0.07296137339055794	-0.9977678571428571	0.5351473922902494
1814.483642578125	-0.3403346332261049	-9.986495643566732	2.400810261385997	20.99204062961309	38.34184336722186	-47.80530423978499	-0.07296137339055794	-0.9977678571428571	0.5351473922902494
1818.389892578125	-0.5172030619897593	-9.540282514834649	2.740714362241235	21.58389593208521	40.41946284568469	-49.61280447959932	-0.07296137339055794	-0.9977678571428571	0.5351473922902494
1822.296142578125	-0.5159222462240566	-9.823123605820589	2.612632785670967	22.22593313739167	41.82628523893756	-50.33345641985737	-0.07296137339055794	-0.9977678571428571	0.5351473922902494
1826.202392578125	-0.5568256868621814	-10.0146337633334	2.621344196422219	22.50430903954033	42.47615015847472	-51.77323647187308	-0.08369098712446352	-0.9910714285714285	0.546485260770975
1830.108642578125	-0.4651298161344936	-10.11656082305078	2.635430593041197	23.12545698017352	43.12293167136882	-53.20613024905267	-0.08369098712446352	-0.9910714285714285	0.546485260770975
1834.014892578125	-0.4964796228686669	-10.06574227447839	2.709186776662611	23.79969225364792	44.2032799015316	-53.20344902588481	-0.08369098712446352	-0.9910714285714285	0.546485260770975
1837.921142578125	-0.5188273141595147	-10.36854910059578	2.903139579216779	25.12436810591659	44.49957167901977	-54.25905511726179	-0.05793991416309013	-1.011160714285714	0.5600907029478458
1841.827392578125	-0.5365325533532257	-10.3279680077998	2.632847172057265	25.76263571005816	46.26856575342227	-54.98340416635465	-0.05793991416309013	-1.011160714285714	0.5600907029478458
1845.733642578125	-0.4969947774747461	-10.21725227444748	2.760702237270526	26.03056697987019	46.53841023278004	-56.77930513683112	-0.05793991416309013	-1.011160714285714	0.5600907029478458
1849.639892578125	-0.6513155137475455	-10.30661815799384	2.886653415570875	27.37613209681212	47.59474289062697	-57.12266939128658	-0.05793991416309013	-1.011160714285714	0.5600907029478458
1853.546142578125	-0.7340961382399918	-10.24518429114286	3.001450558693046	28.01149427094684	48.25937316255085	-58.1957451411706	-0.03218884120171674	-1.008928571428571	0.5714285714285714
1857.452392578125	-0.7739490675245433	-10.3356948527591	2.90511083408698	28.6439510150747	47.8196396319961	-59.61754759184581	-0.03218884120171674	-1.008928571428571	0.5714285714285714
1861.358642578125	-0.8472912103191027	-10.34506244143216	3.096467970685788	28.93740532188291	47.02081782693476	-61.04253920852234	-0.03218884120171674	-1.008928571428571	0.5714285714285714
1865.264892578125	-0.8175393929708455	-10.42616804041373	3.182510725655985	29.62671900001686	46.65247933249906	-61.0250695500153	-0.02575107296137339	-0.9732142857142857	0.5714285714285714
1869.171142578125	-1.135051667040573	-10.30178079646091	3.301085071404265	30.63791545196207	45.52101655106157	-61.71295545359368	-0.02575107296137339	-0.9732142857142857	0.5714285714285714
1873.077392578125	-0.7654782684004288	-10.47719370216448	3.078439084940839	31.65665110623706	43.66521040732482	-62.39344713950247	-0.02575107296137339	-0.9732142857142857	0.5714285714285714
1876.983642578125	-1.035450657148387	-10.44419094797397	3.545065714838734	31.27963974073576	41.4238686909511	-63.81742287051207	-0.02575107296137339	-0.9732142857142857	0.5714285714285714
1880.889892578125	-0.6976169665717232	-10.25565009296055	3.435166044927418	32.67161715934716	42.17157594473771	-63.07763593424605	-0.03433476394849785	-0.9866071428571428	0.5850340136054422
1884.796142578125	-0.87204295643832	-10.34481492397097	3.530826256076894	32.66117252701053	41.79155550455832	-63.43375685270681	-0.03433476394849785	-0.9866071428571428	0.5850340136054422
1888.702392578125	-0.7595832423067101	-10.36614154131431	3.509344638834273	32.61939399766398	40.27147374384079	-64.85824052654988	-0.03433476394849785	-0.9866071428571428	0.5850340136054422
1892.608642578125	-0.7202515282706621	-10.41703990895972	3.6578058882907	32.60517976416245	40.25362498481103	-65.21805855384544	-0.004291845493562232	-0.9754464285714285	0.5668934240362812
1896.514892578125	-0.6163232196874112	-10.19585696982333	3.469056662618682	33.65147971428247	39.90005184276206	-64.83388459320672	-0.004291845493562232	-0.9754464285714285	0.5668934240362812
1900.421142578125	-0.7093584923909049	-10.38684580901549	3.588910463580284	34.30192029307673	39.11599539008746	-65.89217190775157	-0.004291845493562232	-0.9754464285714285	0.5668934240362812
1904.327392578125	-0.252032681027255	-10.32071199642205	3.774696674154072	34.27058639606682	37.9759340695493	-66.96053466313387	-0.004291845493562232	-0.9754464285714285	0.5668934240362812
1908.233642578125	-0.4477720125442584	-10.24804753239981	3.960874723813588	35.29513291035553	38.32885553076981	-66.94357294746031	-0.02789699570815451	-1.006696428571429	0.5873015873015873
1912.139892578125	-0.6382729287923862	-10.48856676566157	3.623211246585559	35.23537054634257	37.15309669217213	-68.73157175743373	-0.02789699570815451	-1.006696428571429	0.5873015873015873
1916.046142578125	-0.7197808183756957	-10.52815572716978	3.610734898794056	36.24193322596486	37.8503410755125	-69.07812517789051	-0.02789699570815451	-1.006696428571429	0.5873015873015873
1919.952392578125	-0.7505245608674229	-10.47734323923981	3.623884658170864	36.54960176627461	37.06936802948093	-70.14329876727147	0.002145922746781116	-0.9665178571428571	0.5804988662131519
1923.858642578125	-0.7520033576189913	-10.53793451187836	3.771764333327703	37.55325901589003	36.66224861034267	-70.83857888851945	0.002145922746781116	-0.9665178571428571	0.5804988662131519
1927.764892578125	-0.8427840713405855	-10.44611761383205	3.666162236099371	38.571130499007	36.27297795023416	-71.17404098247185	0.002145922746781116	-0.9665178571428571	0.5804988662131519
1931.671142578125	-0.7521407321806124	-10.47732707752668	3.785501789489814	38.1903495323408	34.39380791501006	-72.60171382231624	0.002145922746781116	-0.9665178571428571	0.5804988662131519
1935.577392578125	-0.693184575516441	-10.56882573000241	4.012335102664503	39.86910622658868	33.60050124240633	-73.63934231235272	-0.01502145922746781	-0.984375	0.6077097505668935
1939.483642578125	-0.7342152896454793	-10.5482134026591	4.033773862507122	40.88697770970563	33.21123058229783	-73.97480440630513	-0.01502145922746781	-0.984375	0.6077097505668935
1943.389892578125	-0.6009412267564102	-10.74146533520719	3.971673696049186	41.55163252200143	32.44502288865299	-74.67327369355442	-0.01502145922746781	-0.984375	0.6077097505668935
1947.296142578125	-0.6614408270246777	-10.77116336950753	3.899184743284094	43.23706424742104	32.39390833737827	-75.35847837396493	0.02360515021459227	-0.96875	0.6213151927437642
1951.202392578125	-0.5085867662185978	-10.76259090001458	3.919901111655692	43.90548866088172	31.2655289625838	-76.05325055237942	0.02360515021459227	-0.96875	0.6213151927437642
1955.108642578125	-0.8075634930824633	-11.05253042567524	4.225737063348376	44.92336014399869	30.8762583024753	-76.38871264633184	0.02360515021459227	-0.96875	0.6213151927437642
1959.014892578125	-0.7450052946040208	-10.75012570462972	4.092366195095956	46.9724531725761	31.58210122491631	-76.35478921498469	0.02360515021459227	-0.96875	0.6213151927437642
1962.921142578125	-0.5646499350033	-10.94384845014492	4.424177173799387	48.31424868835315	33.00060556391286	-76.70185057827494	0.0407725321888412	-0.9665178571428571	0.6303854875283447
1966.827392578125	-0.5442093258620159	-11.16627507845856	4.420932586201578	50.00635544494452	33.69168313396715	-77.03463144905949	0.0407725321888412	-0.9665178571428571	0.6303854875283447
1970.733642578125	-0.420268693535476	-11.12711044437778	4.271767312731273	51.69178717036414	33.64056858269242	-77.71983612947001	0.0407725321888412	-0.9665178571428571	0.6303854875283447
1974.639892578125	-0.6860127740853026	-10.90223078135006	4.315563122815967	53.39433855929214	34.71166659292609	-77.69649608179378	0.04935622317596566	-0.9441964285714285	0.6462585034013606
1978.546142578125	-0.3169504896229543	-11.06753756581084	4.144028554132158	55.40746391853673	36.1061553596068	-78.38960292270735	0.04935622317596566	-0.9441964285714285	0.6462585034013606
1982.452392578125	-0.2877118066666347	-10.96681985163031	4.281384748296122	56.05327072500808	37.15080607171005	-79.10655775413062	0.04935622317596566	-0.9441964285714285	0.6462585034013606
1986.358642578125	-0.2365840210295849	-10.97743213958768	4.270647000917669	57.75495794277806	39.68843956557195	-78.738188114498	0.04935622317596566	-0.9441964285714285	0.6462585034013606
1990.264892578125	-0.2886855498828313	-11.0274161748042	4.378759069915789	59.4424309270465	42.20822430040409	-78.72963650216096	0.06008583690987124	-0.9553571428571428	0.655328798185941
1994.171142578125	-0.1378517032182383	-11.01882350316984	4.601496852436073	60.78336227166553	45.0932641230289	-78.73166827349482	0.06008583690987124	-0.9553571428571428	0.655328798185941
1998.077392578125	-0.0748025927034144	-11.029555004376	4.419034780545522	61.45092251396818	45.43142023186267	-79.08141085995294	0.06008583690987124	-0.9553571428571428	0.655328798185941
2001.983642578125	-0.1258697719162196	-11.11995342349296	4.423711885499515	64.18469544835663	47.59763182464584	-78.68868528697718	0.09012875536480687	-0.9330357142857142	0.673469387755102
2005.889892578125	-0.08339460467601809	-11.19108524587243	4.257827814540584	65.55114982997186	49.41400536285154	-78.31980770451109	0.09012875536480687	-0.9330357142857142	0.673469387755102
2009.796142578125	-0.1663752303684715	-11.30136655072662	4.392625077663475	66.53218947259796	51.17991603061099	-79.03727047876782	0.09012875536480687	-0.9330357142857142	0.673469387755102
2013.702392578125	-0.0845158235245433	-11.3425891851991	4.369949699393105	67.88066001954677	53.34061249093655	-79.0319080324321	0.09012875536480687	-0.9330357142857142	0.673469387755102
2017.608642578125	0.03014996444957025	-11.505352004695	4.127860697900119	70.61443295393522	55.50682408371971	-78.63918245945634	0.09012875536480687	-0.9241071428571428	0.6893424036281179
2021.514892578125	-0.1483245345565662	-11.41265816879585	4.628371823003564	71.98756236672219	58.06538974325442	-77.91788106736429	0.09012875536480687	-0.9241071428571428	0.6893424036281179
2025.421142578125	-0.04432955890664638	-11.30258700744124	4.432955890664638	74.01113235830343	59.83989895011452	-78.2548669898171	0.09012875536480687	-0.9241071428571428	0.6893424036281179
2029.327392578125	-0.1565205845574385	-11.39237418809382	4.427568659825483	76.06226664572968	63.11664115866238	-77.52718726572239	0.09012875536480687	-0.90625	0.7029478458049887
2033.233642578125	-0.0565922999743317	-11.57519165275783	4.638821834167865	78.7638415119502	65.60932691453564	-77.85779485617255	0.09012875536480687	-0.90625	0.7029478458049887
2037.139892578125	-0.02448289272295931	-11.54520971652732	4.489105598826543	80.82251500170624	68.16172576078426	-77.12272091440825	0.09012875536480687	-0.90625	0.7029478458049887
2041.046142578125	0.006644690455650457	-11.39400584084395	4.437571770761485	82.18143018099168	70.7024426612892	-76.76123754961176	0.09012875536480687	-0.90625	0.7029478458049887
2044.952392578125	0.0236186121301432	-11.3941755800607	4.780995929842824	84.2229840072393	72.13262894602944	-76.73470833593422	0.09012875536480687	-0.90625	0.7029478458049887
2048.858642578125	0.104995187794256	-11.30408025490825	4.806603669553991	86.28833252816709	75.42721991360708	-75.64721058454396	0.09012875536480687	-0.90625	0.7029478458049887
2052.764892578125	0.09473851936906715	-11.38478576903208	4.811862348807572	87.98334471476532	77.22266128613998	-75.63126475453733	0.09012875536480687	-0.90625	0.7029478458049887
2056.671142578125	0.1459006486465223	-11.28428728931475	4.797690237388591	90.37434561066925	79.39195628556618	-75.24542545639768	0.1008583690987124	-0.8705357142857142	0.7301587301587302
2060.577392578125	0.1857838811431962	-11.24428208123568	4.890999640782426	91.37627451796864	81.9179078336844	-75.25064639373286	0.1008583690987124	-0.8705357142857142	0.7301587301587302
2064.483642578125	0.2471016681387658	-11.06307707728745	4.881669920817299	94.13470631819526	84.48198862567669	-74.14198187500078	0.1008583690987124	-0.8705357142857142	0.7301587301587302
2068.389892578125	0.125318624515334	-11.16286934786132	4.815076323976807	96.16495134094822	86.99868995386581	-74.12654398782762	0.1008583690987124	-0.8705357142857142	0.7301587301587302
2072.296142578125	-0.03780624621492525	-11.06022799814391	4.80103278475783	97.88462239338462	89.19200052560785	-73.39465921206465	0.1008583690987124	-0.8705357142857142	0.7301587301587302
2076.202392578125	0.02292365846547171	-10.90932014567557	4.850491296309972	99.57672914997598	89.88307809566213	-73.7274400828492	0.1008583690987124	-0.8705357142857142	0.7301587301587302
2080.108642578125	-0.1625165801293715	-10.82665766248154	5.027168217018786	100.9858262320958	91.75299791095712	-72.27910841849643	0.1008583690987124	-0.8705357142857142	0.7301587301587302
2084.014892578125	-0.1601610104403978	-10.54385293535014	4.791611248121416	103.3805967291646	93.5601212292337	-71.88957201152201	0.1008583690987124	-0.8348214285714285	0.8027210884353742
2087.921142578125	-0.2604650548538212	-10.74487009692621	4.617934056810691	104.0615070338107	95.38266158072548	-71.53446697872816	0.1008583690987124	-0.8348214285714285	0.8027210884353742
2091.827392578125	-0.4887360183777676	-10.6718803165839	4.996050817368603	105.78581185857	95.74726498768968	-71.1439146860868	0.1008583690987124	-0.8348214285714285	0.8027210884353742
2095.733642578125	-0.4279657094145409	-10.41996276714828	5.041468900637771	106.4466970697009	95.34322897519445	-71.84608108217088	0.1008583690987124	-0.8348214285714285	0.8027210884353742
2099.639892578125	-0.7924562492747045	-10.46682291225473	4.755829009103101	107.849119120649	96.47095666916044	-70.75017322744409	0.1008583690987124	-0.8348214285714285	0.8027210884353742
2103.546142578125	-0.8264747588897819	-10.34527060594646	5.096455480814931	108.4853454659417	95.66905145745606	-72.16827856928451	0.1008583690987124	-0.8348214285714285	0.8027210884353742
2107.452392578125	-0.9488780082546502	-10.25313748254372	5.091882458118085	108.8461013390927	95.32164512869316	-71.79787715831803	0.1008583690987124	-0.8348214285714285	0.8027210884353742
2111.358642578125	-1.337201096799654	-10.14824415064817	5.148681108536869	109.9103851238791	94.62374906452435	-71.05018806154897	0.08369098712446352	-0.7879464285714285	0.8412698412698413
2115.264892578125	-1.368395347044933	-10.18833624854975	5.206881643268834	111.3069963148134	93.54274915353309	-70.65173360840454	0.08369098712446352	-0.7879464285714285	0.8412698412698413
2119.171142578125	-1.428456560844498	-10.10692755560368	5.090554043633477	111.679925162617	90.64229229769309	-70.61527046289007	0.08369098712446352	-0.7879464285714285	0.8412698412698413
2123.077392578125	-1.439192020021219	-9.894698988890699	5.143691798040297	113.0774005247094	88.09475690307362	-70.56184560170202	0.08369098712446352	-0.7879464285714285	0.8412698412698413
2126.983642578125	-1.748520365374924	-9.77039358422504	5.464281435451549	113.8641725785052	85.28046043573939	-68.71940604487362	0.08369098712446352	-0.7879464285714285	0.8412698412698413
2130.889892578125	-1.520584757398464	-10.12620829384016	5.119700229642318	115.2436641059311	83.07724796323974	-69.02949631981593	0.08369098712446352	-0.7879464285714285	0.8412698412698413
2134.796142578125	-1.53246769820755	-9.853362191704793	5.287586147285592	115.5910699167386	81.24545739181885	-69.3639425281014	0.08369098712446352	-0.7879464285714285	0.8412698412698413
2138.702392578125	-1.756863891008125	-9.841017219675781	5.278225835506323	115.9526899610475	79.43151557942772	-69.33857070909131	0.1030042918454936	-0.7433035714285714	0.9002267573696145
2142.608642578125	-1.553385077886225	-10.01476917952417	5.338507788622491	115.971537966872	77.62065717367962	-69.32008516491734	0.1030042918454936	-0.7433035714285714	0.9002267573696145
2146.514892578125	-1.777500460921133	-9.628689641855436	5.301066500276554	116.3436026435176	76.18673580146786	-68.93859242744649	0.1030042918454936	-0.7433035714285714	0.9002267573696145
2150.421142578125	-1.564334679761944	-9.78233645118218	5.41305981292907	116.3557756181703	73.63368527439077	-69.27253069289848	0.1030042918454936	-0.7433035714285714	0.9002267573696145
2154.327392578125	-1.666052874074408	-9.478288966208751	5.380797611522426	117.1350084696363	71.54373216935578	-67.43748535373969	0.1030042918454936	-0.7433035714285714	0.9002267573696145
2158.233642578125	-1.410628088588156	-10.01619674941715	5.348523144529922	117.1651652789554	68.64635872015883	-67.40790848306133	0.1030042918454936	-0.7433035714285714	0.9002267573696145
2162.139892578125	-1.822189782860404	-9.739353859747155	5.688366041142444	118.2482970695663	66.13760425024189	-66.6417338421183	0.1030042918454936	-0.7433035714285714	0.9002267573696145
2166.046142578125	-1.706895708288288	-9.770809830795907	5.383448379849217	119.0028710551941	63.64978194599778	-65.52262744871581	0.07510729613733906	-0.7075892857142857	0.9206349206349207
2169.952392578125	-1.695663276432761	-9.801225185417493	5.28061335756182	118.6647327890325	61.82415818786296	-65.87084620667352	0.07510729613733906	-0.7075892857142857	0.9206349206349207
2173.858642578125	-1.88089341275689	-9.900382985064352	5.43628005119917	119.0472420980148	60.7702572558306	-65.13323255074189	0.07510729613733906	-0.7075892857142857	0.9206349206349207
2177.764892578125	-1.493657199420005	-9.540618983561357	5.48816892159238	119.0907489696773	59.35726804929163	-64.3988080608116	0.07510729613733906	-0.7075892857142857	0.9206349206349207
2181.671142578125	-1.332487895978705	-9.582634716999811	5.697769189707286	119.1078686331857	60.47948061080001	-63.69026333272487	0.07510729613733906	-0.7075892857142857	0.9206349206349207
2185.577392578125	-1.892717767355872	-9.556830398084019	5.598307347832132	119.4932833721748	60.52994348124626	-62.60392297600206	0.07510729613733906	-0.7075892857142857	0.9206349206349207
2189.483642578125	-1.749114308332521	-9.28553915994698	5.523675731211263	119.8720230799922	59.8382142303635	-61.87000642890523	0.07510729613733906	-0.7075892857142857	0.9206349206349207
2193.389892578125	-1.39139354728934	-9.23861131705236	5.46588534117888	119.9506334498296	59.20311466321309	-60.06352207475784	0.07296137339055794	-0.6294642857142857	0.9614512471655329
2197.296142578125	-1.493392551367471	-9.30829839771865	5.461704116338902	119.9941403214922	57.79012545667413	-59.32909758482755	0.07296137339055794	-0.6294642857142857	0.9614512471655329
2201.202392578125	-1.800236033327146	-9.285027942697033	5.53380741434727	118.9951168441997	56.36853771103455	-58.97514994670117	0.07296137339055794	-0.6294642857142857	0.9614512471655329
2205.108642578125	-1.523297904990481	-9.30799934418242	5.391014988844005	119.0415291458691	56.0599123069742	-57.8919987559797	0.07296137339055794	-0.6294642857142857	0.9614512471655329
2209.014892578125	-1.390953140606496	-9.299221781725249	5.421844672894466	118.7660586737273	56.51441118991568	-56.10349200317282	0.07296137339055794	-0.6294642857142857	0.9614512471655329
2212.921142578125	-1.801177453117079	-9.062796306276912	5.627949393340558	119.1410287803798	56.18485362018254	-55.37327256491078	0.07296137339055794	-0.6294642857142857	0.9614512471655329
2216.827392578125	-1.688576323995565	-8.983114236760047	5.59232627710753	118.5056666062451	55.52022334825867	-54.30019681502675	0.07296137339055794	-0.6294642857142857	0.9614512471655329
2220.733642578125	-1.822119075365452	-9.183799011266547	5.68129529164724	118.927049014567	54.88204037446521	-52.48682618604325	0.04506437768240344	-0.5602678571428571	0.9954648526077098
2224.639892578125	-1.526114083503713	-8.823122697548804	5.672632840167275	118.9496666215564	52.70901028756749	-52.46464353303448	0.04506437768240344	-0.5602678571428571	0.9954648526077098
2228.546142578125	-1.657967935851317	-8.639985977207147	5.592711952478684	118.2963206127552	52.38870293776348	-51.75508291928081	0.04506437768240344	-0.5602678571428571	0.9954648526077098
2232.452392578125	-1.546999139756125	-8.701701725774157	5.720322138877794	118.692179984081	52.81918624838912	-50.31262164409724	0.06652360515021459	-0.53125	1.031746031746032
2236.358642578125	-1.692513721357323	-8.649741529453095	5.98606601328332	118.7423618869153	52.14838916317916	-49.22577334454097	0.06652360515021459	-0.53125	1.031746031746032
2240.264892578125	-1.621009973431517	-8.438335354811141	5.978548363559818	118.8105276244161	51.13326915584936	-47.77540990885435	0.06652360515021459	-0.53125	1.031746031746032
2244.171142578125	-1.66067502280091	-8.336928603307348	5.863420647437924	117.8332575829549	49.00518680694028	-47.05425002576283	0.06652360515021459	-0.53125	1.031746031746032
2248.077392578125	-1.476826712949558	-8.45997920761798	5.845936601078276	117.5482066496345	47.61312976607414	-45.96689378337309	0.07296137339055794	-0.515625	1.034013605442177
2251.983642578125	-1.620492798611296	-8.458542546761363	5.926830881537754	117.9582802544617	48.06146183572953	-44.16461448089396	0.07296137339055794	-0.515625	1.034013605442177
2255.889892578125	-1.477796415737472	-8.358959409580001	5.942906879869645	117.6656901188116	47.39374815716261	-43.08465245617381	0.07296137339055794	-0.515625	1.034013605442177
2259.796142578125	-1.735134344015712	-8.336184010095199	6.166495626060956	116.638238174516	45.93646289346349	-43.45034087263856	0.05150214592274678	-0.4776785714285714	1.043083900226757
2263.702392578125	-1.641581896491997	-8.165402362853262	5.99492434307729	116.370306904704	45.66661841410573	-41.65443990216209	0.05150214592274678	-0.4776785714285714	1.043083900226757
2267.608642578125	-1.701792606138032	-8.003184094140641	5.893546328088936	115.7282696993975	44.25979602085285	-40.93378796190403	0.05150214592274678	-0.4776785714285714	1.043083900226757
2271.514892578125	-1.905645158876107	-7.87993344740114	5.870638336590276	115.4574329995786	42.88558773901647	-39.48661369221874	0.05150214592274678	-0.4776785714285714	1.043083900226757
2275.421142578125	-1.907802747579215	-7.819305810908048	6.086397206901074	114.1298517173031	41.48493215904967	-38.77973430163293	0.03862660944206009	-0.4508928571428571	1.063492063492063
2279.327392578125	-1.98975306405951	-7.626567115824053	6.118163548808134	113.4878145119966	40.0781097657968	-38.05908236137487	0.03862660944206009	-0.4508928571428571	1.063492063492063
2283.233642578125	-2.020300845779513	-7.565655577400792	6.111717231012519	112.5285283052018	37.60570449476786	-36.974407342153	0.03862660944206009	-0.4508928571428571	1.063492063492063
2287.139892578125	-1.990470240079738	-7.273024590528498	6.189881150830917	111.2444538945889	34.79205970826212	-35.53310346163689	0.0407725321888412	-0.4174107142857142	1.061224489795918
2291.046142578125	-1.991676307922206	-7.283113539951082	6.310487935077684	110.974481365928	31.9513159427975	-34.43095878390798	0.0407725321888412	-0.4174107142857142	1.061224489795918
2294.952392578125	-2.175310475074559	-7.180267097269457	6.306557711537571	109.6373196224739	28.70410443902308	-34.42522990373931	0.0407725321888412	-0.4174107142857142	1.061224489795918
2298.858642578125	-2.280458992999268	-7.21961965249425	6.617327871355397	108.6751279856722	25.12733536551553	-33.68928158530862	0.0407725321888412	-0.4174107142857142	1.061224489795918
2302.764892578125	-1.934200968223744	-7.263486273146047	6.68540294482336	108.3984804258396	21.5443994787219	-32.93956071720568	0.04506437768240344	-0.4040178571428571	1.09750566893424
2306.671142578125	-2.077709477182445	-7.019626945632218	6.75053955497924	108.1000794301757	18.66795819519775	-32.55705209406789	0.04506437768240344	-0.4040178571428571	1.09750566893424
2310.577392578125	-1.894224805876562	-7.041663812547297	6.769419363166356	107.8092176368416	15.06717354937435	-32.16714925326051	0.04506437768240344	-0.4040178571428571	1.09750566893424
2314.483642578125	-1.925483702974368	-7.142361324586419	6.834084583151079	107.8631691408408	14.03420478301479	-31.07660384486945	0.03862660944206009	-0.3616071428571428	1.079365079365079
2318.389892578125	-1.547784961828303	-6.883512049371618	6.819312509360937	108.2456784498231	12.98030385098241	-30.33899018893782	0.03862660944206009	-0.3616071428571428	1.079365079365079
2322.296142578125	-1.610828011700703	-6.882881618872893	7.001168517009042	107.5639039740189	12.62429898311887	-30.34906562977527	0.03862660944206009	-0.3616071428571428	1.079365079365079
2326.202392578125	-1.415815957274634	-6.753518608104022	6.887718176443053	107.2362103401939	11.17869566516344	-30.34116346927222	0.03862660944206009	-0.3616071428571428	1.079365079365079
2330.108642578125	-1.44955971776647	-6.753181170499104	7.200869735830661	108.3004941249803	10.4807996009946	-29.59347437250315	0.05579399141630902	-0.3415178571428572	1.115646258503401
2334.014892578125	-1.254101196015133	-6.694529695110558	7.042772662737812	108.0145790205019	10.5552780437567	-28.16108853815703	0.05579399141630902	-0.3415178571428572	1.115646258503401
2337.921142578125	-1.039501062815488	-6.545160544927401	7.011330771344761	108.0363324563332	9.848783440487219	-27.79387629319188	0.05579399141630902	-0.3415178571428572	1.115646258503401
2341.827392578125	-1.080863092063731	-6.64575702564502	7.065901043107765	107.3470187781993	10.21712193492292	-27.81134595169891	0.04721030042918455	-0.2924107142857142	1.126984126984127
2345.733642578125	-0.948449640398935	-6.414757927838436	7.08986199907717	107.3499242082061	11.32148573740154	-27.46261925090774	0.04721030042918455	-0.2924107142857142	1.126984126984127
2349.639892578125	-0.8580689290773551	-6.344954664244582	7.235464336306943	107.7051821378761	14.26932205704474	-26.40585576486329	0.04721030042918455	-0.2924107142857142	1.126984126984127
2353.546142578125	-0.8562810395621393	-6.294467492634683	7.056675384785355	107.3899743952366	15.77463846537555	-25.3480763931519	0.04721030042918455	-0.2924107142857142	1.126984126984127
2357.452392578125	-0.8795176250752413	-6.294235126779552	7.339517609564946	106.7035661471095	17.24734076228987	-25.01681935086776	0.0407725321888412	-0.2678571428571428	1.129251700680272
2361.358642578125	-0.9806034923614201	-6.202315177197598	7.244022705529762	107.4451029869266	18.77910446875108	-23.21874510005689	0.0407725321888412	-0.2678571428571428	1.129251700680272
2365.264892578125	-1.102360273201013	-6.009178417470012	7.174802830305336	106.4234619026448	19.5305468100092	-22.88698011493928	0.0407725321888412	-0.2678571428571428	1.129251700680272
2369.171142578125	-0.7773953879344798	-6.093236147130757	7.331375528141853	106.7691393711362	20.63182720584478	-22.53136713931199	0.05150214592274678	-0.2589285714285714	1.138321995464853
2373.077392578125	-0.9708842008978668	-5.899382067081932	7.292501722439732	107.8003609165967	21.72694078839428	-22.16198161401244	0.05150214592274678	-0.2589285714285714	1.138321995464853
2376.983642578125	-0.9905732903785177	-5.919387196389145	7.220594343974229	107.8099413777752	23.57349671220191	-21.46083110359529	0.05150214592274678	-0.2589285714285714	1.138321995464853
2380.889892578125	-0.8580729695056381	-6.001520280405955	7.235868379135241	106.7381183906591	24.99573613866998	-22.21591441803395	0.05150214592274678	-0.2589285714285714	1.138321995464853
2384.796142578125	-0.9180291321698456	-5.75849647635507	7.109035665964152	107.8035792631363	28.33527484423625	-20.42943943656093	0.03862660944206009	-0.1919642857142857	1.149659863945578
2388.702392578125	-0.6526264678099304	-5.75104949289766	7.099381474870587	107.0887425480061	29.77227962309104	-20.81781844886791	0.03862660944206009	-0.1919642857142857	1.149659863945578
2392.608642578125	-0.8398586363482725	-5.880490302525406	7.455251389929285	106.4098735022088	30.52063855770612	-20.47916718891418	0.03862660944206009	-0.1919642857142857	1.149659863945578
2396.514892578125	-1.042323301971146	-5.545132322535844	7.293554686910477	107.4657539135075	32.01362133946477	-19.39384271785831	0.006437768240343348	-0.171875	1.145124716553288
2400.421142578125	-1.148215258699922	-5.523871382766536	7.678668727135019	106.4658662650569	32.05856907745341	-18.69486548777556	0.006437768240343348	-0.171875	1.145124716553288
2404.327392578125	-1.277869097847446	-5.472069793870012	7.378746519438508	106.1088799930708	32.04380372506668	-19.06156978990724	0.006437768240343348	-0.171875	1.145124716553288
2408.233642578125	-1.186508582667245	-5.351771277809692	7.426368470806167	106.4763108973935	32.43858951763279	-18.33874456931479	0.006437768240343348	-0.171875	1.145124716553288
2412.139892578125	-1.3397363830895	-5.410845060411529	7.443026064052077	106.5160481678913	31.38777199224346	-17.60801718821929	0.0128755364806867	-0.1540178571428571	1.151927437641723
2416.046142578125	-1.296883435804841	-5.269859448470235	7.239363988647343	106.8797094710491	32.14472946595918	-16.88888907646163	0.0128755364806867	-0.1540178571428571	1.151927437641723
2419.952392578125	-1.164589176774393	-5.008556128434278	7.275244208051521	105.5057158871041	31.05269929005272	-17.2651608765973	0.0128755364806867	-0.1540178571428571	1.151927437641723
2423.858642578125	-1.134679782723099	-4.847239060758628	7.34552929271812	105.8693771902619	31.80965676376844	-16.54603276483964	0.008583690987124463	-0.1227678571428571	1.160997732426304
2427.764892578125	-0.972225623087814	-5.010479763971143	7.42664394143446	105.1971831756363	33.30020781971253	-15.85495769525994	0.008583690987124463	-0.1227678571428571	1.160997732426304
2431.671142578125	-1.381599425444831	-4.844769864331411	7.547697646523956	105.1971831756363	33.30020781971253	-15.85495769525994	0.008583690987124463	-0.1227678571428571	1.160997732426304
2435.577392578125	-0.9624073411313279	-4.535830472043233	7.465223909051145	104.8677611994953	34.78767546901356	-15.15699635084412	0.008583690987124463	-0.1227678571428571	1.160997732426304
2439.483642578125	-0.9825913830766432	-4.404315500310648	7.44281177705207	103.8536593175432	34.81477444797245	-14.81783714805692	-0.01072961373390558	-0.09151785714285714	1.154195011337869
2443.389892578125	-1.02207057274502	-4.444324748818006	7.309098090828497	103.1852349040825	35.94315382276691	-14.12306496964242	-0.01072961373390558	-0.09151785714285714	1.154195011337869
2447.296142578125	-1.08732979753063	-4.45377316667116	7.712571589797712	103.2061241687558	36.70319470312567	-13.41082313272089	-0.01072961373390558	-0.09151785714285714	1.154195011337869
2451.202392578125	-1.441276798557514	-4.561344807772001	7.392985978200348	102.5310247241234	37.08938195659114	-13.06847476393237	-0.02145922746781116	-0.05133928571428571	1.18140589569161
2455.108642578125	-1.268675062060679	-4.462060724126869	7.479751104027136	100.8171645317007	37.10479898980633	-13.10290613811297	-0.02145922746781116	-0.05133928571428571	1.18140589569161
2459.014892578125	-1.564235606811291	-4.21668087625512	7.443968844394391	100.8598072322053	37.15834526689562	-12.02345205622629	-0.02145922746781116	-0.05133928571428571	1.18140589569161
2462.921142578125	-1.615581575575621	-4.347480547880608	7.476524904500902	100.1638185228996	36.78449164000232	-12.3933455243593	-0.02145922746781116	-0.05133928571428571	1.18140589569161
2466.827392578125	-1.739912109231468	-4.073509969816777	7.664680310901904	99.87790341842114	36.85897008276441	-10.96095969001318	-0.02789699570815451	-0.04017857142857142	1.147392290249433
2470.733642578125	-1.512016905537838	-4.025283871348663	7.324139533375647	98.86089610646221	35.78170525924467	-10.97052718801716	-0.02789699570815451	-0.04017857142857142	1.147392290249433
2474.639892578125	-1.73801310793847	-3.871508757809505	7.474780181602138	97.50488635718362	34.34535216121835	-10.98328385202247	-0.02789699570815451	-0.04017857142857142	1.147392290249433
2478.546142578125	-1.798536950776435	-3.860802509280115	7.404715485806831	97.89784029850252	33.67147166936535	-9.88954927763008	-0.03004291845493562	-0.008928571428571428	1.165532879818594
2482.452392578125	-1.910800704136321	-3.829376841443486	7.406601025877029	96.19238347956765	31.49600985665308	-10.26161602609748	-0.03004291845493562	-0.008928571428571428	1.165532879818594
2486.358642578125	-1.654790056549039	-3.660219776202187	7.315740348781405	95.55788547659095	29.36484410110096	-9.533569868169838	-0.03004291845493562	-0.008928571428571428	1.165532879818594
2490.264892578125	-1.554924398604318	-3.570309341872543	7.533256186962396	94.90163403778297	27.94017294881833	-9.172735955207344	-0.03004291845493562	-0.008928571428571428	1.165532879818594
2494.171142578125	-1.594617730971692	-3.59011442875089	7.420956770638584	94.60613847212592	26.1680954677728	-8.441500631278375	-0.01716738197424893	0.01339285714285714	1.170068027210884
2498.077392578125	-1.614084596896779	-3.307091477263356	7.326827036616725	93.60248122251049	26.57521488691106	-7.746220510030412	-0.01716738197424893	0.01339285714285714	1.170068027210884
2501.983642578125	-1.441307101769636	-3.50073844413382	7.396016299412579	92.21427340506396	25.46533595197483	-8.482310337461634	-0.01716738197424893	0.01339285714285714	1.170068027210884
2505.889892578125	-1.339542442531918	-3.208826797796904	7.423632008293803	91.88862103008783	26.59063192012625	-7.780651884211017	-0.04721030042918455	0.02901785714285714	1.163265306122449
2509.796142578125	-1.421329121666752	-3.288817011813636	7.43903461565482	90.51462744614284	25.49860174421979	-8.15692368434668	-0.04721030042918455	0.02901785714285714	1.163265306122449
2513.702392578125	-1.381565081804426	-3.218507581505189	7.544263282483428	89.5109701965274	25.90572116335805	-7.461643563098717	-0.04721030042918455	0.02901785714285714	1.163265306122449
2517.608642578125	-1.22620191503462	-2.846323839435513	7.314069054482355	88.82919572072322	25.54971629549451	-7.471719003936165	-0.04721030042918455	0.02901785714285714	1.163265306122449
2521.514892578125	-1.359643655697432	-3.047009624049086	7.392936998314632	88.16077130726254	26.67809567028898	-6.776946825521668	-0.0407725321888412	0.08258928571428571	1.17233560090703
2525.421142578125	-1.361591142129825	-3.168202270396884	7.587685641553966	87.15711405764711	27.08521508942724	-6.081666704273704	-0.0407725321888412	0.08258928571428571	1.17233560090703
2529.327392578125	-1.411122958595101	-2.95558574011102	7.438826471754957	86.13170337220036	28.19882911183497	-5.753598827990889	-0.0407725321888412	0.08258928571428571	1.17233560090703
2533.233642578125	-1.371179119674182	-3.016591239106289	7.526075232724331	85.43948426405956	27.46280380379206	-6.119795187289104	-0.04506437768240344	0.1026785714285714	1.165532879818594
2537.139892578125	-1.331103966834067	-3.128103101745801	7.600192601774041	85.82866860421355	27.15109499308868	-5.029757721731508	-0.04506437768240344	0.1026785714285714	1.165532879818594
2541.046142578125	-1.259470925203205	-2.795486098828776	7.579745581545022	85.16487796307578	26.45076720310529	-4.676318026438603	-0.04506437768240344	0.1026785714285714	1.165532879818594
2544.952392578125	-1.240725275726629	-2.886582646232633	7.745996960417963	84.13365641761533	25.35565362055578	-5.045703551738144	-0.04506437768240344	0.1026785714285714	1.165532879818594
2548.858642578125	-1.333170645900808	-2.71394102081372	7.806860508448148	83.79755941030254	26.10092914852782	-4.700166016948293	-0.06652360515021459	0.1116071428571428	1.163265306122449
2552.764892578125	-1.382120640693335	-2.460926268340542	7.599819171374317	83.44261439716531	28.65706308224796	-4.373114026332411	-0.06652360515021459	0.1116071428571428	1.163265306122449
2556.671142578125	-1.137885862565639	-2.534075686828889	7.666137276972086	83.10274778868764	29.76451029136962	-4.031273600377354	-0.06652360515021459	0.1116071428571428	1.163265306122449
2560.577392578125	-1.199761228664259	-2.291032690743661	7.73122490724225	82.07356750207603	31.24029599492697	-3.706902832929332	-0.08369098712446352	0.1584821428571428	1.160997732426304
