Time Stamp	Accelerometer X	Accelerometer Y	Accelerometer Z	Gyroscope X	Gyroscope Y	Gyroscope Z	VSenseReg	VSenseBatt	Magnetometer X	Magnetometer Y	Magnetometer Z
1458.038330078125	-6.538747779324916	-32.49586474288183	6.125222067508521	-59.96929633449548	129.972357974965	1.834063253384859	3482.276923076923	3638.095238095238	0.2192307692307692	0.5850253807106599	0.1062416998671979
1477.569580078125	-5.90285662225932	-33.38273019613347	5.714337774067931	1.087378386972177	2.983477821395898	0.408248050361058	3491.015384615384	3629.304029304029	0.2243589743589744	0.5862944162436548	0.100929614873838
1497.100830078125	-5.740732875101723	-32.73262902691649	5.926712489827676	4.559720261289387	3.065725822062992	-0.01845738899728722	3485.189743589744	3629.304029304029	0.2346153846153846	0.583756345177665	0.1128818061088977
1516.632080078125	-6.508446875542473	-32.25569942493286	5.155312445752738	3.822501114560759	0.4630795281482674	-0.4960764653713837	3507.035897435897	3632.234432234432	0.2217948717948718	0.58248730964467	0.1049136786188579
1536.163330078125	-5.508727576260107	-32.8038774556696	5.127242373989384	4.5169694894242	0.4795291282816863	-0.5814175532430527	3495.384615384615	3632.234432234432	0.2205128205128205	0.581218274111675	0.1035856573705179
1555.694580078125	-5.312009312369422	-32.64871674835304	4.799068763057814	4.166810249180651	0.09869760080051343	-0.5120465272300142	3477.907692307692	3630.769230769231	0.2333333333333333	0.583756345177665	0.1035856573705179
1575.225830078125	-5.61711252528461	-32.81440865715485	6.28874747153904	4.156235058245579	1.611174908578305	-1.368711994325023	3505.579487179487	3630.769230769231	0.2192307692307692	0.5774111675126903	0.09030544488711818
1594.757080078125	-5.898455284252567	-33.38717554752029	6.154471574743337	4.511681893956665	1.235767782170582	-1.009750286790557	3482.276923076923	3627.838827838828	0.2358974358974359	0.5799492385786802	0.09827357237715803
1614.288330078125	-5.659109292301783	-32.8119919224675	6.089070769821717	4.519894542236029	0.8521358556961498	-0.6081180353202567	3482.276923076923	3630.769230769231	0.2294871794871795	0.581218274111675	0.100929614873838
1633.819580078125	-6.37957877656346	-33.45816389720936	6.042122343654008	4.883554026226479	0.09309680281399428	0.1524759236845096	3448.779487179487	3621.978021978022	0.2307692307692308	0.58248730964467	0.09428950863213811
1653.350830078125	-6.098405299826533	-33.46214910871366	6.159470017346811	3.810800903313445	-1.027347381509586	-0.389274537062568	3474.994871794872	3630.769230769231	0.2217948717948718	0.5786802030456852	0.09827357237715803
1672.882080078125	-5.543275925112003	-33.4243682387138	5.672407488799672	3.820138571905051	1.591924909451627	-0.9511096809960917	3485.189743589744	3627.838827838828	0.2256410256410256	0.581218274111675	0.099601593625498
1692.413330078125	-5.632871162064037	-33.41387704939225	4.71288379359633	4.539807401762707	1.958930838879571	-0.3132877121587719	3469.169230769231	3624.908424908425	0.2333333333333333	0.5774111675126903	0.09030544488711818
1711.944580078125	-6.222764335742681	-32.53346955936143	5.723566425731884	4.170297812148601	1.9727564369328	-1.02048070700913	3477.907692307692	3629.304029304029	0.2358974358974359	0.5710659898477157	0.09296148738379813
1731.475830078125	-6.629527991894151	-33.52263826664844	5.047200810584879	3.823063624716879	1.96453163686609	-0.9778101630732958	3493.928205128205	3629.304029304029	0.2384615384615385	0.5761421319796954	0.1035856573705179
1751.007080078125	-6.025138103521933	-32.648456669289	5.486189647806778	4.522819595047857	1.224742583110613	-0.6348185173974605	3479.364102564102	3627.838827838828	0.2397435897435898	0.5799492385786802	0.09694555112881806
1770.538330078125	-6.030401241977562	-33.48929474560266	4.959875802243881	4.514044436612372	0.1069224008672229	-0.5547170711658488	3472.082051282051	3627.838827838828	0.2205128205128205	0.5774111675126903	0.1062416998671979
1790.069580078125	-6.180228943444962	-32.88258415173597	5.977105655503888	4.161522653713115	0.8549362546894093	-0.9403792607775185	3493.928205128205	3630.769230769231	0.2243589743589744	0.5875634517766497	0.09296148738379813
1809.600830078125	-6.663553104759233	-33.45134982573163	5.644689524076856	3.831276272996244	1.580899710391658	-0.5761779116029954	3493.928205128205	3629.304029304029	0.2230769230769231	0.58248730964467	0.09561752988047809
1829.132080078125	-5.662848890678151	-33.46206108195352	5.715110932184921	3.820138571905051	1.591924909451627	-0.9511096809960917	3479.364102564102	3624.908424908425	0.2333333333333333	0.5736040609137055	0.1075697211155378
1848.663330078125	-5.711139878830857	-32.72251795315007	4.88601211691431	3.834201325808073	1.953506437806121	-0.6028783936801994	3496.841025641026	3632.234432234432	0.2243589743589744	0.5862944162436548	0.09428950863213811
1868.194580078125	-5.952978936365886	-33.06441435119353	4.702106363411399	4.8976167801295	0.4546783311684887	0.5007072110004021	3461.887179487179	3624.908424908425	0.2282051282051282	0.58248730964467	0.100929614873838
1887.725830078125	-5.780636698171629	-32.96309539638511	5.93633018283712	3.830713762840123	0.07944760167383495	-0.09444421390108332	3499.753846153846	3624.908424908425	0.2192307692307692	0.5774111675126903	0.102257636122178
1907.257080078125	-6.663599272640422	-32.33591858078702	5.640072735957885	4.558595240977145	0.06282160462734679	0.9450100064065369	3474.994871794872	3629.304029304029	0.2243589743589744	0.5850253807106599	0.09296148738379813
1926.788330078125	-5.833667588793147	-32.37261111993431	4.633241120685304	5.241925914749393	0.09029640382073473	0.4847371491417714	3480.820512820513	3629.304029304029	0.2166666666666667	0.581218274111675	0.100929614873838
1946.319580078125	-6.347031035896452	-32.83565249989843	5.296896410354901	4.903466885753157	1.199891785997415	0.4473062468459942	3482.276923076923	3629.304029304029	0.2243589743589744	0.5799492385786802	0.102257636122178
1965.850830078125	-6.271932513637992	-32.60073277661024	4.806748636200789	4.20371091542218	1.939680839752893	0.1043146011701591	3486.646153846154	3627.838827838828	0.2256410256410256	0.5786802030456852	0.09827357237715803
1985.382080078125	-6.014057812036397	-33.35195545599709	6.594218796360247	3.839488921275609	1.197267783917225	-0.1745456601326951	3501.210256410256	3626.373626373626	0.2474358974358975	0.5888324873096447	0.09428950863213811
2004.913330078125	-6.744930458859494	-32.98762023655191	5.506954114050671	4.55038259269778	0.4464535311017792	0.5433777549362365	3488.102564102564	3629.304029304029	0.2320512820512821	0.5685279187817258	0.09827357237715803
2024.444580078125	-4.988362000509694	-32.84790822563906	5.163799949030659	5.264763827087901	1.56969811441862	0.7528669902260522	3476.451282051281	3629.304029304029	0.2294871794871795	0.5723350253807106	0.1062416998671979
2043.975830078125	-5.458282086985213	-32.93021201522185	6.171791301478725	4.556232698321437	1.191666985930706	0.4899767907818287	3480.820512820513	3629.304029304029	0.2294871794871795	0.5697969543147208	0.09030544488711818
2063.507080078125	-5.231709208830254	-32.41905062215837	4.829079116974636	4.555670188165317	-0.3097851227871167	0.9717104884837408	3482.276923076923	3629.304029304029	0.2256410256410256	0.5862944162436548	0.100929614873838
2083.038330078125	-5.635379616942013	-33.14211274073472	4.462038305798808	4.196735789486282	-1.80843683251168	1.121182960728391	3480.820512820513	3630.769230769231	0.2230769230769231	0.5736040609137055	0.09428950863213811
2102.569580078125	-6.302094913776865	-33.18719182939305	5.79050862231349	4.214286106357252	0.4272035319751008	0.9609800682651676	3482.276923076923	3629.304029304029	0.2205128205128205	0.5748730964467005	0.1062416998671979
2122.100830078125	-6.146603952216858	-32.95346846979943	5.339604778314145	3.845339026899266	1.942481238746152	-0.2279466242871029	3483.733333333333	3621.978021978022	0.2243589743589744	0.5875634517766497	0.08764940239043824
2141.632080078125	-5.549523978366347	-32.8026730895423	5.047602163365355	4.206635968234009	2.312287567167356	0.07761411909295513	3492.471794871794	3629.304029304029	0.2282051282051282	0.5774111675126903	0.100929614873838
2161.163330078125	-5.828896907736874	-33.30050643087807	5.110309226312491	4.194935756986695	0.8218606575095022	0.1844160474017708	3495.384615384615	3629.304029304029	0.2166666666666667	0.5685279187817258	0.09561752988047809
2180.694580078125	-5.546523066089014	-33.3057040109424	5.347693391098586	4.194373246830573	-0.6795914512083205	0.6661497451036829	3469.169230769231	3626.373626373626	0.2230769230769231	0.5774111675126903	0.09561752988047809
2200.225830078125	-5.542721910537727	-32.8095431780492	5.727808946227345	4.163885196368823	-0.27390912661395	-0.4853460451528103	3505.579487179487	3630.769230769231	0.2256410256410256	0.5723350253807106	0.1035856573705179
2219.757080078125	-6.663737776283991	-32.98962484595317	5.626222371600965	4.539244891606587	0.4574787301617483	0.1684459855431402	3477.907692307692	3630.769230769231	0.2282051282051282	0.581218274111675	0.1075697211155378
2239.288330078125	-6.468496884591377	-32.14066430040886	5.150311540862267	4.208998510889716	1.183442185863997	0.5326473347176632	3485.189743589744	3630.769230769231	0.2243589743589744	0.5786802030456852	0.099601593625498
2258.819580078125	-5.70378379642796	-33.11456298099238	5.621620357203973	3.851189132522923	2.687694693575079	-0.2813475884415107	3488.102564102564	3626.373626373626	0.2166666666666667	0.5723350253807106	0.102257636122178
2278.350830078125	-6.186738614692713	-32.60677861454497	5.326138530728725	3.837126378619901	2.326113165220584	-0.6295788757574032	3495.384615384615	3632.234432234432	0.2282051282051282	0.5888324873096447	0.09561752988047809
2297.882080078125	-5.861306144760315	-33.26931156302285	5.869385523968516	3.823063624716879	1.96453163686609	-0.9778101630732958	3505.579487179487	3630.769230769231	0.2256410256410256	0.583756345177665	0.100929614873838
2317.413330078125	-5.705091886395002	-31.84401104089489	5.490811360499746	4.186723108707329	1.205492583983935	-0.2172162040685295	3477.907692307692	3623.443223443223	0.2282051282051282	0.5736040609137055	0.09296148738379813
2336.944580078125	-6.262668158812587	-32.76393592883005	5.733184118741328	4.197860809798523	1.194467384923966	0.1577155653245669	3469.169230769231	3627.838827838828	0.2230769230769231	0.5723350253807106	0.09428950863213811
2356.475830078125	-5.543368260874384	-33.19350574882456	5.663173912561726	2.795423816324739	2.301438765020456	-0.5015672439498996	3493.928205128205	3629.304029304029	0.2269230769230769	0.5710659898477157	0.09561752988047809
2376.007080078125	-5.705907518962689	-32.80472571354	5.409248103731226	3.145583056568288	2.682270292501629	-0.5709382699629381	3480.820512820513	3630.769230769231	0.2230769230769231	0.5761421319796954	0.09163346613545816
2395.538330078125	-5.579470928393	-32.92781128539998	6.052907160699928	3.84005143143173	2.698719892635048	-0.6562793578346071	3482.276923076923	3630.769230769231	0.2243589743589744	0.5774111675126903	0.09827357237715803
2415.069580078125	-6.142371896441134	-32.53466592305599	5.76281035588665	4.192573214330986	1.950706038812862	-0.2706171682229373	3454.605128205128	3620.51282051282	0.2153846153846154	0.5697969543147208	0.1062416998671979
2434.600830078125	-6.583345336982443	-32.99082120964773	5.665466301755733	2.443464543581602	4.550904727560465	-1.368963131263481	3493.928205128205	3632.234432234432	0.2294871794871795	0.5850253807106599	0.09296148738379813
2454.132080078125	-5.908165928596139	-33.10813702750252	5.183407140386061	2.059892200064474	4.2031487972592	-2.424387413429733	3488.102564102564	3624.908424908425	0.2141025641025641	0.5799492385786802	0.099601593625498
2473.663330078125	-6.02559978233383	-32.49414421984283	5.440021766617051	2.073954953967495	4.564730325613693	-2.07615612611384	3488.102564102564	3627.838827838828	0.2243589743589744	0.5901015228426395	0.1035856573705179
2493.194580078125	-5.256393020401278	-33.70335074170239	6.360697959872107	2.406563877340073	2.709921488608086	-1.985324259663655	3464.8	3623.443223443223	0.2217948717948718	0.5748730964467005	0.09428950863213811
2512.725830078125	-6.663630051227882	-32.2589644174906	5.636994877211903	3.753874875514013	3.159528212529263	-3.682433995056583	3479.364102564102	3621.978021978022	0.2217948717948718	0.5723350253807106	0.1035856573705179
2532.257080078125	-6.426823292742532	-32.33506232048389	5.31767072574678	4.796139947965296	4.685654721447214	-4.292179324565998	3470.625641025641	3620.51282051282	0.2243589743589744	0.5710659898477157	0.09561752988047809
2551.788330078125	-6.461587091706647	-32.41687396045321	5.841290829335194	5.466532888146765	7.354452209721754	-6.064150864550481	3461.887179487179	3614.652014652014	0.2205128205128205	0.5799492385786802	0.102257636122178
2571.319580078125	-6.185430524725671	-32.87733055464246	5.456947527432955	7.178065880467275	8.546471989478597	-7.482400338640554	3476.451282051281	3614.652014652014	0.2217948717948718	0.5736040609137055	0.09694555112881806
2590.850830078125	-6.266807878825932	-33.41360096546273	5.319212117406768	8.209193251827365	10.08362369745652	-8.467077437543065	3467.71282051282	3611.721611721612	0.2205128205128205	0.58248730964467	0.1035856573705179
2610.382080078125	-6.303464560918828	-33.76273156270275	5.653543908117297	9.578779652183691	10.51118002325776	-9.414323634149801	3489.558974358974	3608.791208791209	0.2333333333333333	0.5862944162436548	0.1062416998671979
2629.913330078125	-6.332734382021366	-32.5808613510815	6.726561797863473	13.74851495417617	10.98248435147274	-9.953070643457018	3469.169230769231	3605.860805860806	0.2217948717948718	0.5761421319796954	0.1062416998671979
2649.444580078125	-7.369618210089714	-33.112070223194	7.038178991028657	15.44542268243754	10.31147049415726	-11.23781770716107	3451.692307692307	3600	0.2307692307692308	0.5647208121827411	0.09694555112881806
2668.975830078125	-7.40942969739724	-33.57339908255186	7.057030260276046	16.78452103233211	11.14470914455287	-13.3365596940243	3470.625641025641	3598.534798534799	0.2243589743589744	0.565989847715736	0.1049136786188579
2688.507080078125	-5.973630752979674	-33.42970986256745	6.636924702032493	18.83271302114927	13.85743103215422	-15.65414517914522	3553.641025641025	3701.098901098901	0.2269230769230769	0.567258883248731	0.1102257636122178
2708.038330078125	-6.247124972145379	-33.62578839351778	7.287502785462164	20.88270504246601	13.93985542973438	-17.03496375093951	3531.794871794872	3692.307692307692	0.2320512820512821	0.5710659898477157	0.1088977423638778
2727.569580078125	-6.479422667567865	-32.82347541344876	8.057733243213628	22.5843378560388	11.01115080981219	-17.40964438339415	3533.251282051282	3692.307692307692	0.2423076923076923	0.5697969543147208	0.1301460823373174
2747.100830078125	-6.042742839977199	-33.63221434700764	7.725716002280077	25.29426012863317	8.140196187270036	-19.03713195583558	3537.620512820513	3692.307692307692	0.2294871794871795	0.581218274111675	0.1181938911022576
2766.632080078125	-6.923935645667052	-33.4299019209532	7.606435433294798	27.34312712963767	5.219716367414554	-19.45448313222605	3534.707692307692	3692.307692307692	0.2435897435897436	0.5736040609137055	0.1288180610889774
2786.163330078125	-6.681419459207906	-32.78099711543078	7.858054079209309	26.92029157722331	4.159822579464268	-21.58130175841719	3537.620512820513	3682.051282051282	0.2346153846153846	0.5685279187817258	0.1328021248339973
2805.694580078125	-7.439176586605406	-32.19873933983623	8.082341339459502	28.63069954923158	2.348938141785466	-22.03608383710343	3518.687179487179	3682.051282051282	0.2397435897435898	0.5647208121827411	0.1301460823373174
2825.225830078125	-5.478102881737587	-32.37326993559888	8.18971182624133	29.28590471519778	1.653249884269866	-23.19281926899999	3533.251282051282	3679.120879120879	0.25	0.5571065989847716	0.1301460823373174
2844.757080078125	-6.601904209648964	-31.58899982517762	7.809579035103593	32.05972814152749	-1.656462660046568	-22.54401574300563	3515.774358974359	3679.120879120879	0.2487179487179487	0.5444162436548223	0.151394422310757
2864.288330078125	-8.267215387323899	-31.89472784341824	9.278461267609968	33.42053938344832	-2.346726516488719	-23.41116049338076	3517.230769230769	3676.190476190476	0.2538461538461538	0.5571065989847716	0.1567065073041169
2883.819580078125	-9.50327976627972	-32.42476435913441	9.672023372028171	34.43287891559398	1.086534425741426	-25.65413531084858	3531.794871794872	3677.655677655677	0.2538461538461538	0.5558375634517766	0.1567065073041169
2903.350830078125	-10.13463108169499	-31.88863799210344	10.53689183050109	37.17261422646275	3.443099186061728	-28.03036140176396	3509.948717948718	3668.864468864469	0.2666666666666667	0.5456852791878172	0.1686586985391766
2922.882080078125	-9.926694022675202	-31.78326980632881	11.3305977324799	38.53275045619624	8.386037037076404	-30.79774046086953	3533.251282051282	3668.864468864469	0.2679487179487179	0.5545685279187816	0.1699867197875166
2942.413330078125	-11.12431656146546	-32.42751719599681	11.56834385345453	41.60036960512617	11.14548372299782	-33.99320111658414	3505.579487179487	3657.142857142857	0.2602564102564103	0.5520304568527918	0.1726427622841965
2961.944580078125	-10.01916705755473	-31.5775643487928	10.08329424452726	47.0886153852992	16.97643342588181	-38.82575474464652	3492.471794871794	3648.351648351648	0.2807692307692308	0.5380710659898477	0.1885790172642762
2981.475830078125	-10.21345381303609	-29.81210395652586	10.65461869639139	46.656329662262	20.43192116314496	-42.77270623333648	3507.035897435897	3636.630036630037	0.2833333333333333	0.5279187817258882	0.199203187250996
3001.007080078125	-8.394128430427465	-31.58039182372979	12.58715695725346	47.62479340223023	18.27608119415815	-44.61517381964625	3498.297435897436	3638.095238095238	0.2705128205128205	0.5203045685279187	0.2031872509960159
3020.538330078125	-7.791339028603157	-30.70459373495696	12.86609713968431	49.00450498539674	8.555054287289128	-41.8420528450237	3496.841025641026	3646.886446886447	0.2858974358974359	0.5253807106598984	0.2191235059760956
3040.069580078125	-7.778242739639004	-30.44859021757999	14.17572603609959	50.04170746644292	-3.431888182253326	-38.11619489521591	3498.297435897436	3651.282051282051	0.2833333333333333	0.5215736040609137	0.2164674634794156
3059.600830078125	-10.41802000115728	-29.34549210652346	14.19799988427251	51.43311926085675	-11.6624881794645	-35.44987584890218	3511.405128205128	3652.747252747252	0.3012820512820513	0.5126903553299492	0.2297476759628154
3079.132080078125	-13.5722687389274	-29.93508549676024	14.77312610725968	51.47350749006623	-7.947446104379833	-35.34194890028113	3515.774358974359	3654.212454212454	0.2923076923076923	0.5101522842639593	0.2390438247011952
3098.663330078125	-13.09934774017455	-28.35581262857755	14.06522598254485	52.53501040985685	0.3186770951783678	-37.5570982153595	3496.841025641026	3649.81684981685	0.3102564102564103	0.4911167512690355	0.247011952191235
3118.194580078125	-12.49849738936021	-27.6319022521308	14.15026106397883	52.52904780220196	6.708117456524091	-39.88566525763745	3488.102564102564	3648.351648351648	0.3038461538461538	0.4936548223350253	0.2536520584329349
3137.725830078125	-13.13791269468996	-26.93378510144007	14.2087305310045	52.13782532056159	8.24544556141508	-41.82445548897591	3499.753846153846	3638.095238095238	0.3153846153846154	0.4847715736040609	0.2669322709163347
3157.257080078125	-11.92063802780661	-27.42477097653071	15.93619721933929	51.43165673445083	6.738569051623808	-41.63231247279543	3482.276923076923	3638.095238095238	0.3192307692307692	0.483502538071066	0.2629482071713147
3176.788330078125	-11.48140357745678	-26.62070546369173	15.85964225432223	51.08914763233053	4.47265348895038	-40.67957549761017	3488.102564102564	3641.025641025641	0.3307692307692308	0.4708121827411167	0.2855245683930943
3196.319580078125	-11.75877589864242	-26.12055941929423	16.12241013575819	52.13501276978098	0.738185017825967	-39.41578700046635	3476.451282051281	3645.421245421245	0.3333333333333333	0.4606598984771573	0.2868525896414342
3215.850830078125	-12.47205858273223	-25.73552852374814	16.79414172677725	51.44346944772937	1.094342145107012	-39.35714639467189	3498.297435897436	3648.351648351648	0.341025641025641	0.465736040609137	0.2855245683930943
3235.382080078125	-14.2634677865148	-24.76466676638929	17.65322134852072	51.09623526029765	1.086117345040302	-39.31447585073605	3507.035897435897	3648.351648351648	0.3358974358974359	0.4416243654822335	0.296148738379814
3254.913330078125	-14.92545857017456	-24.62220992104676	19.45414298254361	53.18076540520022	4.138370362876205	-40.53396650975488	3511.405128205128	3649.81684981685	0.3448717948717949	0.4365482233502538	0.3014608233731739
3274.444580078125	-15.84927910392451	-23.83992041272854	19.07208960754839	53.18009039301288	9.771572070333033	-42.43420081848532	3488.102564102564	3641.025641025641	0.358974358974359	0.432741116751269	0.3160690571049137
3293.975830078125	-15.72676678325596	-24.1513501642961	19.3233216744044	53.52136197278971	16.16923723174546	-44.80543840469911	3489.558974358974	3633.699633699634	0.3525641025641026	0.4276649746192893	0.3359893758300133
3313.507080078125	-14.761395772007	-23.8202210395037	19.86042279930021	54.95653705734973	20.6623919619259	-44.9215945959758	3482.276923076923	3638.095238095238	0.3564102564102564	0.4149746192893401	0.3426294820717131
3333.038330078125	-13.49338383483964	-23.16706694219658	18.66161651603626	56.38473701597385	21.40742901984175	-44.02088242769425	3486.646153846154	3638.095238095238	0.3576923076923077	0.4111675126903553	0.346613545816733
3352.569580078125	-13.07406251500456	-22.57519685984539	20.59374849954386	56.40003729222034	17.63726094945724	-42.25415052934983	3496.841025641026	3641.025641025641	0.358974358974359	0.4060913705583756	0.3598937583001328
3372.100830078125	-12.34231267843886	-22.13272573323829	21.76873215611392	58.14565840000177	13.16300342457735	-40.64737038653017	3495.384615384615	3641.025641025641	0.367948717948718	0.3781725888324873	0.3612217795484727
3391.632080078125	-12.99491660849514	-21.4597496100353	20.50833915048636	59.21964904525827	10.15169801016193	-38.68711931475456	3527.425641025641	3655.677655677655	0.3641025641025641	0.3781725888324873	0.3745019920318725
3411.163330078125	-14.59376265769409	-19.94491510034435	20.62373423059071	58.21079707608057	8.592495904064069	-36.95257867706586	3509.948717948718	3657.142857142857	0.3602564102564103	0.3629441624365482	0.3837981407702523
3430.694580078125	-15.53595739258581	-19.22252918733449	22.40426074141924	58.21315961873628	7.463650522760711	-36.49754546144115	3501.210256410256	3658.608058608058	0.3692307692307693	0.3642131979695431	0.397078353253652
3450.225830078125	-15.17737699953094	-18.76315692278145	22.26230004690656	58.5715315072592	7.46085012376745	-36.16528423598388	3515.774358974359	3655.677655677655	0.3730769230769231	0.3477157360406091	0.3930942895086321
3469.757080078125	-15.77091743582357	-19.76368108212589	22.90825641764327	59.92705515371249	7.526824921214196	-37.46076171990652	3515.774358974359	3654.212454212454	0.3730769230769231	0.3350253807106599	0.399734395750332
3489.288330078125	-15.40156453715776	-18.23826597131682	23.84354628422425	62.7195539172254	9.455656958820187	-37.9356284817792	3496.841025641026	3652.747252747252	0.3807692307692308	0.3274111675126903	0.4050464807436919
3508.819580078125	-15.40214933031949	-17.776136868685	23.78506696805059	62.00573519299141	9.833864484221172	-38.62685141477094	3508.492307692307	3654.212454212454	0.3769230769230769	0.3032994923857868	0.4156706507304117
3528.350830078125	-15.19832121272559	-16.39738788283946	24.16787872744083	63.7665440749881	8.724092705131421	-37.63530738003921	3502.666666666666	3649.81684981685	0.3948717948717949	0.3032994923857868	0.4183266932270916
3547.882080078125	-14.55301180789729	-16.83222730479296	24.69881921027069	64.824671933842	7.981503252382685	-36.96005450890611	3531.794871794872	3661.538461538461	0.3884615384615385	0.2880710659898477	0.4342629482071713
3567.413330078125	-14.31064951437545	-15.79855168278849	24.93504856245529	66.57906820005891	4.625065909746184	-35.43337581231806	3515.774358974359	3663.003663003663	0.3769230769230769	0.282994923857868	0.4342629482071713
3586.944580078125	-15.26851055028421	-13.90649665190525	25.14894497157905	67.63427100610099	3.509869729582984	-34.73142245910776	3504.123076923077	3664.468864468864	0.3884615384615385	0.2753807106598984	0.4435590969455511
3606.475830078125	-15.51051889005027	-12.82514515181846	24.94811099497323	66.96027800092034	6.10166722135081	-34.83298474577652	3530.338461538461	3664.468864468864	0.3935897435897436	0.2588832487309645	0.4568393094289509
3626.007080078125	-16.62190105792161	-13.09187993149918	25.80989420783918	67.71921003967523	7.180811008427773	-33.12376843291432	3508.492307692307	3667.399267399267	0.3846153846153846	0.2474619289340101	0.4581673306772908
3645.538330078125	-16.46673327152993	-12.05013785729323	25.32667284700702	68.08928213944546	8.668437519092366	-32.89830913576587	3518.687179487179	3673.260073260073	0.3935897435897436	0.233502538071066	0.4648074369189907
3665.069580078125	-16.61945416021856	-11.20973591356388	26.05458397814474	68.11504510459581	10.52044595710472	-32.65687977675879	3496.841025641026	3664.468864468864	0.391025641025641	0.2131979695431472	0.4701195219123506
3684.600830078125	-15.65980796623712	-10.56513241563897	26.01920337628793	68.11380758225234	14.65219555584372	-34.07538038778733	3525.969230769231	3670.32967032967	0.4	0.2030456852791878	0.4727755644090305
3704.132080078125	-15.5458059250012	-9.598736015748786	25.41940749987996	68.84922669648137	19.88513933977963	-34.53452822473985	3530.338461538461	3673.260073260073	0.3923076923076923	0.1890862944162436	0.4794156706507304
3723.663330078125	-16.65064764303733	-8.218230495916911	26.93523569626704	70.28845185416546	27.75380501481017	-35.64085229349757	3508.492307692307	3664.468864468864	0.3897435897435898	0.1713197969543147	0.4860557768924302
3743.194580078125	-16.85815380183268	-7.400956967841299	26.18461981673197	70.60688552160379	32.67206846562471	-38.28021972079563	3507.035897435897	3664.468864468864	0.3974358974358974	0.1624365482233502	0.5033200531208499
3762.725830078125	-16.42265894985922	-6.246960614488343	25.73410501407812	68.88770239116005	33.36513272106013	-37.74533619587777	3512.861538461538	3661.538461538461	0.3794871794871795	0.1484771573604061	0.49667994687915
3782.257080078125	-14.61695309220157	-5.963031223030263	26.30469077984322	68.56105607544234	28.83050119672001	-35.50760102005001	3515.774358974359	3667.399267399267	0.3948717948717949	0.1434010152284264	0.5139442231075697
3801.788330078125	-14.25968078911374	-5.233107018379741	26.03192108862632	68.19987163613884	21.32604105212415	-33.43119375699771	3514.317948717948	3667.399267399267	0.3846153846153846	0.1294416243654822	0.5139442231075697
3821.319580078125	-12.25385563365109	-3.297451963858551	26.61443663489085	68.21933448754061	13.7967301104151	-30.27266172970196	3533.251282051282	3679.120879120879	0.3692307692307693	0.1078680203045685	0.5272244355909694
3840.850830078125	-11.49171255754057	-2.845678009191718	26.82874424594307	68.25286009284542	6.629000697060547	-26.76589841509031	3537.620512820513	3686.446886446886	0.3717948717948718	0.1040609137055838	0.5232403718459495
3860.382080078125	-12.92500304708016	-2.261131537833655	27.49969529198415	68.27052291174761	1.729987245372676	-24.54413330112118	3558.010256410256	3687.912087912088	0.382051282051282	0.08121827411167512	0.5192563081009296
3879.913330078125	-14.60382602464996	-2.783981868949699	27.61739753500448	69.67768499053281	-1.634674897330533	-22.97478406059729	3536.164102564102	3690.84249084249	0.3692307692307693	0.06472081218274112	0.5272244355909694
3899.444580078125	-14.71927465949649	-1.133532593908548	28.0725340503513	71.12636031883972	1.718609252486569	-22.26097526685618	3528.882051282051	3695.238095238095	0.3653846153846154	0.06345177664974619	0.5232403718459495
3918.975830078125	-15.07485414027403	-0.09593577986169333	28.51458597259721	70.77023847094129	7.72721808635112	-24.52017128312109	3547.815384615385	3693.772893772893	0.3717948717948718	0.03426395939086294	0.5298804780876494
3938.507080078125	-16.31050300829914	0.3351464999205912	28.94969917008616	71.52613295485314	15.56840896218827	-25.16622249461404	3530.338461538461	3690.84249084249	0.3641025641025641	0.02791878172588832	0.5325365205843293
3958.038330078125	-14.51849362206111	0.8636785582817177	28.15063779388934	70.15587154230947	20.77405434384386	-26.11921060673775	3540.533333333333	3693.772893772893	0.367948717948718	0.01522842639593909	0.5391766268260292
3977.569580078125	-14.0342768817105	1.200773496681453	28.57231182894984	72.23455158158836	23.08109390685084	-27.28530030160217	3544.902564102564	3690.84249084249	0.367948717948718	0.006345177664974619	0.5391766268260292
3997.100830078125	-13.24474147833249	2.164881200808123	27.52585216675099	70.5400063959827	22.62326238286294	-25.54552002227341	3541.989743589743	3689.377289377289	0.3641025641025641	-0.02030456852791878	0.5378486055776892
4016.632080078125	-11.93025448967255	4.618787803800047	26.97455103274472	71.62682227279876	24.10528809554102	-24.65553827421044	3562.379487179487	3696.703296703297	0.3615384615384615	-0.02791878172588832	0.548472775564409
4036.163330078125	-12.53147418353641	5.818327386910236	26.85258164635895	71.9917192791327	19.21449944391986	-22.47644370417714	3530.338461538461	3695.238095238095	0.3602564102564103	-0.03680203045685279	0.5444887118193891
4055.694580078125	-11.60773059625511	6.228423286833042	27.22694037448922	70.25206077900613	17.29931660745403	-21.75465680471885	3540.533333333333	3701.098901098901	0.3525641025641026	-0.06091370558375634	0.5564409030544488
4075.225830078125	-12.49841859617632	6.171095089830385	26.15814038236854	69.92710199375679	17.26904140926738	-20.96212272199683	3461.887179487179	3598.534798534799	0.3525641025641026	-0.06472081218274112	0.5431606905710491
4094.757080078125	-12.85259765122444	7.707277473890525	26.74023487755662	69.25783407388757	17.60314813842849	-20.15361857741617	3464.8	3600	0.3448717948717949	-0.08248730964467005	0.549800796812749
4114.288330078125	-12.62453201157767	8.486161947078065	25.54679884223265	67.19085424585597	16.78653548507937	-19.09433081086056	3464.8	3602.930402930403	0.3397435897435898	-0.09137055837563451	0.5511288180610889
4133.819580078125	-11.57870700385225	9.662186381583078	26.1292996147752	66.51101113505168	18.63311952201826	-19.14249213337491	3473.538461538461	3602.930402930403	0.3384615384615385	-0.1243654822335025	0.5431606905710491
4153.350830078125	-11.17623696065142	9.386460868719475	26.37630393485773	65.14378727735105	17.07671781491366	-17.74021272114347	3469.169230769231	3600	0.3384615384615385	-0.1256345177664975	0.5405046480743692
4172.882080078125	-10.77909161308115	10.42380560613503	26.09083869188541	65.11858682235685	16.72616148561914	-18.46337577785246	3469.169230769231	3602.930402930403	0.3384615384615385	-0.1395939086294416	0.549800796812749
4192.413330078125	-11.61305529188566	12.5414935371122	26.69447081143436	64.09679711958836	17.80828206860243	-18.04053382288347	3463.343589743589	3605.860805860806	0.332051282051282	-0.1472081218274112	0.5365205843293492
4211.944580078125	-10.82338138486408	12.15930750640503	25.66186151359243	62.73891093047935	18.87115265245905	-17.20008955458555	3448.779487179487	3604.395604395604	0.3358974358974359	-0.1624365482233502	0.5272244355909694
4231.475830078125	-10.66699784426774	12.16136013040272	25.30021557322656	62.38346409476826	19.24655977886677	-17.55905126212002	3472.082051282051	3601.465201465201	0.3179487179487179	-0.1776649746192893	0.5431606905710491
4251.007080078125	-9.989663934759244	13.65725288179914	25.03360652407562	61.30486086623156	17.38090213971426	-18.04740075871268	3477.907692307692	3607.326007326007	0.3358974358974359	-0.1852791878172589	0.549800796812749
4270.538330078125	-10.22651686112578	13.84878202973704	25.34831388742177	60.63559294636234	17.71500886887537	-17.23889661413203	3466.25641025641	3600	0.3217948717948718	-0.1941624365482233	0.5351925630810093
4290.069580078125	-10.47146455599425	14.27925612463112	24.8535444005747	59.59040282109923	15.81627563254296	-16.60245080254541	3477.907692307692	3605.860805860806	0.3205128205128205	-0.2043147208121827	0.5285524568393094
4309.600830078125	-9.465804989332142	14.878924577687	25.41950106678584	61.34772414012797	12.83244501732092	-15.10247258803456	3451.692307692307	3607.326007326007	0.308974358974359	-0.2119289340101523	0.5351925630810093
4329.132080078125	-9.832757158176085	16.35108472975784	24.72428418239144	58.53643753740064	12.79972221396715	-15.88590354472717	3474.994871794872	3607.326007326007	0.2923076923076923	-0.232233502538071	0.5272244355909694
4348.663330078125	-9.689362181487788	16.82779426484112	23.06378185122123	58.23139161167797	13.87624199896393	-14.79853913884366	3469.169230769231	3613.186813186813	0.3038461538461538	-0.2373096446700508	0.5245683930942895
4368.194580078125	-8.441971282346756	18.03869868747792	23.80287176532435	57.90587031627252	12.34451469205945	-13.52427135841973	3463.343589743589	3611.721611721612	0.3115384615384615	-0.25	0.5192563081009296
4387.725830078125	-8.160920919959668	18.34253012915926	23.90790800403322	56.85651761585412	14.20492432705158	-14.27962567578443	3479.364102564102	3617.582417582417	0.3025641025641025	-0.2525380710659899	0.5166002656042497
4407.257080078125	-7.933009173250206	18.50618541882886	22.69908267497934	54.06694390515303	12.64869901686005	-13.83145939598894	3476.451282051281	3611.721611721612	0.3064102564102564	-0.2639593908629441	0.5192563081009296
4426.788330078125	-8.488076990789816	19.31449622223618	23.19230092101845	54.44995373851404	11.49500283844349	-12.29430141612078	3470.625641025641	3613.186813186813	0.2858974358974359	-0.2753807106598984	0.5073041168658699
4446.319580078125	-8.295544614793666	18.93542313786468	22.44553852063335	54.4623289619487	7.352228040644521	-10.50086903569915	3454.605128205128	3619.047619047619	0.2935897435897436	-0.2956852791878172	0.5046480743691899
4465.850830078125	-8.574009575834131	19.16744197928478	22.59904241658695	55.53035699955032	10.73036298757482	-10.86918500620149	3473.538461538461	3616.117216117216	0.2923076923076923	-0.2931472081218274	0.49667994687915
4485.382080078125	-9.219580598655837	21.25639178925778	22.04194013441624	55.2305986692952	11.0506441186827	-9.353487866770474	3474.994871794872	3624.908424908425	0.2935897435897436	-0.3096446700507614	0.49667994687915
4504.913330078125	-9.25477529784439	21.25193843543822	22.52247021556091	54.57010590786145	12.5025710300872	-8.625085168421427	3483.733333333333	3626.373626373626	0.2923076923076923	-0.3071065989847716	0.50199203187251
4524.444580078125	-9.233138566431887	22.15470072132698	20.68614335681124	53.54010355681361	13.96832353954492	-8.603875464922739	3458.974358974359	3620.51282051282	0.2884615384615384	-0.3375634517766497	0.4847277556440903
4543.975830078125	-8.274030997731003	23.14600207693908	20.59690022689975	51.80449512981113	15.4286516479292	-8.872256442945478	3485.189743589744	3627.838827838828	0.2807692307692308	-0.3426395939086294	0.4807436918990704
4563.507080078125	-7.307413453689923	23.36048758822682	21.25865463100782	51.19676582102152	16.45284583661939	-6.242494415553745	3485.189743589744	3630.769230769231	0.2923076923076923	-0.3362944162436548	0.4873837981407702
4583.038330078125	-6.481683047030913	23.82803833903968	19.83169529690872	52.60212786730714	15.71848118393736	-5.609912088356483	3482.276923076923	3633.699633699634	0.2756410256410257	-0.3604060913705584	0.4727755644090305
4602.569580078125	-8.562945289214076	23.50395935749083	19.7054710785925	52.2930318684604	13.41949002408402	-3.532379804991943	3499.753846153846	3638.095238095238	0.2833333333333333	-0.3540609137055837	0.4714475431606905
4622.100830078125	-6.639882524287383	23.36628134953025	20.01174757126166	53.63516777319804	7.490681585719444	-3.275854267500019	3486.646153846154	3635.164835164835	0.2820512820512821	-0.3680203045685279	0.4648074369189907
4641.632080078125	-6.523941432041495	23.48456546174652	19.60585679585055	54.36192423102282	4.47115137123731	-1.272932651788573	3505.579487179487	3643.956043956044	0.2846153846153846	-0.3807106598984771	0.4581673306772908
4661.163330078125	-7.690955281174708	24.31094175706338	18.90447188252921	57.15509800672308	0.7667817013864754	0.1524348950691747	3496.841025641026	3642.490842490842	0.2666666666666667	-0.3845177664974619	0.4422310756972112
4680.694580078125	-6.696206723767102	26.19086109869708	18.37932762328979	57.8308910444033	-4.455313280402533	1.190764095064553	3485.189743589744	3645.421245421245	0.2833333333333333	-0.399746192893401	0.4435590969455511
4700.225830078125	-8.186606266766635	24.56231848328045	17.33937332333645	56.77512572820512	-4.841569208957155	0.9705444395561651	3509.948717948718	3646.886446886447	0.2846153846153846	-0.399746192893401	0.4342629482071713
4719.757080078125	-8.221447012199402	25.67289225155216	17.8552987800599	55.71407281653939	-4.471586483622882	0.3219920505002705	3504.123076923077	3648.351648351648	0.2807692307692308	-0.4073604060913705	0.4223107569721115
4739.288330078125	-8.391696306446391	27.33869019258778	16.83036935536095	54.65830750034121	-4.857842412177504	0.1017723949918823	3499.753846153846	3645.421245421245	0.2833333333333333	-0.4086294416243654	0.4169986719787516
4758.819580078125	-9.284123296559077	27.62927222183236	15.58767034409229	55.70001006263637	-4.833168011977376	-0.02623923681562168	3495.384615384615	3641.025641025641	0.2858974358974359	-0.4124365482233502	0.4169986719787516
4778.350830078125	-8.954689610256903	27.96269804482101	16.53103897430973	55.34568824723753	-1.454856668134007	-1.348668339753912	3495.384615384615	3645.421245421245	0.3064102564102564	-0.4314720812182741	0.4090305444887118
4797.882080078125	-8.249101573032048	28.81620797337775	15.08984269679521	56.47592990810611	-3.019835969131454	2.004507881285269	3474.994871794872	3646.886446886447	0.2987179487179487	-0.4302030456852792	0.3957503320053121
4817.413330078125	-8.181620751169895	29.09728311252774	13.83792488301059	56.79796364054362	-3.36216749835927	1.238674280640445	3508.492307692307	3646.886446886447	0.3025641025641025	-0.4340101522842639	0.3891102257636122
4836.944580078125	-7.931702314426663	30.23871164526323	14.82976855733373	56.47300485529429	-3.392442696545917	2.031208363362473	3488.102564102564	3649.81684981685	0.3038461538461538	-0.4454314720812183	0.3771580345285525
4856.475830078125	-10.57860481894188	29.15669855943899	14.13951810581186	54.76023434063031	-0.4527128775637573	2.030957226424015	3507.035897435897	3649.81684981685	0.3012820512820513	-0.4593908629441624	0.3784860557768924
4876.007080078125	-9.026510828522641	29.53369901373094	13.34891714773599	53.42394854151634	6.221309015629746	1.721030724777682	3508.492307692307	3654.212454212454	0.3076923076923077	-0.4644670050761421	0.3559096945551128
4895.538330078125	-9.950808430378221	30.50877805314354	12.91915696217804	53.08020191705256	8.087143051695323	1.2552670889344	3511.405128205128	3652.747252747252	0.3012820512820513	-0.4695431472081218	0.350597609561753
4915.069580078125	-9.520345877454439	30.24478010545975	11.96541225455615	51.36630638207635	8.023968653241838	2.218483347399765	3485.189743589744	3651.282051282051	0.3038461538461538	-0.4708121827411167	0.3439575033200531
4934.600830078125	-7.884150627944741	31.34760751883957	11.58493720552586	49.62372282913797	5.736179089361541	2.966970728935258	3493.928205128205	3648.351648351648	0.3	-0.4682741116751269	0.3386454183266932
4954.132080078125	-8.681519181831277	30.96833437364959	11.84808181687233	47.90453969869422	6.429243344796952	3.50185425385312	3504.123076923077	3651.282051282051	0.3038461538461538	-0.4758883248730964	0.3293492695883134
4973.663330078125	-9.818262905769508	32.11183015021182	10.17370942304922	47.25169707538372	5.996086221009194	5.113622901374379	3517.230769230769	3658.608058608058	0.3038461538461538	-0.4809644670050761	0.3213811420982736
4993.194580078125	-9.653153635628309	32.2973774796769	10.68463643716921	45.59697760883141	7.75184466338815	7.443063827026109	3499.753846153846	3660.07326007326	0.3102564102564103	-0.4873096446700507	0.3147410358565737
5012.725830078125	-10.61715499973531	32.5417880881942	10.28450002646958	43.8924197424468	10.30794255589588	7.844444941557952	3521.6	3660.07326007326	0.3141025641025641	-0.4974619289340101	0.3173970783532537
5032.257080078125	-9.855642884667708	32.57112239043746	10.43571153322918	43.21842673726616	12.8997400476637	7.742882654889193	3508.492307692307	3661.538461538461	0.3064102564102564	-0.5012690355329948	0.3107569721115538
5051.788330078125	-10.53904017590578	33.23519980843407	10.09598240942169	41.50858127541401	16.21207659406032	7.715931035873531	3515.774358974359	3658.608058608058	0.3102564102564103	-0.4898477157360406	0.3081009296148738
5071.319580078125	-10.90493048348236	32.05244132677872	9.506951651763671	42.94611890262974	19.5763859429374	8.05480806022155	3517.230769230769	3664.468864468864	0.3128205128205128	-0.5101522842639593	0.2855245683930943
5090.850830078125	-9.314317706428909	33.12284549887781	8.568229357109177	42.22352501996025	18.83677328609499	7.443686573461434	3505.579487179487	3654.212454212454	0.3230769230769231	-0.5076142131979695	0.2908366533864542
5110.382080078125	-9.080111738583915	32.54937439443129	7.988826141608586	39.80233587856104	14.26381816041458	9.562513243511107	3488.102564102564	3660.07326007326	0.3102564102564103	-0.5114213197969543	0.2669322709163347
5129.913330078125	-9.32938382499049	33.79190843247116	7.061617500951058	39.81291106949611	12.75134085263679	10.41917871060612	3523.05641025641	3667.399267399267	0.3346153846153846	-0.5139593908629442	0.2735723771580345
5149.444580078125	-9.902349391137983	34.34906519274167	5.765060886201712	39.14195561915852	8.581091255644433	12.67288394829251	3512.861538461538	3673.260073260073	0.3230769230769231	-0.515228426395939	0.2682602921646746
5168.975830078125	-9.861091310219845	34.19354837716819	5.890868978015469	37.76179402786713	9.666012237620985	12.76346467780424	3520.14358974359	3673.260073260073	0.3243589743589744	-0.5063451776649746	0.2616201859229748
5188.507080078125	-10.45550893625508	35.38621787177148	6.449106374491691	36.02562309070852	9.624888237287436	12.97681739748341	3527.425641025641	3674.725274725275	0.3346153846153846	-0.5215736040609137	0.249667994687915
5208.038330078125	-11.4227112734579	34.63386146311555	5.728872654209956	35.37154294505455	13.32348071223868	13.17008543397614	3539.076923076923	3676.190476190476	0.3243589743589744	-0.5190355329949238	0.2456839309428951
5227.569580078125	-11.58518897437129	34.8687331718073	5.48110256287142	33.33673869795307	16.60554206044866	13.9356678976825	3534.707692307692	3676.190476190476	0.3294871794871795	-0.5215736040609137	0.2416998671978752
5247.100830078125	-10.10693158412465	34.8556932076582	5.306841587534917	33.35608904732364	16.21088493491426	14.7122319185459	3498.297435897436	3673.260073260073	0.3358974358974359	-0.516497461928934	0.2430278884462151
5266.632080078125	-11.15977410979092	34.22521800473497	4.02258902090851	31.24163336211544	15.06576635039055	14.29849308960632	3533.251282051282	3677.655677655677	0.3358974358974359	-0.5228426395939086	0.2244355909694555
5286.163330078125	-11.43276048226353	35.75939577939385	4.72395177364688	30.92432471498934	13.15040711701165	15.97439312150056	3511.405128205128	3680.58608058608	0.3448717948717949	-0.5139593908629442	0.2310756972111554
5305.694580078125	-13.27732369101745	35.62855846638917	4.267630898254607	29.19636642611011	12.72565119020367	16.58937809265004	3509.948717948718	3680.58608058608	0.3358974358974359	-0.5203045685279187	0.2337317397078353
5325.225830078125	-12.72059382975502	35.66472284497564	3.940617024498524	29.46968677902754	16.18656332854027	12.9320172854815	3525.969230769231	3673.260073260073	0.3512820512820513	-0.516497461928934	0.2204515272244356
5344.757080078125	-13.08768450224253	36.48317673188033	3.231549775747211	28.74416784354623	15.0743439442834	12.34759628079859	3505.579487179487	3664.468864468864	0.3474358974358974	-0.515228426395939	0.2231075697211155
5364.288330078125	-11.97420939042392	35.51702840740508	2.579060957608036	29.33085927249691	9.940450554974142	10.38647132564919	3527.425641025641	3665.934065934066	0.3564102564102564	-0.5215736040609137	0.2111553784860558
5383.819580078125	-11.46210786540647	35.13519048252206	1.789213459353181	27.86699616997473	3.2226806593669	10.28789863999601	3512.861538461538	3660.07326007326	0.3474358974358974	-0.515228426395939	0.2191235059760956
5403.350830078125	-10.37831808562111	35.38979357416962	2.168191437889425	26.02316078893459	-9.103440146583971	11.00743549882981	3499.753846153846	3661.538461538461	0.3576923076923077	-0.5291878172588832	0.2071713147410358
5422.882080078125	-10.69779489888003	36.16169592479191	2.220510111997124	25.99863534612772	-15.08719818333533	12.18450675085127	3521.6	3667.399267399267	0.3551282051282051	-0.5177664974619289	0.197875166002656
5442.413330078125	-12.41167407199481	35.28809850502245	2.832592800519049	28.04750234713222	-18.0076780031908	11.7671555744608	3515.774358974359	3660.07326007326	0.3743589743589744	-0.5279187817258882	0.1885790172642762
5461.944580078125	-13.82004991055742	36.57978887120145	1.995008944257516	27.06497585326098	-16.21341956255849	13.26139187345467	3502.666666666666	3663.003663003663	0.3807692307692308	-0.5126903553299492	0.1938911022576361
5481.475830078125	-15.62152371243935	36.71466202648681	1.84762875606492	27.11931433434225	-5.002142142944683	11.33558210295926	3517.230769230769	3664.468864468864	0.367948717948718	-0.5126903553299492	0.1872509960159363
5501.007080078125	-15.17848810653823	37.014888372219	2.151189346176622	26.45747154853382	7.71618818337347	8.263516183847418	3512.861538461538	3658.608058608058	0.3833333333333334	-0.5266497461928934	0.1713147410358566
5520.538330078125	-13.98514379140489	36.35576446008817	1.485620859510522	25.03388417318989	11.84811417902554	5.890902440382935	3515.774358974359	3654.212454212454	0.3794871794871795	-0.5139593908629442	0.1713147410358566
5540.069580078125	-13.67603936211993	36.51741514035652	0.3960637880069384	21.88830111662161	9.165843886523913	6.461840710345873	3515.774358974359	3654.212454212454	0.3730769230769231	-0.516497461928934	0.1673306772908366
5559.600830078125	-13.19346927619843	36.97155781511425	0.6530723801574141	20.11410449290923	4.280832429802342	7.022299697028696	3491.015384615384	3651.282051282051	0.3782051282051282	-0.5241116751269035	0.1646746347941567
5579.132080078125	-12.87765511484722	36.35720089676492	0.2344885152778751	18.29535706483208	-0.5600782306793539	6.083031606139134	3523.05641025641	3651.282051282051	0.3858974358974359	-0.5190355329949238	0.1606905710491368
5598.663330078125	-14.14826845822669	37.20821268127049	-2.826845822668552	16.21375197274134	-3.239724521100793	7.275821783080761	3491.015384615384	3649.81684981685	0.3884615384615385	-0.5203045685279187	0.1606905710491368
5618.194580078125	-14.64921274528995	36.69416641120439	-0.9212745289952761	12.73848504561231	-3.694579249182351	7.72922770451631	3485.189743589744	3646.886446886447	0.3884615384615385	-0.5114213197969543	0.1593625498007968
5637.725830078125	-15.80626972137991	36.62587088013217	-0.6269721379914879	10.62684191118471	2.667562709883054	4.906820387067175	3498.297435897436	3639.560439560439	0.3948717948717949	-0.5190355329949238	0.1580345285524568
5657.257080078125	-15.46015465624627	37.2516792797318	-2.01546562462681	8.548049369874578	7.49517696305073	3.690942075499243	3480.820512820513	3639.560439560439	0.391025641025641	-0.5177664974619289	0.1593625498007968
5676.788330078125	-14.84994761484414	36.5815240140695	-0.9947614844143387	3.984166533429896	8.188594012312279	2.317599335545202	3509.948717948718	3633.699633699634	0.3846153846153846	-0.5114213197969543	0.1580345285524568
5696.319580078125	-14.57511452712394	37.43009644162594	-1.511452712393798	1.855085584162556	5.180441790716252	2.037362916991647	3474.994871794872	3629.304029304029	0.3756410256410256	-0.5139593908629442	0.1527224435590969
5715.850830078125	-15.29324483873867	36.93540805635682	-1.324483873866886	-1.278797261158418	3.988598407872476	2.50149925864577	3482.276923076923	3638.095238095238	0.3961538461538461	-0.5253807106598984	0.148738379814077
5735.382080078125	-13.77482200742872	37.49872407365685	-1.482200742871987	-2.379113381721374	3.646443275557731	0.7815525255649953	3496.841025641026	3632.234432234432	0.3858974358974359	-0.5177664974619289	0.1527224435590969
5754.913330078125	-15.40513854673359	36.69765147066246	-0.5138546733591627	-3.112844965482053	2.917855817775291	-0.204500730588217	3476.451282051281	3629.304029304029	0.4	-0.5088832487309645	0.1540504648074369
5774.444580078125	-15.36840491817205	37.85439665966146	-0.8404918172047378	-3.887639790639555	4.107427992365015	-3.198715244092931	3464.8	3621.978021978022	0.3858974358974359	-0.5114213197969543	0.1660026560424967
5793.975830078125	-15.91617821048368	36.42457076181929	0.3821789516320655	-4.654784477673814	3.411916131762483	-5.309563808425433	3470.625641025641	3611.721611721612	0.3858974358974359	-0.5203045685279187	0.1540504648074369
5813.507080078125	-14.11561237693182	35.55984542377806	0.4387623068181956	-4.386639218192687	0.4944131078133306	-7.013289342709118	3482.276923076923	3608.791208791209	0.3961538461538461	-0.5126903553299492	0.1686586985391766
5833.038330078125	-13.84187192906644	37.14029064835709	-0.1871929066436195	-4.454027934895966	-0.940887806544678	-8.781146261365784	3472.082051282051	3602.930402930403	0.3884615384615385	-0.5203045685279187	0.1686586985391766
5852.569580078125	-13.99093016584734	36.8231471598135	0.9069834152659331	-5.123858364921314	-2.108233186101394	-7.490908419083215	3477.907692307692	3605.860805860806	0.3871794871794872	-0.5063451776649746	0.1660026560424967
5872.100830078125	-13.79244213317772	36.55344347758641	0.7557866822283206	-2.035651344277355	-3.875193224453388	-8.491304442905898	3458.974358974359	3605.860805860806	0.3846153846153846	-0.5228426395939086	0.1567065073041169
5891.632080078125	-13.30750209602181	36.08211557852048	1.249790397819398	-1.715980154495557	-3.088679372377845	-9.712171259175429	3460.430769230769	3597.069597069597	0.3794871794871795	-0.5126903553299492	0.1633466135458167
5911.163330078125	-13.43761672779294	36.40122366430164	0.2383272207058638	-3.449226038842333	-2.757196645296929	-9.52551902157346	3467.71282051282	3597.069597069597	0.3794871794871795	-0.5126903553299492	0.1660026560424967
5930.694580078125	-12.54309679373299	36.87775853090108	1.690320626701286	-3.080278959384347	-4.27247435206798	-8.33659232902119	3450.235897435897	3601.465201465201	0.3871794871794872	-0.5215736040609137	0.1739707835325365
5950.225830078125	-14.7041359034685	36.01579264711857	1.586409653149942	-5.114520696329708	0.5110391048598187	-8.052743563016739	3472.082051282051	3607.326007326007	0.3756410256410256	-0.5203045685279187	0.1819389110225763
5969.757080078125	-13.85792234685498	36.27034772416969	2.207765314501762	-3.063966164856841	2.094915611157806	-9.915295832512946	3470.625641025641	3600	0.3769230769230769	-0.5203045685279187	0.1739707835325365
5989.288330078125	-12.49676024588398	36.02480477141975	2.32397541160205	-4.814762366074588	0.1907579737519409	-9.568440702447754	3453.148717948718	3598.534798534799	0.3743589743589744	-0.5177664974619289	0.1686586985391766
6008.819580078125	-12.30016509634313	35.48778213192195	1.983490365686553	-5.537918758900195	-2.050306791808289	-9.697828491505959	3464.8	3598.534798534799	0.358974358974359	-0.5203045685279187	0.1859229747675963
6028.350830078125	-13.14853315407884	35.62001848561963	1.146684592116003	-4.839287808881458	-5.793000062999412	-8.3913694504263	3442.953846153846	3597.069597069597	0.3743589743589744	-0.5139593908629442	0.1766268260292165
6047.882080078125	-13.30383944411409	33.92457014624753	1.616055588591239	-6.959593599713312	-7.683332102352048	-8.751707315211466	3483.733333333333	3600	0.3653846153846154	-0.5126903553299492	0.1779548472775564
6067.413330078125	-14.14200440010686	36.54650136718485	1.799559989313674	-8.630738362824344	-5.160309807024227	-7.225530892500335	3454.605128205128	3602.930402930403	0.3692307692307693	-0.5304568527918782	0.1819389110225763
6086.944580078125	-13.73808776329543	36.65393017938992	2.191223670457357	-9.981086915841336	1.152130557814782	-7.883688681462559	3454.605128205128	3602.930402930403	0.3653846153846154	-0.5304568527918782	0.1859229747675963
6106.475830078125	-13.94427044283001	36.16217468571985	1.572955716999506	-12.05346684137169	8.226410374529207	-9.634701654886811	3458.974358974359	3598.534798534799	0.3551282051282051	-0.5241116751269035	0.1806108897742364
6126.007080078125	-13.02088080930449	37.45724346355137	1.911919069550989	-12.0423291402805	8.215385175469237	-9.259769885493714	3457.517948717949	3598.534798534799	0.3615384615384615	-0.5279187817258882	0.1885790172642762
6145.538330078125	-11.89541743767028	36.5174485351239	2.458256232971746	-13.12970752725268	5.23190735407334	-9.668017935854774	3469.169230769231	3597.069597069597	0.3653846153846154	-0.5190355329949238	0.2084993359893758
6165.069580078125	-11.45979947134698	36.36362823529122	2.020052865301821	-14.92494203080397	-3.762803303267299	-8.43892187692961	3458.974358974359	3598.534798534799	0.3576923076923077	-0.5241116751269035	0.201859229747676
6184.600830078125	-11.32537583733147	35.27093728801248	3.462416266852815	-13.51777995201877	-7.127465445970508	-6.869572636405728	3448.779487179487	3601.465201465201	0.3538461538461539	-0.5215736040609137	0.1912350597609562
6204.132080078125	-11.04598751866721	35.73029354770004	3.401248133278671	-15.33652738009592	-11.96837610645221	-7.80884072729529	3457.517948717949	3598.534798534799	0.3525641025641026	-0.5215736040609137	0.2058432934926959
6223.663330078125	-12.75625020775547	34.81458194060225	4.374979224453464	-16.7570772005968	-14.59849719956032	-7.826186946404621	3453.148717948718	3598.534798534799	0.3576923076923077	-0.5279187817258882	0.2164674634794156
6243.194580078125	-12.64777292296858	35.59425065219826	3.222707703141754	-16.41276806597691	-14.96287912690807	-7.842157008263252	3441.497435897436	3598.534798534799	0.35	-0.5203045685279187	0.2191235059760956
6262.725830078125	-12.43954346736793	35.96855428665698	4.045653263207399	-18.55894932399032	-11.5705657880984	-10.82589223848785	3550.728205128205	3698.168498168498	0.3487179487179487	-0.5215736040609137	0.2058432934926959
6282.257080078125	-13.20465667716832	34.94285709009385	3.534332283167928	-19.59367676034958	-7.847122516033959	-11.71474896623858	3534.707692307692	3689.377289377289	0.3525641025641026	-0.5101522842639593	0.2244355909694555
6301.788330078125	-11.64311366039892	34.69492941238752	3.688633960108487	-20.66237981013855	-5.592055755507432	-13.24666730446669	3558.010256410256	3687.912087912088	0.3512820512820513	-0.5114213197969543	0.2164674634794156
6321.319580078125	-11.66845921160033	35.06514380371633	5.154078839967349	-21.77732119476065	-7.797244524894496	-14.83311162716144	3541.989743589743	3684.981684981685	0.3448717948717949	-0.5190355329949238	0.2324037184594953
6340.850830078125	-12.03788905673479	35.73211410114828	4.211094326521415	-22.83364902111496	-9.684952562166941	-14.57159758496792	3512.861538461538	3680.58608058608	0.3512820512820513	-0.5304568527918782	0.2244355909694555
6360.382080078125	-12.3885131849313	33.38009062447291	5.148681506870396	-26.97998390061281	-7.17540307106621	-14.24645443227833	3540.533333333333	3684.981684981685	0.3461538461538462	-0.5228426395939086	0.2403718459495352
6379.913330078125	-12.26729356493605	34.30073573135464	5.270643506395174	-27.25926686118513	-4.246874848057088	-12.91766066738774	3512.861538461538	3682.051282051282	0.3333333333333333	-0.5177664974619289	0.2324037184594953
6399.444580078125	-11.50088765446234	35.09435806946849	5.911234553765882	-29.34447201827503	-1.665926158436163	-13.59840431709936	3527.425641025641	3687.912087912088	0.3346153846153846	-0.5126903553299492	0.2443559096945551
6418.975830078125	-10.86245726393131	33.85877414426293	5.754273606868796	-27.61358867658397	-0.86856350421372	-14.24008977032603	3505.579487179487	3679.120879120879	0.3282051282051282	-0.5177664974619289	0.2390438247011952
6438.507080078125	-9.933158141613513	33.37864356918349	6.684185838648794	-32.19794688271145	-2.783393546853414	-15.42652913573965	3533.251282051282	3679.120879120879	0.332051282051282	-0.5088832487309645	0.2669322709163347
6458.038330078125	-9.32953771792779	33.17667924895321	7.046228207221147	-33.61264659758867	-4.6683011851326	-15.49727631900339	3534.707692307692	3679.120879120879	0.3256410256410257	-0.5114213197969543	0.2669322709163347
6477.569580078125	-9.694027599774946	33.49250633731116	6.597240022505302	-36.44733362281065	-7.681877807802077	-16.06710341907836	3517.230769230769	3674.725274725275	0.3217948717948718	-0.5076142131979695	0.2616201859229748
6497.100830078125	-8.647894806174925	33.89898913885205	7.210519382507665	-34.3661785388448	-13.63833744227311	-14.39619189188573	3518.687179487179	3677.655677655677	0.3217948717948718	-0.5038071065989848	0.2841965471447543
6516.632080078125	-9.154563910505718	33.69841724191846	8.543608949428318	-36.50515966685987	-20.76721406354817	-13.63285946880384	3525.969230769231	3679.120879120879	0.3153846153846154	-0.4999999999999999	0.2855245683930943
6536.163330078125	-8.632690183969773	31.88363247042485	8.730981603022702	-40.34689862875996	-27.97029028233669	-11.5313790178635	3536.164102564102	3682.051282051282	0.3166666666666667	-0.4923857868020304	0.2828685258964143
6555.694580078125	-8.376339022447439	31.94164087421037	10.36609775525606	-39.94161339321657	-29.14603685887319	-9.244357499209144	3530.338461538461	3687.912087912088	0.3192307692307692	-0.4911167512690355	0.300132802124834
6575.225830078125	-8.68118061736922	33.12183857738906	11.88193826307813	-39.88884994057243	-29.5737695815875	-7.342998170166458	3514.317948717948	3692.307692307692	0.3192307692307692	-0.4911167512690355	0.298804780876494
6594.757080078125	-11.25169189895267	33.04267035640373	10.83081010473338	-38.08360275624218	-23.59298834074247	-7.233695064294701	3546.358974358974	3698.168498168498	0.3128205128205128	-0.483502538071066	0.3054448871181938
6614.288330078125	-12.32654049908095	32.43288282714868	11.34595009190486	-36.62153968621959	-14.24492095511405	-8.071889291968137	3539.076923076923	3693.772893772893	0.3205128205128205	-0.4860406091370558	0.3014608233731739
6633.819580078125	-11.03302850220313	31.32951263337901	12.69714977968687	-39.39783815723622	-2.671709213319602	-11.55769404001955	3539.076923076923	3686.446886446886	0.3141025641025641	-0.4860406091370558	0.3187250996015936
6653.350830078125	-9.749550324837212	31.31319967423943	13.04496751627879	-37.95388791424071	2.939265699104218	-11.75395167752785	3517.230769230769	3684.981684981685	0.3141025641025641	-0.4784263959390863	0.3173970783532537
6672.882080078125	-8.987930484713505	31.07319440494526	13.20695152864932	-38.26658397808662	5.900869519293247	-11.54995322081655	3515.774358974359	3687.912087912088	0.3038461538461538	-0.4758883248730964	0.3386454183266932
6692.413330078125	-7.987072377695128	29.6777123322413	13.2927622304873	-40.05023077242182	5.531239587785113	-12.80962709663256	3540.533333333333	3687.912087912088	0.2987179487179487	-0.4682741116751269	0.3426294820717131
6711.944580078125	-7.027010672782987	30.28343462566466	13.29893272170124	-38.62079329145423	2.144527046961965	-10.49041431732249	3527.425641025641	3689.377289377289	0.2961538461538462	-0.465736040609137	0.3598937583001328
6731.475830078125	-7.345425624774547	30.40041834256075	13.45743752254531	-36.9226480408494	-2.658236409092512	-10.35666076999801	3543.446153846154	3692.307692307692	0.2974358974358974	-0.4670050761421319	0.3598937583001328
6751.007080078125	-10.24597015954389	30.48689139960086	15.4029840456114	-38.60605552536386	-3.127093132140368	-8.241948721276149	3531.794871794872	3693.772893772893	0.3038461538461538	-0.4568527918781726	0.3585657370517928
6770.538330078125	-9.539812718451026	28.916749307174	14.01872815489755	-36.55201343092305	0.3308422102899049	-10.61293517055147	3559.466666666666	3693.772893772893	0.2897435897435898	-0.450507614213198	0.3638778220451527
6790.069580078125	-8.161214547684034	28.07667284700703	15.87854523159656	-38.25308373433971	4.760998938929919	-10.71998823579875	3541.989743589743	3693.772893772893	0.2884615384615384	-0.4568527918781726	0.3811420982735724
6809.600830078125	-7.130086315470673	28.99831025554845	14.99136845293277	-36.83129639149536	3.259370433299027	-9.284141405660886	3530.338461538461	3696.703296703297	0.2769230769230769	-0.4517766497461929	0.3904382470119522
6829.132080078125	-7.243534342132316	28.64673891632287	15.64656578676841	-36.15145328069107	1.412786396360129	-9.235980083146535	3544.902564102564	3696.703296703297	0.2910256410256411	-0.450507614213198	0.398406374501992
6848.663330078125	-6.909345364067599	28.09074651001597	17.06546359324004	-34.3935694515062	-0.06959211014408512	-8.217735566337602	3536.164102564102	3701.098901098901	0.2935897435897436	-0.4340101522842639	0.4116865869853917
6868.194580078125	-5.159902148714747	28.04534732404805	16.00978512852522	-36.49216235031179	-3.483426656334482	-7.346476194634664	3534.707692307692	3696.703296703297	0.2820512820512821	-0.4314720812182741	0.4063745019920318
6887.725830078125	-4.428413930142456	28.14192883867465	17.15860698575444	-36.51196270780724	-11.72487545569256	-5.259338511363792	3448.779487179487	3597.069597069597	0.2846153846153846	-0.4238578680203046	0.4037184594953519
6907.257080078125	-7.225390364824754	27.28225965308839	17.46096351752471	-34.79559212814409	-19.92520025471708	-3.385553547772092	3463.343589743589	3600	0.2833333333333333	-0.4124365482233502	0.4156706507304117
6926.788330078125	-8.983420806078893	26.79787039875507	17.65791939211058	-33.03073317302332	-17.65946108895672	-3.384177390521394	3464.8	3601.465201465201	0.2717948717948718	-0.4213197969543147	0.4196547144754316
6946.319580078125	-9.099685073493111	26.48760500115112	18.03149265068888	-35.75944328483212	-12.89239723216234	-3.014987536645272	3460.430769230769	3605.860805860806	0.2897435897435898	-0.4111675126903553	0.4143426294820717
6965.850830078125	-7.93744190541617	26.58912401677802	18.25580945838304	-36.38483541252393	-6.969189591784281	-2.606990623222671	3445.866666666666	3602.930402930403	0.3	-0.4149746192893401	0.4209827357237715
6985.382080078125	-8.815172120016792	25.13409307198619	18.48278799832072	-35.98956285775948	-5.131006751825161	-1.658368269365236	3447.323076923077	3607.326007326007	0.2910256410256411	-0.4086294416243654	0.4302788844621514
7004.913330078125	-7.318663027406486	25.48723427306516	20.13369725935146	-36.00362561166251	-5.492588280179656	-2.006599556681129	3470.625641025641	3616.117216117216	0.2935897435897436	-0.399746192893401	0.4395750332005312
7024.444580078125	-6.392426374540937	24.66404294597865	20.75736254590626	-35.60655302439847	-6.284702930241719	-0.1212102894970739	3461.887179487179	3613.186813186813	0.2794871794871795	-0.3845177664974619	0.4422310756972112
7043.975830078125	-5.790344880228205	24.30978679056895	20.96551197717952	-34.93548507202966	-9.249107149424008	0.00705247924888841	3483.733333333333	3617.582417582417	0.2833333333333333	-0.3807106598984771	0.447543160690571
7063.507080078125	-6.920486597156305	23.94661454005095	19.95134028436952	-32.11947338399089	-11.47407510867696	1.700549867190917	3472.082051282051	3621.978021978022	0.2833333333333333	-0.3883248730964466	0.451527224435591
7083.038330078125	-8.197085760224955	22.76367200244259	20.29142397750454	-32.10012303462035	-11.86873223421136	2.477113888054315	3495.384615384615	3624.908424908425	0.2858974358974359	-0.3718274111675127	0.4581673306772908
7102.569580078125	-7.713499980917276	22.67832728841875	20.65000190827242	-34.49093662758903	-9.712715868311481	3.365468341928126	3482.276923076923	3626.373626373626	0.2897435897435898	-0.3730964467005076	0.4608233731739708
7122.100830078125	-7.629845011344988	22.51998961530459	21.01549886550126	-37.59433142244825	-11.31024157574963	4.981100473838741	3472.082051282051	3626.373626373626	0.2923076923076923	-0.3616751269035533	0.4687915006640106
7141.632080078125	-7.191641643675061	22.90201959857335	20.83583563249381	-40.73991447901653	-13.99251186825126	5.552038743801679	3504.123076923077	3629.304029304029	0.2871794871794872	-0.3553299492385786	0.4594953519256308
7161.163330078125	-7.867128837935963	21.78887704939224	21.28711620640367	-38.30567510199531	-19.19553324782665	7.126878762904078	3483.733333333333	3626.373626373626	0.2935897435897436	-0.3477157360406091	0.4767596281540504
7180.694580078125	-9.590734044688047	22.23279523128877	20.92659553119533	-36.90267559836541	-18.80105251920532	7.304427874476633	3479.364102564102	3630.769230769231	0.3012820512820513	-0.3426395939086294	0.4594953519256308
7200.225830078125	-9.775679498875352	21.64266706309487	22.43205011246495	-36.81717405463505	-13.62865913164271	8.430348202968164	3488.102564102564	3635.164835164835	0.3064102564102564	-0.3375634517766497	0.4833997343957503
7219.757080078125	-9.287630824386	21.3989686710914	23.2369175614002	-38.12938441906704	-9.606985126590327	9.807052153434643	3489.558974358974	3635.164835164835	0.3051282051282052	-0.3147208121827411	0.4767596281540504
7239.288330078125	-8.292158970173086	19.47046517525943	22.78410298269135	-38.81856519846294	-10.37967338061264	10.32072597485382	3491.015384615384	3636.630036630037	0.3076923076923077	-0.3197969543147208	0.4860557768924302
7258.819580078125	-8.733609478820023	19.20709941976207	22.63905211799771	-37.75109967101745	-8.502990542400166	10.43414370205339	3502.666666666666	3641.025641025641	0.3	-0.299492385786802	0.4900398406374502
7278.350830078125	-9.009181252639264	19.2054269113195	23.08187473607361	-37.74581207554991	-9.259229196289061	10.8624764356009	3476.451282051281	3639.560439560439	0.2974358974358974	-0.3032994923857868	0.49667994687915
7297.882080078125	-8.848581045560927	17.66475916370884	23.14189544390725	-39.50133336207907	-8.905696071088206	10.29926513441667	3489.558974358974	3633.699633699634	0.3102564102564103	-0.2855329949238579	0.50066401062417
7317.413330078125	-10.28297956424907	19.01965551373771	23.70204357509298	-39.46792025880549	-8.938771668268114	11.42406044259596	3476.451282051281	3639.560439560439	0.3064102564102564	-0.2842639593908629	0.5033200531208499
7336.944580078125	-9.691208896735377	17.44504406262581	22.87911032646232	-41.17067809269052	-9.01297126578157	12.76220847045442	3485.189743589744	3642.490842490842	0.3025641025641025	-0.2753807106598984	0.5033200531208499
7356.475830078125	-8.655787051571371	17.63157569131785	22.421294842863	-44.6740705276256	-10.19098905057211	12.51915181725819	3501.210256410256	3641.025641025641	0.3166666666666667	-0.266497461928934	0.5033200531208499
7376.007080078125	-8.843333296399029	15.54407432167071	23.66667036009716	-43.66274351376096	-16.89528614195227	13.62161240162655	3495.384615384615	3642.490842490842	0.3205128205128205	-0.2614213197969543	0.5086321381142098
7395.538330078125	-10.39087205587422	16.77785769950988	24.91279441257834	-41.90013459926468	-20.6353554110632	15.54992334968489	3511.405128205128	3649.81684981685	0.3269230769230769	-0.2538071065989848	0.5112881806108898
7415.069580078125	-11.02647081635894	16.9336586014456	25.35291836410576	-40.45258429126999	-20.28497547868174	17.22719953882984	3493.928205128205	3649.81684981685	0.3294871794871795	-0.2449238578680203	0.5152722443559097
7434.600830078125	-11.63950948780737	16.68359689037775	24.04905121926296	-41.48371166263009	-21.82212718665966	18.21187663773235	3493.928205128205	3657.142857142857	0.3256410256410257	-0.2220812182741117	0.5086321381142098
7454.132080078125	-11.14996805182622	14.70762157849832	25.00319481737833	-42.22621840482625	-23.66853482668549	17.30592482781075	3515.774358974359	3652.747252747252	0.332051282051282	-0.2220812182741117	0.5219123505976095
7473.663330078125	-12.50178885150316	12.59757597078743	25.82111484968353	-41.20622873455736	-22.1203579196476	15.94631595951514	3501.210256410256	3646.886446886447	0.3333333333333333	-0.217005076142132	0.5205843293492696
7493.194580078125	-13.33979991455864	13.83473637524269	26.02000854413587	-40.14585083507898	-16.85713893752505	14.69463403984059	3504.123076923077	3652.747252747252	0.3384615384615385	-0.1967005076142132	0.5139442231075697
7512.725830078125	-12.81683354816787	12.28807880672648	26.31664518321261	-42.43530009791468	-11.79744514572925	17.99390702284844	3508.492307692307	3660.07326007326	0.3487179487179487	-0.1928934010152284	0.5245683930942895
7532.257080078125	-11.57402865855836	11.96515356052855	26.59713414416444	-43.35628798070631	-9.313099245567853	21.30940120465338	3527.425641025641	3664.468864468864	0.3435897435897436	-0.182741116751269	0.5205843293492696
7551.788330078125	-11.06380462737595	11.27751959672663	25.61953726240469	-43.67067157502057	-10.85585175153229	22.95860075447042	3540.533333333333	3670.32967032967	0.3423076923076923	-0.1865482233502538	0.5232403718459495
7571.319580078125	-12.4653014516413	11.36995446615771	25.4698548358701	-42.97676571031325	-12.3408542601167	23.35499336430067	3509.948717948718	3671.794871794872	0.3538461538461539	-0.1611675126903553	0.5219123505976095
7590.850830078125	-14.3010004272068	11.07631812378655	25.8999572793206	-44.36277740722831	-12.00114673296907	23.4989750579668	3511.405128205128	3671.794871794872	0.3602564102564103	-0.1560913705583756	0.5285524568393094
7610.382080078125	-13.8616274732134	9.534089901791681	25.83725267866046	-45.69726317384269	-7.957422329796749	24.12581546964709	3486.646153846154	3668.864468864469	0.3641025641025641	-0.1472081218274112	0.5312084993359894
7629.913330078125	-13.7410542035548	9.070772437898043	25.89457964451962	-46.74841590676068	-3.46671520478344	22.43369423895576	3514.317948717948	3663.003663003663	0.367948717948718	-0.1230964467005076	0.5365205843293492
7649.444580078125	-12.70070778439723	7.944637939164275	25.92922156027739	-48.8429587324422	-3.505038806123728	22.31478573317767	3508.492307692307	3667.399267399267	0.3538461538461539	-0.1205583756345178	0.5272244355909694
7668.975830078125	-13.65164363812753	8.522006228354957	26.83563618724707	-47.46864724677446	-5.335173242929207	22.27760596782035	3496.841025641026	3667.399267399267	0.3641025641025641	-0.09898477157360405	0.5325365205843293
7688.507080078125	-13.5651878170964	7.360839695267361	27.48121829036027	-48.17717837554093	-5.71320437141712	22.01471576837612	3521.6	3667.399267399267	0.3602564102564103	-0.09644670050761421	0.5338645418326693
7708.038330078125	-13.56978921592164	6.865487108080856	27.02107840783598	-47.80418122295887	-3.852971133338063	22.21347458344737	3523.05641025641	3667.399267399267	0.3705128205128205	-0.08629441624365482	0.5338645418326693
7727.569580078125	-13.8472230942822	6.519541479071176	27.27769057177997	-48.49336200235477	-4.625659387360378	22.72714840486654	3527.425641025641	3670.32967032967	0.382051282051282	-0.07360406091370558	0.5351925630810093
7747.100830078125	-13.13186285553885	4.940104561017318	26.8137144461147	-50.21715771607872	-8.809558185492898	24.73393350496734	3505.579487179487	3671.794871794872	0.3794871794871795	-0.05456852791878172	0.5365205843293492
7766.632080078125	-13.09086639261412	4.438698133463342	26.9133607385876	-53.03361941224239	-15.22069615113242	25.90413782115958	3493.928205128205	3665.934065934066	0.3756410256410256	-0.04568527918781726	0.5338645418326693
7786.163330078125	-12.61163578343201	4.242367525881714	26.83642165679905	-55.86650640496477	-20.86457026382308	26.27107763441122	3515.774358974359	3673.260073260073	0.3794871794871795	-0.03045685279187817	0.5312084993359894
7805.694580078125	-15.25487563603951	3.00280900778452	26.51243639604901	-53.85105250723385	-23.75197448649866	24.72893114984146	3515.774358974359	3670.32967032967	0.3705128205128205	-0.03807106598984771	0.5351925630810093
7825.225830078125	-17.47650116404618	3.62203540645587	28.34988359538222	-53.41662924560338	-14.06699997271587	24.36697984129142	3517.230769230769	3667.399267399267	0.3858974358974359	-0.01142131979695431	0.5219123505976095
7844.757080078125	-16.31898250914432	2.536018488081915	28.10174908556816	-52.92888002117268	-3.308306072929561	25.42465416408215	3536.164102564102	3677.655677655677	0.3871794871794872	0.007614213197969543	0.5272244355909694
7864.288330078125	-14.20207927825444	1.748715455652365	27.79207217455645	-55.2570299827495	2.540701969935043	27.17079910536321	3536.164102564102	3679.120879120879	0.3923076923076923	0.01395939086294416	0.5325365205843293
7883.819580078125	-13.13310938833098	1.056748174521978	26.68906116690243	-54.24345292826038	1.842213313426183	26.34632489892393	3537.620512820513	3679.120879120879	0.391025641025641	0.02791878172588832	0.5232403718459495
7903.350830078125	-14.52132525210741	-1.056538418448439	27.86747478925901	-54.28912875293739	-1.116590107769587	25.81006521675536	3514.317948717948	3676.190476190476	0.3948717948717949	0.03553299492385786	0.5258964143426295
7922.882080078125	-15.44985490973872	-1.500261925779283	27.01450902612855	-53.29838961078679	-3.294480474876332	24.71746116923179	3520.14358974359	3674.725274725275	0.391025641025641	0.05710659898477157	0.5312084993359894
7942.413330078125	-15.04823127769303	-2.659747947991574	27.17687223069659	-52.60099618311151	-2.905424147328449	24.60541959928292	3508.492307692307	3674.725274725275	0.3923076923076923	0.06598984771573603	0.5285524568393094
7961.944580078125	-15.36370687458218	-2.891886825902767	27.62931254178193	-53.31188985453368	-2.154609894513004	23.88749618421399	3508.492307692307	3670.32967032967	0.3897435897435898	0.08121827411167512	0.5126162018592297
7981.475830078125	-15.80004813771079	-3.929643688604413	27.99518622892128	-52.33408844597385	-1.691177572538598	21.4831934539707	3524.51282051282	3665.934065934066	0.3897435897435898	0.08629441624365482	0.5099601593625498
8001.007080078125	-14.32674610004519	-3.553063362031288	27.3253899954817	-51.95344115526855	-1.716028369651796	22.56531821821416	3524.51282051282	3673.260073260073	0.3782051282051282	0.09644670050761421	0.5192563081009296
8020.538330078125	-14.77030494193312	-4.545068931724475	26.96950580668831	-51.23433483556701	-2.850474548941674	23.68487388475339	3528.882051282051	3674.725274725275	0.3858974358974359	0.1104060913705584	0.5126162018592297
8040.069580078125	-14.5302202638833	-5.816785225785561	26.97797361167025	-50.54571656632722	-3.579238403637182	23.65293376103613	3527.425641025641	3671.794871794872	0.3884615384615385	0.1129441624365482	0.5166002656042497
8059.600830078125	-14.74217392856659	-5.879635101378511	25.7826071433408	-48.82180835057206	-6.529993421679311	24.02811666736768	3508.492307692307	3671.794871794872	0.4	0.1370558375634518	0.5033200531208499
8079.132080078125	-14.61947693637328	-4.652789832724533	26.05230636267271	-51.93634084652248	-8.116493930057489	25.2688170298852	3527.425641025641	3670.32967032967	0.391025641025641	0.149746192893401	0.49800796812749
8098.663330078125	-16.55754364711488	-7.001496301029359	28.24563528851232	-52.57624573624219	-11.1909737429264	28.19228436012618	3508.492307692307	3680.58608058608	0.3923076923076923	0.1675126903553299	0.49535192563081
8118.194580078125	-16.4101474540568	-8.528827994479553	26.98525459431975	-50.19251977124063	-9.960453964916196	25.93883025937824	3521.6	3676.190476190476	0.3833333333333334	0.1725888324873096	0.4900398406374502
8137.725830078125	-16.29452953697924	-10.60252516765097	26.54704630207583	-47.73499247375601	-5.047967709001236	24.91809841543066	3531.794871794872	3677.655677655677	0.3923076923076923	0.1802030456852792	0.4873837981407702
8157.257080078125	-16.94374782241494	-9.394507007053219	25.62521775850627	-45.93739542754901	2.817897567036043	24.1440355721302	3527.425641025641	3674.725274725275	0.3846153846153846	0.1979695431472081	0.4873837981407702
8176.788330078125	-15.5431281878922	-11.29374822253657	25.68718121078038	-46.92115944376371	8.74390560640736	24.21977126009554	3537.620512820513	3679.120879120879	0.3858974358974359	0.2068527918781726	0.4913678618857901
8196.319580078125	-12.62605555165693	-11.70460696974957	25.39444483430655	-45.87709433881285	7.63973462530413	24.54679284391274	3520.14358974359	3673.260073260073	0.3897435897435898	0.1979695431472081	0.4780876494023904
8215.850830078125	-12.22498593418553	-12.47891805262646	25.50140658144691	-43.48211817068886	1.724575388079712	25.05023851899026	3508.492307692307	3674.725274725275	0.3897435897435898	0.2296954314720812	0.4754316069057105
8235.382080078125	-13.35272692129177	-12.84451504026455	24.7273078708235	-41.43966378546413	-3.442569995322519	25.16802200445611	3517.230769230769	3673.260073260073	0.3871794871794872	0.2398477157360406	0.4714475431606905
8254.913330078125	-14.75406985261981	-14.13685098731553	24.59301473801882	-40.412023977072	-3.779477123476886	24.69177908533271	3518.687179487179	3677.655677655677	0.3782051282051282	0.2398477157360406	0.4661354581673307
8274.444580078125	-15.47072279203647	-14.32533921081239	24.92772079635286	-40.39683620285673	-0.4149913776867458	24.07654297724478	3524.51282051282	3677.655677655677	0.3730769230769231	0.2525380710659899	0.4594953519256308
8293.975830078125	-15.111834613107	-14.63550857922347	24.81653868930001	-39.66546716175176	1.442441461399053	24.60756301777328	3502.666666666666	3674.725274725275	0.3782051282051282	0.2639593908629441	0.4555112881806109
8313.507080078125	-13.51351179989486	-14.84212231287542	24.64882001051396	-41.07667931366103	1.431592659252153	24.02838165473043	3534.707692307692	3679.120879120879	0.3551282051282051	0.2677664974619289	0.4555112881806109
8333.038330078125	-13.917274543769	-15.33432194156254	24.27254562310019	-40.36342309958315	-0.4480669748666528	25.20133828542407	3523.05641025641	3680.58608058608	0.3743589743589744	0.2690355329949238	0.450199203187251
8352.569580078125	-13.92986298604006	-15.8600691533303	23.01370139599361	-39.99098845715721	-0.08928584550541774	25.88183079819722	3539.076923076923	3682.051282051282	0.3743589743589744	0.2817258883248731	0.450199203187251
8372.100830078125	-14.56727768318492	-16.16397261690631	23.2722316815081	-40.2854591919448	-0.525243368286436	27.82586067117574	3512.861538461538	3682.051282051282	0.3782051282051282	0.2868020304568528	0.451527224435591
8391.632080078125	-13.92992454321498	-16.70616082673748	23.00754567850165	-41.36057485751354	-0.5168421713066572	26.82907699480396	3540.533333333333	3684.981684981685	0.3692307692307693	0.3058375634517767	0.4355909694555112
8411.163330078125	-12.93192884483037	-17.94490571287517	22.80711551696331	-41.37047503626126	-4.637566570985693	27.8726458364394	3511.405128205128	3683.516483516483	0.3692307692307693	0.3185279187817259	0.4395750332005312
8430.694580078125	-13.57188277544066	-18.90009070449724	22.81172245593429	-43.12183374763513	-8.04317631710938	28.7012346642065	3528.882051282051	3683.516483516483	0.367948717948718	0.3172588832487309	0.4196547144754316
8450.225830078125	-13.34178574902155	-19.20018100887285	21.82142509784513	-43.84971522577215	-8.026550320062892	27.66178044389888	3537.620512820513	3684.981684981685	0.367948717948718	0.3299492385786802	0.4342629482071713
8469.757080078125	-13.78346709707443	-18.88639053964713	21.65329029255663	-43.16987211496786	-9.87313435700179	27.70994176641323	3527.425641025641	3682.051282051282	0.3512820512820513	0.3350253807106599	0.4130146082337317
8489.288330078125	-14.18078172687574	-19.50048737893242	21.92182731242605	-42.12288195720515	-10.60469861069056	28.01026286815323	3537.620512820513	3684.981684981685	0.3525641025641026	0.3451776649746193	0.4023904382470119
8508.819580078125	-13.18152410640527	-19.89435296022298	21.84758935947297	-40.30289700678455	-9.895537548947866	30.36803157007132	3515.774358974359	3683.516483516483	0.3602564102564103	0.3527918781725888	0.401062416998672
8528.350830078125	-13.38796840393326	-20.73199806587356	21.20315960667427	-38.13219030596426	-7.304092851006181	32.17469554827447	3533.251282051282	3693.772893772893	0.3525641025641026	0.3705583756345177	0.398406374501992
8547.882080078125	-11.58212404263204	-20.79436240924933	21.78759573679629	-38.35814730373632	-3.301845241993544	34.92311494450583	3549.271794871795	3702.564102564103	0.3564102564102564	0.3718274111675127	0.3851261620185923
8567.413330078125	-12.55946792440287	-21.19032201173772	20.05320755971354	-37.25839369332948	-4.461142218396621	37.12479537528851	3544.902564102564	3708.424908424908	0.3448717948717949	0.3857868020304568	0.3745019920318725
8586.944580078125	-13.24494277029448	-22.33183857123334	19.50572297055228	-37.64961617496986	-2.92381411350563	35.18600514395006	3540.533333333333	3696.703296703297	0.3448717948717949	0.3883248730964466	0.3851261620185923
8606.475830078125	-14.09583467220189	-22.88936082722994	18.41653277981121	-40.11198105979712	1.556044209360779	32.91470255021586	3544.902564102564	3695.238095238095	0.3346153846153846	0.3959390862944162	0.3665338645418326
8626.007080078125	-12.92561984997285	-22.71897010537357	19.43801500271467	-41.56133140029138	3.835961767000504	30.30065944774431	3543.446153846154	3690.84249084249	0.3448717948717949	0.4048223350253807	0.3585657370517928
8645.538330078125	-12.73716563681513	-22.90161655297056	18.28343631848697	-41.30196129924575	-0.1993614391920389	28.67703535969223	3536.164102564102	3690.84249084249	0.332051282051282	0.4048223350253807	0.350597609561753
8665.069580078125	-10.62060097038731	-23.84242378913959	17.93990296126945	-41.72648438212847	-5.763611553295793	27.99541782660684	3539.076923076923	3684.981684981685	0.3269230769230769	0.4187817258883249	0.347941567065073
8684.600830078125	-11.825548812993	-24.17158031426169	17.44511870070039	-40.70694471998448	-12.85154057115038	29.4995106624455	3520.14358974359	3689.377289377289	0.3307692307692308	0.4238578680203046	0.3413014608233732
8704.132080078125	-11.94824580518632	-25.39842558291566	17.17541948136849	-38.29858081014481	-12.77191657256347	28.45095331610846	3537.620512820513	3684.981684981685	0.3217948717948718	0.4276649746192893	0.3266932270916335
8723.663330078125	-12.51911842738654	-24.07415192680113	16.08815726134591	-36.89850635932674	-12.75004257135661	28.65520290975822	3534.707692307692	3692.307692307692	0.3230769230769231	0.4365482233502538	0.3280212483399734
8743.194580078125	-10.94917285624061	-25.33056618442776	17.08271437593951	-37.54898643998153	-14.31204507644772	30.72200477290419	3530.338461538461	3687.912087912088	0.3243589743589744	0.4479695431472081	0.3107569721115538
8762.725830078125	-8.847351133206033	-24.41032920161575	15.26488667939669	-37.16766413708888	-19.97009758101775	33.70436384587809	3537.620512820513	3693.772893772893	0.3243589743589744	0.4479695431472081	0.3107569721115538
8782.257080078125	-10.07772147348178	-27.17688592716801	16.22785265182154	-36.18210008837458	-28.52640311041025	34.56539507123937	3540.533333333333	3696.703296703297	0.3294871794871795	0.4517766497461929	0.298804780876494
8801.788330078125	-13.08331209610799	-27.44893170600786	15.66879038920139	-35.87705416265192	-29.60292289540702	33.47803066535586	3560.923076923077	3696.703296703297	0.3269230769230769	0.4682741116751269	0.2921646746347941
8821.319580078125	-13.28612452031572	-27.36716808063497	15.38754796842855	-34.79147580817933	-23.98914758398994	32.9495118023903	3527.425641025641	3698.168498168498	0.3282051282051282	0.4695431472081218	0.2802124833997344
8840.850830078125	-11.92448535123908	-26.80550056447929	15.55146487609156	-35.0672712057837	-19.18656052484853	33.76987138750177	3528.882051282051	3695.238095238095	0.3141025641025641	0.483502538071066	0.2682602921646746
8860.382080078125	-11.1674053527657	-28.69476674755279	15.25946472342977	-34.33297711186691	-16.95652095834827	34.27419094595307	3515.774358974359	3692.307692307692	0.3256410256410257	0.4695431472081218	0.2669322709163347
8879.913330078125	-10.40730905272126	-29.12554093367461	15.2690947278742	-33.96583006490851	-15.84150117509814	34.52635072517872	3544.902564102564	3701.098901098901	0.308974358974359	0.4898477157360406	0.2563081009296149
8899.444580078125	-10.53260683555493	-29.84975940378183	14.73931644450682	-31.81267368095919	-15.48569684164323	36.49321759584509	3543.446153846154	3705.494505494505	0.3102564102564103	0.4961928934010152	0.2549800796812749
8918.975830078125	-11.57113731805238	-31.26392053953632	14.88626819476198	-29.41600998236685	-16.89649975271419	35.55146217781687	3549.271794871795	3702.564102564103	0.3102564102564103	0.4974619289340101	0.2377158034528552
8938.507080078125	-12.30108660725168	-30.20821021898349	13.89133927483186	-28.03652340326279	-12.34821902723391	33.5606471395747	3555.097435897435	3701.098901098901	0.2884615384615384	0.5088832487309645	0.2363877822045153
8958.038330078125	-10.15999202219013	-30.47994651912643	12.00079778098696	-28.01897308639182	-10.11257866274713	33.40044424711147	3539.076923076923	3696.703296703297	0.3051282051282052	0.5088832487309645	0.2337317397078353
8977.569580078125	-8.794936429905462	-30.4601911288724	12.50635700945395	-30.09124050989095	-10.17295266220735	34.03139928011958	3555.097435897435	3701.098901098901	0.2935897435897436	0.515228426395939	0.2284196547144754
8997.100830078125	-8.315767377898267	-30.50261340986121	12.42326221017343	-29.03243763884971	-16.54874382241292	36.60688645998312	3539.076923076923	3705.494505494505	0.2935897435897436	0.5291878172588832	0.2191235059760956
9016.632080078125	-8.760680477634432	-30.1086357945123	11.93195223655683	-27.32844228262122	-20.60629382363847	36.68723904315319	3540.533333333333	3704.029304029304	0.2961538461538462	0.5304568527918782	0.2111553784860558
9036.163330078125	-10.93276910026802	-30.34405705488315	10.723089973198	-26.55601000011943	-20.66702061692483	39.2264203410332	3546.358974358974	3715.750915750915	0.2884615384615384	0.5279187817258882	0.2031872509960159
9055.694580078125	-10.93655486652558	-30.87869496942455	10.34451334744224	-25.4762817512705	-15.79845876033668	38.75130244222205	3540.533333333333	3715.750915750915	0.2730769230769231	0.5444162436548223	0.197875166002656
9075.225830078125	-10.70679640456853	-31.33228947753963	9.320359543147269	-26.16321249004192	-10.5653385794877	37.33804147283357	3553.641025641025	3709.89010989011	0.2846153846153846	0.5317258883248731	0.1726427622841965
9094.757080078125	-9.02315657806127	-32.85276570231197	9.684342193873089	-26.91516940286092	-7.896364694300095	34.61195680041313	3541.989743589743	3705.494505494505	0.2833333333333333	0.5406091370558376	0.1885790172642762
9114.288330078125	-8.469550743426002	-32.00575374913974	9.044925657399848	-25.24931223521742	-9.66314833573902	32.6574476441545	3559.466666666666	3698.168498168498	0.2653846153846154	0.5469543147208121	0.1726427622841965
9133.819580078125	-7.869423689416967	-32.47342053522732	9.057631058303262	-24.26498570884659	-14.08770426639251	32.09997825848725	3536.164102564102	3695.238095238095	0.2628205128205128	0.5532994923857868	0.1726427622841965
9153.350830078125	-6.356202439387728	-31.90485092083378	8.379756061227226	-22.59204091323597	-19.24102405174152	31.51056874910274	3528.882051282051	3690.84249084249	0.2564102564102564	0.5596446700507614	0.1580345285524568
9172.882080078125	-7.357983904029902	-33.20074394923749	8.201609597009798	-21.57958887905909	-22.94241692568602	31.64956193806728	3509.948717948718	3686.446886446886	0.2551282051282051	0.5634517766497461	0.150066401062417
9192.413330078125	-7.683062420206511	-33.42318387866834	7.693757979348798	-21.59950173858577	-24.04921190886944	31.35473161490579	3531.794871794872	3695.238095238095	0.2576923076923077	0.5545685279187816	0.147410358565737
9211.944580078125	-7.995906447867844	-33.2349037184227	8.409355213215585	-22.31917056844342	-24.41621783829739	30.71690964606847	3534.707692307692	3693.772893772893	0.2551282051282051	0.5532994923857868	0.1381142098273572
9231.475830078125	-9.038592039672368	-33.26025280916167	8.140796032763189	-21.28511814427151	-22.50645940290501	29.70553206508875	3536.164102564102	3690.84249084249	0.2397435897435898	0.567258883248731	0.1394422310756972
9251.007080078125	-7.998137895458681	-32.65572687943288	8.186210454131901	-19.88808124829648	-15.72253831293795	27.55451413438336	3544.902564102564	3690.84249084249	0.241025641025641	0.5710659898477157	0.1301460823373174
9270.538330078125	-8.599034414154209	-32.26420601093501	8.096558584578942	-17.76552541684015	-7.826397838714023	25.98791720836088	3530.338461538461	3687.912087912088	0.2461538461538462	0.5723350253807106	0.1274900398406375
9290.069580078125	-8.725794179892226	-32.33310172446269	7.420582010777429	-17.09164491369072	-3.283541514307197	23.70751148859728	3537.620512820513	3682.051282051282	0.2435897435897436	0.58248730964467	0.1208499335989376
9309.600830078125	-8.417936283399385	-32.0548074306897	6.206371660061581	-16.75734845984978	-0.6339940251593368	22.35314226194173	3515.774358974359	3679.120879120879	0.2307692307692308	0.5647208121827411	0.1142098273572377
9329.132080078125	-6.331534017110433	-32.58207371964154	6.846598288956765	-16.77084870359669	0.5058765552039917	21.52317727692392	3499.753846153846	3673.260073260073	0.2243589743589744	0.5774111675126903	0.1155378486055777
9348.663330078125	-6.974119516948537	-32.95767774942044	6.588048305146302	-15.09036627189405	0.6021265508373842	19.43516571027927	3517.230769230769	3671.794871794872	0.2282051282051282	0.581218274111675	0.099601593625498
9368.194580078125	-6.338520756463812	-32.11347865135616	6.147924353618883	-13.73360510309728	-3.463648250454876	19.55818883738517	3514.317948717948	3673.260073260073	0.2166666666666667	0.5875634517766497	0.100929614873838
9387.725830078125	-6.781710255302227	-33.02893418060629	5.828974469777274	-12.7821291698439	-6.353676475210642	17.39419044583672	3523.05641025641	3664.468864468864	0.208974358974359	0.5748730964467005	0.09827357237715803
9407.257080078125	-6.726047795452895	-33.19899941890027	7.395220454710539	-10.02473104007293	-8.89612516657821	17.23972946889047	3507.035897435897	3663.003663003663	0.2217948717948718	0.58248730964467	0.09030544488711818
9426.788330078125	-6.102391126902579	-33.4965849618284	5.760887309742161	-9.713835008726621	-9.227431496746057	16.09896409885256	3525.969230769231	3665.934065934066	0.2128205128205128	0.5850253807106599	0.08897742363877821
9446.319580078125	-6.50569219196482	-33.14309703996168	5.430780803518115	-8.696770391269553	-8.051861317122631	14.76605571263415	3514.317948717948	3661.538461538461	0.2064102564102564	0.5786802030456852	0.09561752988047809
9465.850830078125	-5.705661290263009	-33.42035901991129	5.43387097369908	-5.252554024758386	-8.692776373164524	13.64288769864402	3495.384615384615	3654.212454212454	0.2051282051282051	0.5761421319796954	0.07968127490039841
9485.382080078125	-7.304461171580776	-34.02095575516495	5.553882841922405	-4.584523627232625	-4.895133503586625	11.41588294303483	3514.317948717948	3654.212454212454	0.2115384615384615	0.5685279187817258	0.07968127490039841
9504.913330078125	-6.346907921546612	-34.14346915308407	5.309207845338829	-2.179084770204794	-5.188116232414186	10.394026078775	3486.646153846154	3649.81684981685	0.2076923076923077	0.5875634517766497	0.08764940239043824
9524.444580078125	-5.549985657178244	-33.64836064009612	5.001434282175627	-0.8312112618747336	-3.237057399775186	8.215182645680159	3496.841025641026	3648.351648351648	0.2064102564102564	0.5799492385786802	0.08632138114209827
9543.975830078125	-4.301548286063579	-34.05389776953732	5.845171393642128	0.5155372261430848	-4.288902784571831	6.999806607989144	3493.928205128205	3645.421245421245	0.2051282051282051	0.5748730964467005	0.09163346613545816
9563.507080078125	-5.740440478520855	-33.4636935782324	5.955952147914504	1.892773764622654	-5.746430493962847	6.935926360554622	3493.928205128205	3638.095238095238	0.1987179487179487	0.58248730964467	0.0743691899070385
9583.038330078125	-4.503175734654104	-33.93486943107627	5.682426534589592	2.894088097708339	-9.436798168847382	6.69998778012606	3496.841025641026	3639.560439560439	0.2012820512820513	0.5862944162436548	0.07702523240371846
9602.569580078125	-5.4587899336783	-33.66046832083107	6.121006632170025	4.584583210189929	-12.35447758970961	5.950375378278327	3488.102564102564	3639.560439560439	0.2012820512820513	0.58248730964467	0.08366533864541832
9622.100830078125	-4.821406015120904	-33.27961069395865	5.859398487909554	5.609297965770241	-13.06399144527844	5.500832941232134	3489.558974358974	3642.490842490842	0.1987179487179487	0.5926395939086294	0.07304116865869853
9641.632080078125	-5.504049230966214	-33.50091027672413	5.595076903378626	5.957657173514204	-10.05286242777608	4.494695001892476	3491.015384615384	3638.095238095238	0.2	0.5901015228426395	0.07968127490039841
9661.163330078125	-4.902013904534671	-32.73973518718922	5.798609546532915	6.675525970872274	-7.055559008326954	4.195750057403175	3486.646153846154	3636.630036630037	0.1987179487179487	0.5977157360406091	0.08100929614873838
9680.694580078125	-5.150301076142532	-31.9597343746345	4.969892385746805	8.770631306709912	-5.515783298268843	3.832924865479352	3488.102564102564	3639.560439560439	0.1935897435897436	0.5774111675126903	0.0650730411686587
9700.225830078125	-4.501452133756355	-32.24430257567531	5.854786624364575	10.51737743480359	-6.987136605713088	4.476237612895188	3476.451282051281	3641.025641025641	0.2115384615384615	0.5736040609137055	0.07835325365205843
9719.757080078125	-5.561512238181947	-32.82902648559008	3.848776181805422	10.45527631356785	-9.178676173959993	3.136713427786027	3498.297435897436	3635.164835164835	0.1961538461538462	0.5913705583756345	0.0650730411686587
9739.288330078125	-5.404590072305058	-33.17367171927958	3.540992769494233	8.014061810610729	-7.723772466649167	2.578741768241859	3511.405128205128	3635.164835164835	0.2012820512820513	0.5926395939086294	0.07702523240371846
9758.819580078125	-5.801673862700414	-33.36492478328795	3.832613729958522	9.045189181970818	-6.186620758671246	1.594064669339347	3482.276923076923	3633.699633699634	0.2025641025641026	0.5951776649746192	0.0743691899070385
9778.350830078125	-5.874602494542956	-33.02511301897314	4.539750545704354	8.29795735446324	-5.775337636090358	-0.2219535718316695	3467.71282051282	3623.443223443223	0.1871794871794872	0.5888324873096447	0.08764940239043824
9797.882080078125	-6.18886233722744	-33.29694134709259	5.113766277255977	7.55072552695566	-5.364054513509468	-2.037971813002686	3489.558974358974	3626.373626373626	0.1987179487179487	0.5901015228426395	0.07038512616201859
9817.413330078125	-5.907765806959161	-33.10854115035586	5.223419304083826	7.181215937341552	-5.350228915456239	-2.745164807853045	3470.625641025641	3623.443223443223	0.191025641025641	0.5901015228426395	0.07569721115537847
9836.944580078125	-5.311439908501416	-33.07236876933665	4.85600914985848	5.75942859449721	-3.848600409825347	-4.181011637990908	3474.994871794872	3621.978021978022	0.1948717948717949	0.5850253807106599	0.06640106241699867
9856.475830078125	-5.786238401089316	-32.95743767643825	5.376159891068422	5.740078245126652	-3.453943284290946	-4.957575658854305	3483.733333333333	3617.582417582417	0.2012820512820513	0.5862944162436548	0.0743691899070385
9876.007080078125	-5.740178860527446	-33.11780396625189	5.982113947255349	5.396331620662881	-1.588109248225369	-5.423339294697587	3482.276923076923	3617.582417582417	0.1974358974358974	0.58248730964467	0.07702523240371846
9895.538330078125	-5.622668060321107	-32.9241821821526	5.733193967889315	6.086074910214907	0.6860311145147691	-6.418746813818672	3474.994871794872	3613.186813186813	0.1884615384615385	0.583756345177665	0.08499335989375829
9915.069580078125	-6.427777428953787	-32.94948325829514	5.222257104621343	5.789804142927737	2.880371081754933	-5.411483854166771	3472.082051282051	3614.652014652014	0.1961538461538462	0.5901015228426395	0.07171314741035856
9934.600830078125	-4.747123125430131	-33.00540564331556	5.287687456986923	5.820292193389488	2.474688757160562	-4.259988063910278	3466.25641025641	3620.51282051282	0.2	0.5901015228426395	0.09428950863213811
9954.132080078125	-5.348312040706529	-32.88282022350179	5.168795929347136	5.475983058769595	2.839070684508316	-4.244018002051647	3476.451282051281	3620.51282051282	0.1974358974358974	0.5862944162436548	0.06905710491367861
9973.663330078125	-5.022233220437475	-33.1613906012043	5.776677956252546	4.806715138900368	3.173177413669423	-3.43551385747099	3472.082051282051	3619.047619047619	0.2012820512820513	0.5850253807106599	0.07835325365205843
9993.194580078125	-5.026788451381528	-32.77217443333542	5.321154861847232	5.214925427255592	2.370037564547391	-1.175192820893838	3470.625641025641	3621.978021978022	0.2064102564102564	0.5761421319796954	0.08499335989375829
10012.72583007813	-4.789243006797143	-32.69517225544258	5.075699320285674	5.153386816175969	1.67995010501831	-2.996450703704912	3485.189743589744	3623.443223443223	0.2038461538461538	0.5786802030456852	0.08897742363877821
10032.25708007813	-4.274571469726797	-33.50268281557593	4.542853027320305	5.494770897984033	0.9429614502560924	-2.985720283486339	3476.451282051281	3621.978021978022	0.2025641025641026	0.581218274111675	0.08366533864541832
10051.78833007813	-4.988715954265481	-33.96293534773033	5.128404573451867	6.200376973938668	0.9483858513295422	-2.696129601964911	3488.102564102564	3623.443223443223	0.2076923076923077	0.5862944162436548	0.08366533864541832
10071.31958007813	-5.107904187488381	-32.9625552321752	5.209581251161891	6.552898756837924	0.2003719975073557	-2.310467412353241	3474.994871794872	3621.978021978022	0.2064102564102564	0.5926395939086294	0.08233731739707835
10090.85083007813	-5.30392993316122	-32.84918461366102	5.607006683878051	6.930620994731397	-0.1970855270203054	-1.201642166032583	3460.430769230769	3624.908424908425	0.2064102564102564	0.5736040609137055	0.08100929614873838
10110.38208007813	-5.310070261359454	-32.49682903602695	4.992973864054672	5.510633684386641	-1.325754511410596	-1.700722082843826	3488.102564102564	3623.443223443223	0.1987179487179487	0.5862944162436548	0.08100929614873838
10129.91333007813	-4.944318457426443	-32.96777681953775	5.568154257355774	5.558109541563242	-0.9972485802360079	-0.2276954873486441	3476.451282051281	3623.443223443223	0.2064102564102564	0.5875634517766497	0.07835325365205843
10149.44458007813	-5.22890835737141	-33.4218794821318	5.109164262858985	5.193887547416671	-1.739661636071676	-0.5065557486514982	3486.646153846154	3630.769230769231	0.2166666666666667	0.5850253807106599	0.08366533864541832
10168.97583007813	-4.499097571815677	-33.13129606785078	6.090242818432188	5.219088002410886	-1.38910530677715	0.2166073080574906	3466.25641025641	3624.908424908425	0.2038461538461538	0.5901015228426395	0.07968127490039841
10188.50708007813	-5.377951204858585	-32.7775000523236	6.204879514141529	4.508194330988715	-0.6382910539617039	-0.5013161070114409	3483.733333333333	3623.443223443223	0.2115384615384615	0.5862944162436548	0.09030544488711818
10208.03833007813	-5.858351400364173	-32.65691123947833	6.164859963582774	4.869491272323457	-0.2684847255405001	-0.195755363631383	3488.102564102564	3623.443223443223	0.208974358974359	0.5913705583756345	0.08897742363877821
10227.56958007813	-6.344461023843556	-33.26132513514877	5.553897615644386	4.548020050042073	1.575298912405139	0.08834453931152841	3480.820512820513	3626.373626373626	0.1974358974358974	0.5862944162436548	0.08764940239043824
10247.10083007813	-5.228723685846652	-32.88360446191027	5.127631415334877	4.576145557848117	2.298461969114127	0.7848071139433134	3472.082051282051	3627.838827838828	0.2025641025641026	0.5786802030456852	0.07835325365205843
10266.63208007813	-5.942698888154307	-32.76710489219492	5.730111184569339	4.875341377947113	0.4767287292884267	-0.2491563277857907	3482.276923076923	3626.373626373626	0.2038461538461538	0.5888324873096447	0.08366533864541832
10286.16333007813	-5.785222707703142	-32.49692506521982	5.477729229685823	5.241363404593272	-1.411155704897088	0.9664708468436835	3488.102564102564	3630.769230769231	0.208974358974359	0.5748730964467005	0.09694555112881806
10305.69458007813	-4.668469676320063	-32.65869178076289	5.153032367993715	5.918843972741864	-2.128894360532627	0.5595989537333259	3476.451282051281	3627.838827838828	0.2051282051282051	0.5875634517766497	0.07304116865869853
10325.22583007813	-5.56075816278918	-32.71440348635216	3.924183721081977	5.575097348278093	-0.2630603244670502	0.0938353178900444	3489.558974358974	3627.838827838828	0.2038461538461538	0.5888324873096447	0.07968127490039841
10344.75708007813	-4.431816810772013	-33.35001886727411	4.818318922798683	5.555746998907535	0.1315968010673513	-0.6827287029733523	3493.928205128205	3626.373626373626	0.1987179487179487	0.58248730964467	0.09030544488711818
10364.28833007813	-5.467269434523479	-32.45959633266974	5.273056547652024	5.566322189842607	-1.380880506710441	0.1739367641216562	3483.733333333333	3626.373626373626	0.2064102564102564	0.5888324873096447	0.08499335989375829
10383.81958007813	-5.423379784377528	-33.19469411008639	5.66202156224723	5.210312843975401	-2.50692548902054	0.2967087542891024	3493.928205128205	3630.769230769231	0.208974358974359	0.5939086294416244	0.08366533864541832
10403.35083007813	-5.624560943449886	-32.19150113942331	5.543905655011431	4.879503953102409	-3.282414142036115	1.142643801165538	3469.169230769231	3629.304029304029	0.2025641025641026	0.5850253807106599	0.08233731739707835
10422.88208007813	-5.142714154333687	-32.92893562719989	5.728584566631332	5.582747486401336	-2.148144359659305	0.9772012670622569	3458.974358974359	3627.838827838828	0.1961538461538462	0.58248730964467	0.07569721115537847
10442.41333007813	-5.223352822334913	-33.31210595713404	5.66471776650871	3.833076305495831	-1.049397779629524	0.3605890017236249	3486.646153846154	3629.304029304029	0.2	0.5888324873096447	0.08632138114209827
10461.94458007813	-5.508835301316216	-32.53453788413216	5.116469868378448	3.813725956125273	-0.6547406540951228	-0.4159750191397719	3489.558974358974	3633.699633699634	0.2025641025641026	0.581218274111675	0.08897742363877821
10481.47583007813	-5.584241609449272	-32.99991597445623	5.575839055072741	4.519332032079908	-0.649316253021673	-0.1263843376183445	3488.102564102564	3624.908424908425	0.2051282051282051	0.583756345177665	0.08366533864541832
10501.00708007813	-4.993502024615483	-31.99656295513836	4.649797538451689	4.84665335998495	-1.747886436138385	-0.4638852047156637	3476.451282051281	3627.838827838828	0.1948717948717949	0.583756345177665	0.08632138114209827
10520.53833007813	-6.193956193452041	-32.56102732153651	4.60438065479598	4.88006646325853	-1.780962033318292	0.6609101034636256	3461.887179487179	3624.908424908425	0.2051282051282051	0.5875634517766497	0.08632138114209827
10540.06958007813	-5.944853389276494	-33.38031346144612	5.514661072350609	4.172097844648187	-0.6575410530883825	-0.08371379368250997	3472.082051282051	3621.978021978022	0.2012820512820513	0.5964467005076142	0.0743691899070385
10559.60083007813	-6.067581160057273	-32.53020456680369	5.24188399427272	4.177947950271844	0.0876724017405444	-0.1371147578369178	3472.082051282051	3623.443223443223	0.2025641025641026	0.5761421319796954	0.08233731739707835
10579.13208007813	-5.981417735607009	-32.96030654857538	5.858226439299084	3.484042085564523	1.572674910324948	-0.5335073676671609	3502.666666666666	3629.304029304029	0.2051282051282051	0.583756345177665	0.08632138114209827
10598.66333007813	-4.906169013841747	-33.35092314217368	5.383098615825364	3.478754490096987	2.328913564213844	-0.9618401012146651	3480.820512820513	3626.373626373626	0.2051282051282051	0.583756345177665	0.08100929614873838
10618.19458007813	-6.144788015556729	-32.4937641042877	5.521198444327075	3.475829437285158	1.956306836799381	-0.9351396191374612	3501.210256410256	3635.164835164835	0.208974358974359	0.5888324873096447	0.07835325365205843
10637.72583007813	-5.817755059076421	-33.15791354417897	6.224494092357922	3.800225712378372	0.4851299262682055	-1.245940004157577	3476.451282051281	3627.838827838828	0.2115384615384615	0.583756345177665	0.08764940239043824
10657.25708007813	-5.065137955784713	-32.88882604927282	5.486204421528759	4.163885196368823	-0.27390912661395	-0.4853460451528103	3473.538461538461	3629.304029304029	0.2	0.5850253807106599	0.08897742363877821
10676.78833007813	-5.428304358371099	-32.88202798266057	5.169564162890133	4.133397145907072	0.1317731979804205	-1.636841835409304	3480.820512820513	3624.908424908425	0.2102564102564103	0.5901015228426395	0.08764940239043824
10696.31958007813	-5.474656295513836	-32.99059714153102	4.534370448616379	4.15331000543375	1.238568181163842	-1.342011512247819	3492.471794871794	3630.769230769231	0.2038461538461538	0.5901015228426395	0.09030544488711818
10715.85083007813	-5.86716946567141	-32.60954345505648	5.283053432858972	4.164447706524943	1.227542982103873	-0.9670797428547224	3474.994871794872	3629.304029304029	0.2064102564102564	0.5926395939086294	0.08764940239043824
10735.38208007813	-4.983129640641525	-32.93011598602898	5.687035935847574	4.150947462778043	2.367413562467201	-1.797044727872527	3482.276923076923	3621.978021978022	0.1987179487179487	0.583756345177665	0.0743691899070385
10754.91333007813	-5.499155435560102	-33.73662224085353	6.084456443989741	4.506394298489128	1.992006436059478	-1.438083020338061	3489.558974358974	3630.769230769231	0.2115384615384615	0.58248730964467	0.08764940239043824
10774.44458007813	-5.388800656938171	-32.6511574903386	5.119934306182925	4.522819595047857	1.224742583110613	-0.6348185173974605	3488.102564102564	3635.164835164835	0.2012820512820513	0.5913705583756345	0.07968127490039841
10793.97583007813	-5.45874376579711	-32.77589956577568	6.125623420288997	4.858916081388385	1.243992582237292	-1.052420830726391	3491.015384615384	3630.769230769231	0.2115384615384615	0.5862944162436548	0.08632138114209827
10813.50708007813	-6.501167739608226	-32.45535904453415	5.883226039177448	5.217287969911299	1.241192183244032	-0.7201596052691296	3461.887179487179	3627.838827838828	0.2102564102564103	0.5913705583756345	0.08897742363877821
10833.03833007813	-5.46391456849036	-32.84760013197858	5.608543150964046	4.859478591544505	2.745444690955115	-1.534154528428303	3489.558974358974	3627.838827838828	0.2064102564102564	0.5901015228426395	0.08499335989375829
10852.56958007813	-4.821344457945984	-33.43351902055148	5.865554205401518	4.864766187012042	1.989206037066219	-1.105821794880799	3479.364102564102	3627.838827838828	0.2064102564102564	0.5774111675126903	0.09428950863213811
10872.10083007813	-5.788469848680153	-32.37826083744842	5.153015131984738	5.214362917099471	0.8685854558295687	-0.6934591231919257	3469.169230769231	3626.373626373626	0.2038461538461538	0.5888324873096447	0.07835325365205843
10891.63208007813	-5.906550052754499	-33.14823060056411	5.344994724550109	4.847778380297191	1.255017781297261	-1.427352600119488	3492.471794871794	3629.304029304029	0.2025641025641026	0.581218274111675	0.07968127490039841
10911.16333007813	-5.194021444057455	-32.64788449534812	4.597855594254499	4.517531999580322	1.980981236999509	-1.063151250944965	3483.733333333333	3632.234432234432	0.2115384615384615	0.581218274111675	0.08499335989375829
10930.69458007813	-5.470331903975732	-32.80265708467681	4.96680960242683	4.165010216681064	2.728995090821695	-1.448813440556634	3507.035897435897	3636.630036630037	0.208974358974359	0.5926395939086294	0.08499335989375829
10950.22583007813	-4.787565573780584	-32.889174155097	5.243442621941685	5.200300163196449	0.5070039274750743	-1.041690410507818	3485.189743589744	3629.304029304029	0.2051282051282051	0.5799492385786802	0.07968127490039841
10969.75708007813	-4.262798660023417	-32.93765027645326	5.720133997658365	5.552259435939585	-1.742462035064935	-0.1742945231942364	3456.061538461538	3621.978021978022	0.2102564102564103	0.5862944162436548	0.08632138114209827
10989.28833007813	-6.748146821249045	-32.94591017207693	5.185317875095567	4.497056629897522	-0.6272658549017349	-0.8762478764045374	3493.928205128205	3629.304029304029	0.1923076923076923	0.581218274111675	0.08233731739707835
11008.81958007813	-6.338366863526513	-32.49824946783821	6.163313647348793	4.500544192865471	1.246792981230551	-1.384682056183654	3483.733333333333	3627.838827838828	0.2	0.5913705583756345	0.08897742363877821
11028.35083007813	-5.622267938684129	-31.92458630500595	5.773206131587079	4.862403644356334	3.118051418369578	-1.560855010505507	3472.082051282051	3627.838827838828	0.2038461538461538	0.5926395939086294	0.08764940239043824
11047.88208007813	-4.504176038746548	-33.43385912394291	5.582396125345181	4.509319351300957	2.364613163473941	-1.464783502415265	3493.928205128205	3629.304029304029	0.2076923076923077	0.5850253807106599	0.08366533864541832
11067.41333007813	-5.786823194251053	-32.49530857380643	5.317680574894768	4.494694087241814	0.5015795264016244	-1.331281092029246	3493.928205128205	3632.234432234432	0.208974358974359	0.5850253807106599	0.08100929614873838
11086.94458007813	-5.706846265880213	-33.45762373299944	5.315373411978779	4.494694087241814	0.5015795264016244	-1.331281092029246	3495.384615384615	3632.234432234432	0.2038461538461538	0.5799492385786802	0.09163346613545816
11106.47583007813	-4.741090522288006	-33.08842164941219	5.890947771199366	4.830790573582341	0.5208295255283029	-1.748883405358176	3489.558974358974	3626.373626373626	0.1974358974358974	0.5723350253807106	0.08366533864541832
11126.00708007813	-5.222644914823337	-33.0820517129515	5.735508517666293	5.191525004760964	-0.610816254768316	-0.9615889642762063	3461.887179487179	3627.838827838828	0.2038461538461538	0.5939086294416244	0.08897742363877821
11145.53833007813	-5.101533019884198	-32.89206703453235	5.846698011580135	4.480631333338793	0.13999799804713	-1.679512379345138	3498.297435897436	3624.908424908425	0.1987179487179487	0.5799492385786802	0.08366533864541832
11165.06958007813	-5.470024118101134	-32.57219871764092	4.997588189886648	5.199737653040328	-0.9944481812427484	-0.5599567128059061	3477.907692307692	3626.373626373626	0.1961538461538462	0.5901015228426395	0.0743691899070385
11184.60083007813	-5.58975097660458	-33.2251207443986	5.024902339541989	5.199737653040328	-0.9944481812427484	-0.5599567128059061	3470.625641025641	3626.373626373626	0.2038461538461538	0.5875634517766497	0.08366533864541832
11204.13208007813	-6.107561929595828	-32.56828552803129	5.24380704041721	4.491769034429986	0.1289727989871609	-1.304580609952042	3488.102564102564	3627.838827838828	0.2038461538461538	0.5736040609137055	0.08499335989375829
11223.66333007813	-5.350328038185147	-32.84232252758685	4.967196181485325	4.864203676855921	0.4877539283483958	-0.6240880971788871	3463.343589743589	3627.838827838828	0.2076923076923077	0.5901015228426395	0.08233731739707835
11243.19458007813	-5.811599341584457	-33.54874620346124	6.840065841554294	4.511681893956665	1.235767782170582	-1.009750286790557	3495.384615384615	3626.373626373626	0.2064102564102564	0.5901015228426395	0.08632138114209827
11262.72583007813	-5.312024701663152	-33.61023966670484	4.797529833684823	4.169735301992479	0.4713043282149769	-0.5387470093072181	3480.820512820513	3627.838827838828	0.208974358974359	0.5761421319796954	0.07702523240371846
11282.25708007813	-6.028416023086403	-32.45283827822119	5.158397691359712	3.816651008937102	-0.2821339266806595	-0.4426755012169758	3480.820512820513	3627.838827838828	0.2038461538461538	0.5901015228426395	0.08499335989375829
11301.78833007813	-5.146099798954267	-32.46397766459465	5.390020104573328	3.808438360657737	0.101497999793773	-0.8443077526872762	3505.579487179487	3629.304029304029	0.208974358974359	0.5786802030456852	0.08764940239043824
11321.31958007813	-5.981771689362796	-33.07533367066665	5.822831063720294	4.166810249180651	0.09869760080051343	-0.5120465272300142	3492.471794871794	3629.304029304029	0.2115384615384615	0.581218274111675	0.09163346613545816
11340.85083007813	-5.296127561240155	-33.35706500930129	6.387243875984453	4.852503465608607	-1.002672981309458	-0.5172861688700715	3479.364102564102	3629.304029304029	0.2038461538461538	0.583756345177665	0.09030544488711818
11360.38208007813	-5.338601396362956	-33.16185874351956	6.139860363704411	5.905343728994963	-0.9890237801692985	-0.2703660312844786	3450.235897435897	3620.51282051282	0.208974358974359	0.5774111675126903	0.07835325365205843
11379.91333007813	-6.103206759470265	-33.45729963447349	5.679324052973642	4.15274749527763	-0.262883927553981	-0.8602778145459067	3495.384615384615	3630.769230769231	0.1961538461538462	0.581218274111675	0.08764940239043824
11399.44458007813	-4.783718250348107	-32.50844456714841	5.628174965189417	4.158035090745166	-1.019122581442877	-0.4319450809984025	3493.928205128205	3630.769230769231	0.2128205128205128	0.5799492385786802	0.08764940239043824
11418.97583007813	-5.418501378265146	-32.39192899256758	6.149862173485354	4.505269278176887	-1.010897781376167	-0.474615624934237	3493.928205128205	3632.234432234432	0.2128205128205128	0.5875634517766497	0.08100929614873838
11438.50708007813	-5.542691131950267	-31.88649734134561	5.730886804973326	4.510556873644423	-1.767136435265063	-0.04628289138673281	3470.625641025641	3621.978021978022	0.2012820512820513	0.5888324873096447	0.07304116865869853
11458.03833007813	-5.656893234004675	-33.35269167980912	6.31067659953241	4.852503465608607	-1.002672981309458	-0.5172861688700715	3493.928205128205	3630.769230769231	0.1987179487179487	0.5736040609137055	0.08764940239043824
11477.56958007813	-6.464464889634141	-32.22165969223875	5.55351103658589	4.519894542236029	0.8521358556961498	-0.6081180353202567	3492.471794871794	3632.234432234432	0.2025641025641026	0.58248730964467	0.08499335989375829
11497.10083007813	-5.903441415421058	-32.92060109350165	5.655858457894276	4.88119148357077	1.221942184117353	-0.3025572919401986	3460.430769230769	3621.978021978022	0.2076923076923077	0.58248730964467	0.07569721115537847
11516.63208007813	-6.186661668224064	-32.799164022786	5.333833177593681	4.17322286496043	2.345363164347263	-1.047181189086334	3483.733333333333	3627.838827838828	0.2076923076923077	0.583756345177665	0.08100929614873838
11536.16333007813	-5.343479802475337	-32.96462386103837	5.652019752466288	4.878266430758942	0.8493354567028902	-0.2758568098629947	3456.061538461538	3621.978021978022	0.2051282051282051	0.5799492385786802	0.07304116865869853
11555.69458007813	-5.225430376988451	-33.11769993462628	5.456962301154935	3.81957606174893	0.09047280073380398	-0.4693759832941797	3493.928205128205	3630.769230769231	0.208974358974359	0.5748730964467005	0.08897742363877821
11575.22583007813	-5.938682282490801	-32.80962320237659	6.131771750919971	4.508194330988715	-0.6382910539617039	-0.5013161070114409	3480.820512820513	3629.304029304029	0.2051282051282051	0.5875634517766497	0.09030544488711818
11594.75708007813	-6.308712310080726	-32.64204672066462	5.128768991927391	4.183798055895501	0.8328858565694712	-0.1905157219913257	3464.8	3620.51282051282	0.2076923076923077	0.5888324873096447	0.08897742363877821
11614.28833007813	-5.462360249823639	-32.73378537844735	5.763975017636129	3.481117032752695	1.200068182910485	-0.5068068855899569	3504.123076923077	3630.769230769231	0.2051282051282051	0.583756345177665	0.0743691899070385
11633.81958007813	-5.659186238770432	-32.61960651422647	6.081376122956763	3.821938604404638	-1.038372580569555	-0.01434276766947157	3470.625641025641	3621.978021978022	0.1974358974358974	0.5862944162436548	0.07968127490039841
11653.35083007813	-5.536566193045763	-33.20037583733147	6.343380695423715	3.827226199872174	-1.794611234458451	0.4139899658780327	3479.364102564102	3629.304029304029	0.2102564102564103	0.5850253807106599	0.07835325365205843
11672.88208007813	-6.14632694492972	-32.64605593946713	5.367305507027982	4.531032243327222	0.8411106566361808	-0.2331862659271602	3472.082051282051	3620.51282051282	0.2012820512820513	0.5888324873096447	0.07968127490039841
11692.41333007813	-5.465191879869942	-32.65400235517751	5.480812013005799	3.84005143143173	2.698719892635048	-0.6562793578346071	3493.928205128205	3630.769230769231	0.2051282051282051	0.5850253807106599	0.08499335989375829
11711.94458007813	-5.144253083706677	-33.08122746237933	5.574691629332239	4.17322286496043	2.345363164347263	-1.047181189086334	3493.928205128205	3629.304029304029	0.2064102564102564	0.5774111675126903	0.08897742363877821
11731.47583007813	-5.541229149045925	-33.54182009792515	5.877085095407464	4.169735301992479	0.4713043282149769	-0.5387470093072181	3495.384615384615	3632.234432234432	0.2038461538461538	0.5850253807106599	0.08233731739707835
11751.00708007813	-5.942483438042088	-33.3057840352698	5.751656195791212	4.502344225365058	-1.383504508790631	-0.4479151428570332	3469.169230769231	3627.838827838828	0.1974358974358974	0.5774111675126903	0.07702523240371846
11770.53833007813	-6.102360348315119	-32.5735391251248	5.763965168488142	5.193887547416671	-1.739661636071676	-0.5065557486514982	3461.887179487179	3626.373626373626	0.2012820512820513	0.5786802030456852	0.08897742363877821
11790.06958007813	-5.53707403973885	-32.93063214294068	6.292596026115016	4.485918928806329	-0.6162406558417659	-1.251179645797634	3491.015384615384	3629.304029304029	0.2115384615384615	0.5761421319796954	0.08100929614873838
11809.60083007813	-5.859536375981375	-32.6941759525665	6.046362401862472	4.872416325135285	0.1041220018739633	-0.2224558457085868	3463.343589743589	3620.51282051282	0.2153846153846154	0.58248730964467	0.08632138114209827
11829.13208007813	-5.86718485496514	-32.57106637340828	5.281514503485982	4.508756841144836	0.8631610547561188	-0.9830498047133531	3485.189743589744	3627.838827838828	0.2064102564102564	0.5939086294416244	0.07569721115537847
11848.66333007813	-5.780990651927417	-33.07812251847638	5.900934807258328	5.205587758663985	-0.2492347264138216	-0.613357676960314	3476.451282051281	3629.304029304029	0.2115384615384615	0.5850253807106599	0.09428950863213811
11868.19458007813	-5.706692372942913	-32.8423945494815	5.330762705708689	4.8501409229529	0.1261723999939014	-0.9723193844947797	3492.471794871794	3630.769230769231	0.2115384615384615	0.5875634517766497	0.08764940239043824
11887.72583007813	-5.78726948376922	-32.37947320600846	5.273051623078031	4.505831788333008	0.4905543273416553	-0.956349322636149	3488.102564102564	3627.838827838828	0.2076923076923077	0.583756345177665	0.08100929614873838
11907.25708007813	-5.580363507429335	-32.69614054980406	5.963649257066455	4.861278624044092	0.1151472009339323	-0.5973876151016833	3477.907692307692	3629.304029304029	0.2102564102564103	0.5875634517766497	0.07569721115537847
11926.78833007813	-5.742271804474714	-32.88492086209592	5.772819552528583	4.519894542236029	0.8521358556961498	-0.6081180353202567	3495.384615384615	3630.769230769231	0.2153846153846154	0.583756345177665	0.07968127490039841
11946.31958007813	-5.747473385755423	-32.8796672650024	5.25266142445765	4.539244891606587	0.4574787301617483	0.1684459855431402	3470.625641025641	3626.373626373626	0.208974358974359	0.5862944162436548	0.08499335989375829
11965.85083007813	-6.376916428748185	-33.11469902234894	6.308357125181439	4.5169694894242	0.4795291282816863	-0.5814175532430527	3479.364102564102	3629.304029304029	0.2115384615384615	0.5862944162436548	0.08632138114209827
11985.38208007813	-6.093080604195984	-32.77521935899283	6.691939580401671	4.166810249180651	0.09869760080051343	-0.5120465272300142	3488.102564102564	3630.769230769231	0.1935897435897436	0.58248730964467	0.08632138114209827
12004.91333007813	-6.297985972350979	-32.46057262946397	6.201402764902068	4.505831788333008	0.4905543273416553	-0.956349322636149	3486.646153846154	3627.838827838828	0.2064102564102564	0.5761421319796954	0.08632138114209827
