Time Stamp	Accelerometer X	Accelerometer Y	Accelerometer Z	Gyroscope X	Gyroscope Y	Gyroscope Z	VSenseReg	VSenseBatt	Magnetometer X	Magnetometer Y	Magnetometer Z
479.522705078125	-0.9348534262107988	-32.63272111645017	6.514657378920114	8.18562074434421	-5.68768640197938	-15.61012617880725	3534.707692307692	3689.377289377289	0.2051282051282051	0.5774111675126903	0.1168658698539177
499.053955078125	-4.900659646686439	-32.12571837223131	5.934035331356116	1.061615421821842	1.13146938338355	0.1668186913539811	3485.189743589744	3623.443223443223	0.2141025641025641	0.5850253807106599	0.1181938911022576
518.585205078125	-5.864968796668033	-32.1117661307499	5.503120333196677	5.226063128346785	2.359012365487422	-0.8002610515007413	3486.646153846154	3630.769230769231	0.2012820512820513	0.5736040609137055	0.1088977423638778
538.116455078125	-4.866003572778433	-32.77456716072455	5.399642722156766	3.131520302665266	2.320688764147135	-0.9191695572788305	3492.471794871794	3629.304029304029	0.2051282051282051	0.5901015228426395	0.102257636122178
557.647705078125	-4.105999608496368	-32.97447885695713	5.400039150363248	3.837126378619901	2.326113165220584	-0.6295788757574032	3470.625641025641	3627.838827838828	0.208974358974359	0.583756345177665	0.1075697211155378
577.178955078125	-4.064326016647523	-33.16887687703215	5.567398335247761	4.542169944418416	0.8300854575762118	0.1417455034659362	3458.974358974359	3624.908424908425	0.2128205128205128	0.5710659898477157	0.1075697211155378
596.710205078125	-4.065649495908295	-32.85984785528647	5.435050409170541	3.13917044078851	0.4356047289548795	-0.0358036081066182	3470.625641025641	3616.117216117216	0.2038461538461538	0.5774111675126903	0.1181938911022576
616.241455078125	-3.873732691661342	-32.69983767372974	4.626730833865802	3.841851463931317	0.06842240261386592	0.2804875554920131	3467.71282051282	3627.838827838828	0.217948717948718	0.5761421319796954	0.1035856573705179
635.772705078125	-4.625903505434883	-33.08476053643385	5.409649456511701	3.13917044078851	0.4356047289548795	-0.0358036081066182	3486.646153846154	3623.443223443223	0.2115384615384615	0.5913705583756345	0.1221779548472776
655.303955078125	-4.81545035844743	-33.17024129181424	6.454964155257044	3.142095493600339	0.8082114563693429	-0.06250409018382208	3469.169230769231	3621.978021978022	0.2012820512820513	0.5862944162436548	0.1062416998671979
674.835205078125	-4.30324110837387	-32.8214187882347	5.675889162613125	2.447627118736897	0.791761856235924	0.02283699768784697	3476.451282051281	3620.51282051282	0.2064102564102564	0.58248730964467	0.1142098273572377
694.366455078125	-4.505022449901693	-33.3176196332916	5.49775500983068	3.489329681032059	0.8164362564360523	-0.1051746341196566	3488.102564102564	3624.908424908425	0.2102564102564103	0.5875634517766497	0.1128818061088977
713.897705078125	-4.424276056844358	-33.20378887489489	5.572394315564239	3.143895526099925	-1.822086033651839	0.874262823142798	3469.169230769231	3626.373626373626	0.1987179487179487	0.5748730964467005	0.1102257636122178
733.428955078125	-4.541402124707449	-33.35933770019932	5.859787529255047	3.48584211806411	-1.057622579696234	0.4032595456594594	3492.471794871794	3629.304029304029	0.1987179487179487	0.5862944162436548	0.1128818061088977
752.960205078125	-3.539990003114793	-33.13999471223867	6.000999688520694	3.844776516743145	0.4410291300283294	0.2537870734148092	3470.625641025641	3627.838827838828	0.2038461538461538	0.58248730964467	0.1168658698539177
772.491455078125	-3.54740764269261	-32.59404135780353	5.259235730739067	3.498104839467545	1.934256438679443	-0.1852760803512684	3473.538461538461	3624.908424908425	0.2038461538461538	0.5723350253807106	0.1075697211155378
792.022705078125	-3.548577229016082	-33.66978315253991	5.142277098391757	3.495179786655716	1.561649711264979	-0.1585755982740645	3480.820512820513	3623.443223443223	0.2128205128205128	0.58248730964467	0.099601593625498
811.553955078125	-3.983579623590187	-33.05504611863545	5.642037640981319	3.83656386846378	0.8246610565027619	-0.1478451780554912	3480.820512820513	3624.908424908425	0.2038461538461538	0.5748730964467005	0.1049136786188579
831.085205078125	-4.263091056604285	-32.20658572513736	5.690894339571537	3.466491768693552	-0.6629654541618324	-0.3733044752039374	3489.558974358974	3627.838827838828	0.2012820512820513	0.5748730964467005	0.1049136786188579
850.616455078125	-3.463121712077395	-32.32993937849414	5.68782879226054	3.133320335164853	-0.3096087258740474	0.01759735604778967	3479.364102564102	3620.51282051282	0.2012820512820513	0.5875634517766497	0.1115537848605578
870.147705078125	-5.30399149033614	-32.69527628706819	5.600850966386088	3.839488921275609	1.197267783917225	-0.1745456601326951	3461.887179487179	3621.978021978022	0.2051282051282051	0.5710659898477157	0.1102257636122178
889.678955078125	-3.914421368711473	-32.96797287913987	4.557863128852709	3.839488921275609	1.197267783917225	-0.1745456601326951	3480.820512820513	3621.978021978022	0.2012820512820513	0.5748730964467005	0.1075697211155378
909.210205078125	-5.476302949942937	-32.87354940517302	4.36970500570635	3.486404628220231	0.443829529021589	-0.07847415204245273	3467.71282051282	3621.978021978022	0.2064102564102564	0.5850253807106599	0.1035856573705179
928.741455078125	-4.907184707227921	-32.8114357533921	5.281529277207963	4.533394785982931	-0.2877347246671786	0.2218469496975479	3469.169230769231	3626.373626373626	0.2115384615384615	0.5748730964467005	0.1035856573705179
948.272705078125	-4.787396291549555	-32.31242205322726	5.260370845044585	3.472341874317209	0.08224800066709453	-0.4267054393583452	3488.102564102564	3627.838827838828	0.1974358974358974	0.5977157360406091	0.1168658698539177
967.803955078125	-4.75234009600457	-31.96167496457384	4.765990399542998	3.481117032752695	1.200068182910485	-0.5068068855899569	3493.928205128205	3630.769230769231	0.1935897435897436	0.5964467005076142	0.1062416998671979
987.335205078125	-4.272817090241587	-32.88907012347138	4.718290975841271	3.492817244000009	2.690495092568339	-0.6136088138987725	3476.451282051281	3627.838827838828	0.1987179487179487	0.583756345177665	0.1128818061088977
1006.866455078125	-4.220571053600295	-33.5172232358637	5.94289463997055	3.475829437285158	1.956306836799381	-0.9351396191374612	3489.558974358974	3626.373626373626	0.2025641025641026	0.581218274111675	0.1088977423638778
1026.397705078125	-4.341113544671426	-33.13085993526647	5.888645532857372	3.83656386846378	0.8246610565027619	-0.1478451780554912	3458.974358974359	3621.978021978022	0.2115384615384615	0.581218274111675	0.1128818061088977
1045.928955078125	-5.075987407864298	-32.76248348728782	4.401259213570155	3.467054278849673	0.8384866545559904	-0.8550381729058494	3486.646153846154	3627.838827838828	0.2064102564102564	0.583756345177665	0.1075697211155378
1065.460205078125	-4.78319501436129	-33.8166653431874	5.680498563871108	3.816651008937102	-0.2821339266806595	-0.4426755012169758	3464.8	3627.838827838828	0.2	0.581218274111675	0.100929614873838
1084.991455078125	-4.582598648450667	-32.35772921121867	5.740135154933252	3.81957606174893	0.09047280073380398	-0.4693759832941797	3477.907692307692	3627.838827838828	0.1948717948717949	0.5736040609137055	0.09827357237715803
1104.522705078125	-4.903306605207984	-33.50766032873994	5.669339479201677	3.803150765190201	0.8577366536826689	-1.27264048623478	3479.364102564102	3627.838827838828	0.2166666666666667	0.5964467005076142	0.1035856573705179
1124.053955078125	-4.787504016605664	-33.04308248168982	5.249598339433648	3.811925923625686	1.975556835926059	-1.352741932466392	3488.102564102564	3627.838827838828	0.2051282051282051	0.5888324873096447	0.1062416998671979
1143.585205078125	-4.467550135241114	-33.00777436340647	5.24498647588867	3.467616789005794	2.339938763273813	-1.336771870607762	3505.579487179487	3629.304029304029	0.208974358974359	0.5850253807106599	0.1102257636122178
1163.116455078125	-4.304949319977889	-32.55046272528387	5.505068002211133	3.839488921275609	1.197267783917225	-0.1745456601326951	3464.8	3620.51282051282	0.2	0.5774111675126903	0.1168658698539177
1182.647705078125	-4.110908793196209	-32.70028981117952	4.909120680379142	4.172660354804308	0.8439110556294402	-0.5654474913844221	3469.169230769231	3626.373626373626	0.2115384615384615	0.5786802030456852	0.09428950863213811
1202.178955078125	-3.976546716355619	-33.63907243186544	6.345328364438172	3.809000870813858	1.602950108511596	-1.326041450389188	3485.189743589744	3629.304029304029	0.2	0.5748730964467005	0.1075697211155378
1221.710205078125	-3.944322150856937	-34.20854231994218	5.567784914306256	4.167372759336772	1.600149709518336	-0.9937802249319263	3472.082051282051	3627.838827838828	0.2038461538461538	0.58248730964467	0.1088977423638778
1241.241455078125	-4.386065056084743	-32.74084352412365	5.393494391525792	4.156235058245579	1.611174908578305	-1.368711994325023	3473.538461538461	3626.373626373626	0.2051282051282051	0.58248730964467	0.1035856573705179
1260.772705078125	-3.187826945545292	-33.63567940038387	5.217305445470807	4.506394298489128	1.992006436059478	-1.438083020338061	3476.451282051281	3627.838827838828	0.1987179487179487	0.5850253807106599	0.1049136786188579
1280.303955078125	-3.907234568539606	-32.93677000885192	5.276543146039472	5.209075321631935	1.624824109718465	-1.12179185673943	3470.625641025641	3627.838827838828	0.2	0.583756345177665	0.1035856573705179
1299.835205078125	-4.547896406661471	-33.12200924465653	5.210359333852875	2.772585903986231	0.8220370544225715	-0.7696970850341804	3482.276923076923	3624.908424908425	0.2076923076923077	0.5786802030456852	0.1075697211155378
1319.366455078125	-4.745091738657782	-33.08438042087872	5.490826134221726	3.120382601574073	2.331713963207104	-1.294101326671927	3486.646153846154	3627.838827838828	0.2038461538461538	0.5761421319796954	0.1035856573705179
1338.897705078125	-3.946045751754687	-32.89910917534315	5.395424824531272	3.834201325808073	1.953506437806121	-0.6028783936801994	3464.8	3626.373626373626	0.2051282051282051	0.5862944162436548	0.102257636122178
1358.428955078125	-5.666819328460467	-33.53497401671646	5.318067153953263	3.456479087914601	2.350963962333782	-1.711703640000858	3498.297435897436	3623.443223443223	0.2051282051282051	0.5850253807106599	0.09827357237715803
1377.960205078125	-4.821129007833767	-32.97219816362636	5.88709921662339	3.130957792509145	0.8192366554293119	-0.4374358595769185	3469.169230769231	3626.373626373626	0.2064102564102564	0.5786802030456852	0.1035856573705179
1397.491455078125	-4.868265798956729	-33.11843615843831	5.173420104327099	3.469979331661501	1.211093381970454	-0.8817386549830533	3477.907692307692	3626.373626373626	0.1974358974358974	0.5913705583756345	0.09827357237715803
1417.022705078125	-4.380494131754515	-32.6695470807741	5.950586824548507	3.120945111730194	3.833166071924927	-1.775835024373839	3489.558974358974	3623.443223443223	0.1961538461538462	0.5799492385786802	0.099601593625498
1436.553955078125	-3.949877685893434	-33.31831584493993	5.012231410656531	3.804275785502443	3.860640871118314	-2.236107881638604	3488.102564102564	3626.373626373626	0.1987179487179487	0.5697969543147208	0.1062416998671979
1456.085205078125	-4.510039359657643	-32.77409101597655	4.996064034235638	4.150947462778043	2.367413562467201	-1.797044727872527	3485.189743589744	3620.51282051282	0.2012820512820513	0.583756345177665	0.09561752988047809
1475.616455078125	-3.82465684952841	-33.40171196659168	5.534315047158952	4.483556386150621	0.5126047254615934	-1.706212861422342	3476.451282051281	3620.51282051282	0.2012820512820513	0.5862944162436548	0.09694555112881806
1495.147705078125	-4.345145539628662	-33.04986454343658	5.485446037133749	4.48648143896245	0.8852114528760569	-1.732913343499546	3467.71282051282	3620.51282051282	0.1961538461538462	0.5875634517766497	0.100929614873838
1514.678955078125	-4.988300443334774	-33.00181655223188	5.169955666522622	4.484118896306741	2.014056834179416	-2.187946559124254	3476.451282051281	3624.908424908425	0.1987179487179487	0.5736040609137055	0.102257636122178
1534.210205078125	-4.018635819135171	-33.40579320728885	6.136418086482905	5.181512323982012	2.403113161727298	-2.299988129073127	3472.082051282051	3624.908424908425	0.2064102564102564	0.5875634517766497	0.1049136786188579
1553.741455078125	-5.1507473656607	-32.84389900683654	4.925263433930068	4.478831300839206	2.770295488068312	-2.616279292671758	3467.71282051282	3621.978021978022	0.2051282051282051	0.5748730964467005	0.09694555112881806
1573.272705078125	-5.06061350342812	-32.20108805384529	5.938649657188091	5.168574590391232	5.04443585080845	-3.611686811792843	3482.276923076923	3620.51282051282	0.2076923076923077	0.5875634517766497	0.1075697211155378
1592.803955078125	-6.180967629543997	-33.0356842326221	5.903237045600323	5.864167985566915	8.063789668377513	-4.660495295068337	3480.820512820513	3620.51282051282	0.2115384615384615	0.5862944162436548	0.1088977423638778
1612.335205078125	-5.469408546351937	-33.11128198356916	5.059145364806285	6.182039142849128	11.48060101047424	-6.818129024664488	3477.907692307692	3614.652014652014	0.1961538461538462	0.58248730964467	0.1088977423638778
1631.866455078125	-4.826361367701936	-32.88999040323643	5.363863229806476	6.865369816621376	11.50807580966763	-7.278401881929254	3476.451282051281	3611.721611721612	0.2076923076923077	0.5748730964467005	0.102257636122178
1651.397705078125	-4.578966775130408	-33.43832048019521	6.103322486959112	7.869609202518888	8.190314862197553	-7.541040944435019	3453.148717948718	3605.860805860806	0.2076923076923077	0.5799492385786802	0.1035856573705179
1670.928955078125	-4.098628136799741	-33.40500096644764	6.137186320025903	9.207582532101222	6.020649295157519	-8.676315535894423	3467.71282051282	3604.395604395604	0.2064102564102564	0.5710659898477157	0.1062416998671979
1690.460205078125	-5.866584672509673	-33.0716725576883	5.341532749032629	10.92147806707744	6.083823693611004	-9.639531794359789	3469.169230769231	3604.395604395604	0.2051282051282051	0.583756345177665	0.1062416998671979
1709.991455078125	-5.815185047023526	-33.58358617942931	6.481495297647408	12.98902040526516	8.401888455677948	-11.18055325861731	3453.148717948718	3598.534798534799	0.2217948717948718	0.583756345177665	0.1102257636122178
1729.522705078125	-6.493519260624461	-33.57846862369237	6.648073937553939	14.01542269131383	12.19673092626259	-13.07529678876924	3469.169230769231	3601.465201465201	0.2128205128205128	0.5926395939086294	0.1088977423638778
1749.053955078125	-5.696212263912845	-33.04528715190956	6.378773608715511	15.72751819379046	14.89020281473725	-14.97527996056122	3540.533333333333	3696.703296703297	0.2025641025641026	0.5786802030456852	0.1102257636122178
1768.585205078125	-5.377150961584629	-32.77830829803029	6.284903841537057	16.72995754718839	14.20273935728836	-16.17468593639361	3559.466666666666	3695.238095238095	0.2166666666666667	0.5723350253807106	0.1181938911022576
1788.116455078125	-5.406097607518839	-33.40445680102135	7.390239248116042	19.43875479947051	8.328880517310562	-16.83870611343122	3537.620512820513	3690.84249084249	0.2294871794871795	0.5850253807106599	0.1261620185922975
1807.647705078125	-6.369544957051559	-33.54522113183946	7.045504294844093	21.45072113423349	3.567417458502701	-17.87241841822186	3523.05641025641	3692.307692307692	0.2282051282051282	0.58248730964467	0.1288180610889774
1827.178955078125	-5.595721407000036	-33.29755214816073	8.427859299996428	22.08893849348484	2.137540945218142	-19.3506846553571	3534.707692307692	3684.981684981685	0.2217948717948718	0.5723350253807106	0.1274900398406375
1846.710205078125	-5.369317811076106	-33.36314285696697	7.068218892389439	24.52779045378626	1.811482619210675	-19.24774621143764	3524.51282051282	3682.051282051282	0.2217948717948718	0.567258883248731	0.1274900398406375
1866.241455078125	-6.354709677895927	-32.63712784070972	8.529032210407348	27.98021946857678	0.786935636694349	-19.96928197395747	3531.794871794872	3687.912087912088	0.2320512820512821	0.5774111675126903	0.1394422310756972
1885.772705078125	-6.641130903794754	-32.51245778716729	7.886909620524638	29.68590235527364	1.233741961622267	-21.33413048389313	3524.51282051282	3679.120879120879	0.2384615384615385	0.5748730964467005	0.1367861885790173
1905.303955078125	-6.830831649744599	-33.21316772606565	8.91683502554007	30.70296697273071	2.409312141245692	-22.66703887011154	3537.620512820513	3683.516483516483	0.2307692307692308	0.5774111675126903	0.1381142098273572
1924.835205078125	-6.796529529592381	-31.97704363665015	8.347047040761929	31.74523204518199	3.935438650163643	-23.27678419962096	3524.51282051282	3677.655677655677	0.2346153846153846	0.5609137055837563	0.147410358565737
1944.366455078125	-7.700974942536377	-32.63739992342287	9.902505746362278	33.12010604100586	3.606756322075987	-23.79569766268019	3534.707692307692	3677.655677655677	0.2487179487179487	0.5609137055837563	0.1567065073041169
1963.897705078125	-6.515971624604649	-31.44194558222623	8.402837539535094	34.84750181972897	2.530060140166144	-23.92894893612775	3505.579487179487	3674.725274725275	0.2397435897435898	0.5621827411167513	0.150066401062417
1983.428955078125	-7.423002438895271	-32.63815215210039	9.699756110472968	34.11962034159195	2.546686137212632	-24.96840315643537	3525.969230769231	3671.794871794872	0.2384615384615385	0.5532994923857868	0.1699867197875166
2002.960205078125	-6.379362710879493	-31.99838212355017	10.0637289120508	36.89400627807777	0.7384257016140216	-24.80133332814292	3511.405128205128	3673.260073260073	0.2487179487179487	0.5532994923857868	0.1699867197875166
2022.491455078125	-7.940798002592787	-32.01979401738128	9.920199740721177	37.89352057866387	-0.3216444832493335	-25.97403882189811	3515.774358974359	3673.260073260073	0.2551282051282051	0.5558375634517766	0.1832669322709163
2042.022705078125	-7.728798170028304	-31.07237538673295	11.1201829971696	40.9881402150876	0.1580610419454224	-27.50956950757711	3530.338461538461	3671.794871794872	0.2576923076923077	0.5520304568527918	0.1885790172642762
2061.553955078125	-8.236005899639643	-30.92624942597934	12.39941003603557	44.76552801512747	-0.8362107423842567	-29.02363935281897	3508.492307692307	3668.864468864469	0.2615384615384616	0.5507614213197969	0.1912350597609562
2081.085205078125	-8.192070081612503	-30.7767784483406	12.79299183874975	46.82902028019112	-1.893656925167422	-29.57449293959546	3527.425641025641	3670.32967032967	0.2756410256410257	0.5304568527918782	0.200531208499336
2100.616455078125	-8.312720297739745	-31.12107557620593	12.72797022602563	49.92600245927056	-2.542796781276025	-30.65499040964976	3521.6	3670.32967032967	0.2705128205128205	0.532994923857868	0.2045152722443559
2120.147705078125	-9.07278581919673	-30.76725555338053	12.72141808032719	52.3542792286369	-1.3563777995057	-31.40871743282531	3507.035897435897	3664.468864468864	0.2743589743589744	0.5279187817258882	0.2204515272244356
2139.678955078125	-10.11216271284932	-31.06517719848372	12.78372871506784	52.67451292857482	0.9315881612876666	-33.11131794679675	3517.230769230769	3660.07326007326	0.2743589743589744	0.5228426395939086	0.2270916334661355
2159.210205078125	-10.05383790518471	-29.89177756191728	14.61620948152854	53.72791570211729	2.446689471145648	-33.34613150691307	3501.210256410256	3657.142857142857	0.2910256410256411	0.5190355329949238	0.2377158034528552
2178.741455078125	-9.420778378165425	-29.69885999189907	13.92216218345762	53.71677800102609	2.457714670205617	-33.72106327630617	3508.492307692307	3665.934065934066	0.2910256410256411	0.5088832487309645	0.2337317397078353
2198.272705078125	-9.699766575192705	-29.15862037443998	14.02334248072953	53.70744033243449	-0.1615576207555953	-33.15922813237264	3502.666666666666	3657.142857142857	0.2871794871794872	0.515228426395939	0.250996015936255
2217.803955078125	-9.692118096208942	-28.2817299535982	14.78819037910601	53.35435603937912	-0.9149958756512318	-33.0631566242824	3514.317948717948	3658.608058608058	0.2923076923076923	0.4936548223350253	0.2602921646746348
2237.335205078125	-10.08187658278886	-27.78807388215248	15.81234172111399	53.33624321235202	-4.652088348855836	-32.42122003411726	3523.05641025641	3665.934065934066	0.2961538461538462	0.4949238578680203	0.2629482071713147
2256.866455078125	-11.12760925475191	-27.19496080654673	15.23907452480939	53.99909851644147	-7.232860641563692	-32.6945895168416	3504.123076923077	3658.608058608058	0.3	0.483502538071066	0.2775564409030544
2276.397705078125	-11.83130440884798	-27.78115177783277	16.86955911520179	55.34877205727111	-7.912099298945874	-33.93666603660982	3498.297435897436	3658.608058608058	0.3051282051282052	0.4796954314720812	0.2881806108897742
2295.928955078125	-13.51817598703852	-26.18048840693724	16.18240129614787	53.91348447067988	-5.270600212951654	-36.20247785176549	3505.579487179487	3651.282051282051	0.3141025641025641	0.4784263959390863	0.2921646746347941
2315.460205078125	-12.43327817810461	-25.6962351939605	16.67218218953946	54.25306851998835	-3.377291377692689	-37.12851434487354	3502.666666666666	3652.747252747252	0.3179487179487179	0.465736040609137	0.3014608233731739
2334.991455078125	-11.67042719448251	-25.01440699511113	16.95728055174927	54.6143654613231	-3.007485049271484	-36.82295360149348	3492.471794871794	3651.282051282051	0.3243589743589744	0.4467005076142132	0.3094289508632138
2354.522705078125	-12.02525259986728	-24.86218718182635	17.47474001327172	56.36988674785226	-3.361018174472339	-36.25974230030926	3482.276923076923	3648.351648351648	0.3282051282051282	0.4441624365482233	0.3134130146082337
2374.053955078125	-12.57791968758503	-25.05630111553912	18.20803124149741	54.61965305679063	-3.76372370316038	-36.39462086794597	3504.123076923077	3652.747252747252	0.3294871794871795	0.4403553299492385	0.3200531208499336
2393.585205078125	-12.97147932971624	-24.0588058769866	18.85206702837662	54.28940667607377	-3.037760247458132	-36.03041951877145	3517.230769230769	3654.212454212454	0.3384615384615385	0.4378172588832487	0.3346613545816733
2413.116455078125	-12.60954407062824	-23.9874374117424	19.04559293717598	54.65947877584399	-1.550133736793538	-35.80496022162301	3514.317948717948	3655.677655677655	0.3397435897435898	0.4213197969543147	0.3346613545816733
2432.647705078125	-14.68600485316767	-22.31636586753142	19.39951468323293	55.38207265851348	-0.81052107995113	-35.19383873486289	3495.384615384615	3654.212454212454	0.3397435897435898	0.4086294416243654	0.347941567065073
2452.178955078125	-13.51932956849652	-22.29624636658775	20.06704315034847	55.05295129810885	2.918346593186764	-35.79310478109219	3523.05641025641	3655.677655677655	0.341025641025641	0.4187817258883249	0.3426294820717131
2471.710205078125	-14.19420119100822	-21.94847218169708	20.57988089917796	56.808472584638	2.56481346798591	-35.22989347990797	3498.297435897436	3654.212454212454	0.3512820512820513	0.4035532994923858	0.3545816733067729
2491.241455078125	-14.47111183338196	-21.60263858674575	20.88881666180365	55.76969507515467	2.912745795200245	-35.12858233017767	3505.579487179487	3655.677655677655	0.3564102564102564	0.3946700507614213	0.3745019920318725
2510.772705078125	-13.67188117495411	-20.87909232098865	20.81188250458908	55.73571946172498	1.444369283662329	-35.77164394065504	3508.492307692307	3658.608058608058	0.3576923076923077	0.3845177664974619	0.3652058432934927
2530.303955078125	-13.62288227928983	-20.38858120560958	21.71177207101728	55.01785066436691	-1.552934135786798	-35.47269899616574	3514.317948717948	3655.677655677655	0.3730769230769231	0.3654822335025381	0.3944223107569721
2549.835205078125	-14.3747606964825	-19.5045686196296	22.52393035175	57.08314296193014	-5.240677808591145	-35.08678566961562	3512.861538461538	3658.608058608058	0.3743589743589744	0.3680203045685279	0.3837981407702523
2569.366455078125	-15.21571111464039	-19.91828562036705	22.42888853596108	57.40461418421153	-7.084461446536782	-35.37088557255852	3512.861538461538	3657.142857142857	0.3705128205128205	0.3591370558375635	0.3824701195219123
2588.897705078125	-14.65205607119949	-18.19680798347313	22.79439288005092	59.12559734715487	-10.40782319199337	-34.96900218414977	3499.753846153846	3658.608058608058	0.3833333333333334	0.3451776649746193	0.397078353253652
2608.428955078125	-15.73002869795495	-17.99574793814243	22.99713020450524	59.81421561639465	-11.13658704668888	-35.00094230786703	3502.666666666666	3657.142857142857	0.3743589743589744	0.3464467005076142	0.4050464807436919
2627.960205078125	-16.29217559061031	-17.48797957656051	22.78244093896852	60.85648068884593	-9.610460537770932	-35.61068763737644	3511.405128205128	3657.142857142857	0.3846153846153846	0.3197969543147208	0.4037184594953519
2647.491455078125	-15.92072974799724	-16.19544756990741	23.92702520027627	62.64068999333725	-7.739378497544976	-34.83274745926235	3501.210256410256	3658.608058608058	0.3871794871794872	0.3109137055837563	0.4063745019920318
2667.022705078125	-16.20154927097838	-16.07643523631184	23.84507290216225	61.24410310548714	-5.887193662619557	-35.54543123269122	3515.774358974359	3658.608058608058	0.3897435897435898	0.2918781725888325	0.4196547144754316
2686.553955078125	-16.32004498598343	-13.80752379492596	23.99550140165687	61.63060050181608	-5.166831004903829	-34.51670743260218	3501.210256410256	3657.142857142857	0.3935897435897436	0.2956852791878172	0.4169986719787516
2706.085205078125	-18.0357708743458	-13.06387141691074	24.42291256541989	61.97018455112456	-3.273522169644864	-35.44274392571022	3523.05641025641	3657.142857142857	0.3974358974358974	0.2855329949238579	0.4262948207171314
2725.616455078125	-18.36027998665441	-12.7099633673252	23.97200133455955	63.03236248310253	-0.6406006775434912	-35.75765893205815	3514.317948717948	3652.747252747252	0.3974358974358974	0.2703045685279188	0.4369189907038512
2745.147705078125	-17.40929796504291	-12.4027629014605	23.07020349570885	62.71494133394522	4.578693905252257	-36.46372690659626	3495.384615384615	3657.142857142857	0.4025641025641026	0.2588832487309645	0.4316069057104913
2764.678955078125	-16.64104533932162	-12.22639036113132	23.89546606783847	60.95120739913669	5.315858956927544	-37.42857045925079	3524.51282051282	3655.677655677655	0.4025641025641026	0.2398477157360406	0.4342629482071713
2784.210205078125	-15.72084128959819	-10.96656568212121	23.91587104018083	61.66975120868209	2.679960668919842	-35.82728109500965	3508.492307692307	3654.212454212454	0.4128205128205128	0.25	0.4435590969455511
2803.741455078125	-16.23785199931549	-10.31053871146059	24.21480006845158	61.68505148492859	-1.090207401464669	-34.06054919666522	3511.405128205128	3663.003663003663	0.4076923076923077	0.2271573604060914	0.4581673306772908
2823.272705078125	-16.58370544645572	-10.59045749907972	25.62945535442774	60.98124544147354	-3.7259292925593	-33.41337296486003	3514.317948717948	3665.934065934066	0.4038461538461539	0.215736040609137	0.4634794156706507
2842.803955078125	-17.156455562491	-8.571979881884092	24.35444375090027	61.68043890164839	-5.9671704550326	-32.58864762148228	3507.035897435897	3660.07326007326	0.4102564102564102	0.200507614213198	0.4581673306772908
2862.335205078125	-17.7535817042227	-7.607344017196612	24.64182957773009	60.001081490258	-3.060516233230346	-31.46410345024145	3540.533333333333	3671.794871794872	0.4115384615384615	0.184010152284264	0.4528552456839309
2881.866455078125	-18.19787923220967	-7.752449667775926	24.21207677903313	59.65733486579423	-1.194682197164771	-31.92986708608473	3520.14358974359	3668.864468864469	0.4076923076923077	0.182741116751269	0.4701195219123506
2901.397705078125	-17.96528914020632	-7.285827199160853	23.47108597936849	59.994556372447	1.827472019397554	-33.31093679481749	3508.492307692307	3664.468864468864	0.4115384615384615	0.1611675126903553	0.4714475431606905
2920.928955078125	-18.1893535634833	-6.068752900881867	25.0646436516701	60.31130250941697	2.241379144058634	-34.50510312900982	3514.317948717948	3660.07326007326	0.4217948717948718	0.1586294416243655	0.4754316069057105
2940.460205078125	-18.31548236817839	-4.715208961985981	24.45176318216122	58.17749647483822	1.490917685069326	-35.69540597881279	3517.230769230769	3660.07326007326	0.4192307692307692	0.1408629441624365	0.4767596281540504
2959.991455078125	-17.42260908854753	-5.121626359028529	25.73909114524661	56.44492560267878	-3.810801295306585	-33.60851943248038	3509.948717948718	3664.468864468864	0.4243589743589744	0.1269035532994924	0.4794156706507304
2979.522705078125	-17.01970814512227	-3.47471015804189	26.02918548777289	54.6707289789664	-8.695812752028157	-33.04806044579755	3515.774358974359	3661.538461538461	0.4230769230769231	0.1154822335025381	0.4833997343957503
2999.053955078125	-18.21485300762201	-3.313767693071001	26.51469923779906	55.05205128185906	-14.35386525659818	-30.06570137282365	3523.05641025641	3667.399267399267	0.4230769230769231	0.09898477157360405	0.4887118193891102
3018.585205078125	-19.25593811287862	-2.34073327522336	26.40618871213772	56.49960158985373	-14.00348532421673	-28.38842518367871	3527.425641025641	3671.794871794872	0.4282051282051282	0.08883248730964466	0.4926958831341301
3038.116455078125	-18.73508007972885	-1.616030657935397	26.4919920271147	56.19275563163149	-10.29666804919877	-28.23782769112182	3501.210256410256	3668.864468864469	0.4397435897435897	0.08121827411167512	0.4873837981407702
3057.647705078125	-19.4165075413695	-0.8770196909091133	26.34924586305005	54.84128205830226	-6.987131901795405	-27.93251808468022	3505.579487179487	3671.794871794872	0.4397435897435897	0.0748730964467005	0.4847277556440903
3077.178955078125	-19.18097809426374	0.2404801828986781	25.90219057362668	54.15963891499837	-2.510250374835326	-28.91744632052119	3530.338461538461	3674.725274725275	0.4397435897435897	0.05456852791878172	0.4833997343957503
3096.710205078125	-18.89652669796233	1.040876580326573	26.34733020376656	53.18240001659466	-1.472230588091909	-26.99487728797982	3508.492307692307	3670.32967032967	0.4538461538461538	0.05964467005076142	0.4754316069057105
3116.241455078125	-18.21959291009082	1.537173454576345	26.04070899091785	52.85159112572167	-2.247719241107483	-26.14894224110338	3523.05641025641	3680.58608058608	0.4448717948717949	0.03807106598984771	0.4794156706507304
3135.772705078125	-17.66572545746215	1.730075019729074	25.42745425378545	52.49794432251017	-4.502609604720942	-25.57113703531123	3533.251282051282	3679.120879120879	0.4461538461538462	0.02030456852791878	0.4820717131474103
3155.303955078125	-18.58494459238686	3.0077171152338	25.50554076131451	52.1835607281959	-6.045362110685382	-23.92193748549419	3536.164102564102	3682.051282051282	0.4346153846153846	0.01395939086294416	0.4887118193891102
3174.835205078125	-19.58390981627646	3.670518145208451	25.60901837235442	54.2640407999744	-6.368620037699588	-24.15126026703199	3539.076923076923	3682.051282051282	0.4512820512820513	0.005076142131979695	0.4847277556440903
3194.366455078125	-19.33549953031876	3.582700679468096	26.45004696812446	53.64044870478219	-3.075709887342713	-22.80649644028278	3524.51282051282	3684.981684981685	0.4474358974358975	0.001269035532994924	0.4820717131474103
3213.897705078125	-19.9903502972596	3.873330723309117	24.96497027404023	52.99750626021942	0.6118573885485648	-22.23829663439695	3531.794871794872	3690.84249084249	0.4397435897435897	-0.01776649746192893	0.4873837981407702
3233.428955078125	-20.38674156943711	4.95060898513148	25.32584305628911	51.96457885635974	1.705003170591827	-22.19038644882106	3512.861538461538	3687.912087912088	0.4525641025641026	-0.02030456852791878	0.4820717131474103
3252.960205078125	-19.43988387854524	5.569667332715298	24.01161214547684	49.5297769691824	5.406572441449402	-23.28349277022155	3531.794871794872	3686.446886446886	0.4538461538461538	-0.03172588832487309	0.4807436918990704
3272.491455078125	-19.48058794488909	6.340009208953367	23.94120551109075	49.20538069408919	6.877749351980577	-22.97269238520143	3527.425641025641	3689.377289377289	0.4435897435897436	-0.04187817258883248	0.4780876494023904
3292.022705078125	-19.7091922098164	5.907822593453025	25.08077901836004	48.53082517875242	7.968094735030579	-22.59252097416828	3540.533333333333	3684.981684981685	0.4461538461538462	-0.05203045685279188	0.4847277556440903
3311.553955078125	-17.99225056724937	7.124480765229552	24.77494327506331	47.14368846152512	5.30489804474256	-21.48507188509832	3543.446153846154	3690.84249084249	0.4423076923076923	-0.06598984771573603	0.4714475431606905
3331.085205078125	-17.75338164340421	7.892453921376713	24.66183565957897	48.23354189318423	0.02487666866044752	-18.2398226126802	3505.579487179487	3687.912087912088	0.4474358974358975	-0.06345177664974619	0.4940239043824701
3350.616455078125	-17.75499751924585	7.932547494438309	24.50024807541492	47.21647727572717	-1.150693510962978	-16.90691422646179	3469.169230769231	3597.069597069597	0.4461538461538462	-0.07868020304568528	0.4674634794156706
3370.147705078125	-18.79686747848269	8.867913076344438	24.31325215173105	47.22063985088246	-4.909836382287519	-15.51511409751047	3444.410256410256	3594.139194139194	0.4448717948717949	-0.09010152284263959	0.4807436918990704
3389.678955078125	-19.31763317587008	9.912347969167241	24.23668241299201	45.82641550568804	-4.186496928665462	-15.77276465531463	3469.169230769231	3600	0.4384615384615385	-0.1053299492385787	0.4741035856573705
3409.210205078125	-19.27515934074728	9.71714170338552	24.48406592527205	45.14893493753945	-3.468758273029923	-15.36589276220428	3454.605128205128	3598.534798534799	0.4358974358974359	-0.1053299492385787	0.4701195219123506
3428.741455078125	-19.44059178605681	10.33961308853276	23.94082139431925	45.14949744769557	-1.9673061643121	-15.84762645990619	3461.887179487179	3598.534798534799	0.4474358974358975	-0.1180203045685279	0.4754316069057105
3448.272705078125	-17.5615879535071	11.36028075611909	23.8412046492903	43.74008532828589	-4.608452456480182	-15.49004090962242	3441.497435897436	3598.534798534799	0.4423076923076923	-0.1218274111675127	0.4661354581673307
3467.803955078125	-18.69031385541205	11.45721699396616	22.96861445879547	44.41992843909019	-6.455036493419081	-15.44187958710807	3460.430769230769	3595.604395604395	0.4384615384615385	-0.1307106598984772	0.4541832669322709
3487.335205078125	-19.37217221727713	12.27358624714221	22.78277827228708	43.73311020234999	-8.356570128744753	-14.47317255006419	3469.169230769231	3604.395604395604	0.4448717948717949	-0.1421319796954315	0.4674634794156706
3506.866455078125	-19.81051408859063	12.2378499987073	22.94859114093761	43.38238845195033	-10.23885376494375	-13.92206782634924	3464.8	3602.930402930403	0.4358974358974359	-0.1459390862944162	0.4621513944223107
3526.397705078125	-19.76290022936204	13.19129846242488	23.70997706379662	42.68263248161934	-9.499064711188272	-14.26505947202507	3445.866666666666	3598.534798534799	0.458974358974359	-0.149746192893401	0.4462151394422311
3545.928955078125	-20.57291878269455	13.44018643205996	22.70812173054454	42.31312289200523	-9.485239113135044	-14.97225246687543	3466.25641025641	3597.069597069597	0.4512820512820513	-0.1598984771573604	0.447543160690571
3565.460205078125	-20.56736324765806	14.54995995705771	23.26367523419427	41.59930416777124	-9.10703158773406	-15.66347539986716	3460.430769230769	3597.069597069597	0.4564102564102564	-0.1700507614213198	0.448871181938911
3584.991455078125	-19.61858189504994	14.35938309861582	22.14181049500586	40.47558762471365	-12.43004053936451	-17.1698182763303	3528.882051282051	3692.307692307692	0.4384615384615385	-0.1763959390862944	0.4435590969455511
3604.522705078125	-21.08948320289368	14.98037803492261	23.05167971063203	40.45038716971943	-12.78059686865904	-17.8929813330393	3550.728205128205	3696.703296703297	0.458974358974359	-0.184010152284264	0.4395750332005312
3624.053955078125	-20.89022570553756	15.78682027028524	22.97742944624396	40.44566208440802	-10.52290610605232	-18.80304776428871	3540.533333333333	3687.912087912088	0.4551282051282051	-0.199238578680203	0.4262948207171314
3643.585205078125	-20.65900526067617	15.67790300559062	22.09947393238313	40.15760396540021	-8.712198065286591	-17.39415255316651	3514.317948717948	3690.84249084249	0.4602564102564102	-0.1928934010152284	0.4276228419654714
3663.116455078125	-22.13807828349049	16.73022829709462	22.19217165095112	39.10645123248222	-4.221490940273283	-19.08627378385783	3543.446153846154	3689.377289377289	0.4512820512820513	-0.2106598984771574	0.4249667994687915
3682.647705078125	-20.3389898221367	16.55930279728114	22.10101778633012	40.22488018007227	-0.1422433347539318	-18.0082636409422	3520.14358974359	3689.377289377289	0.4641025641025641	-0.215736040609137	0.4209827357237715
3702.178955078125	-20.14882739737496	17.10570028673332	21.11726026250441	40.93397381899486	1.737239902451804	-18.22710713919989	3549.271794871795	3695.238095238095	0.4564102564102564	-0.2258883248730964	0.4169986719787516
3721.710205078125	-19.79687978991768	17.148694741663	20.31202100823266	40.97964964367187	4.696043323647574	-17.69084745703133	3546.358974358974	3699.6336996337	0.45	-0.2271573604060914	0.4223107569721115
3741.241455078125	-20.79187457602496	17.88440870640059	20.81254239750422	40.94803657289788	2.098821430806299	-17.87887585188399	3550.728205128205	3702.564102564103	0.458974358974359	-0.233502538071066	0.4236387782204515
3760.772705078125	-19.55876494146528	17.80204489857225	20.12350585347176	40.61542764952529	3.953630267811906	-17.96970771833418	3546.358974358974	3698.168498168498	0.45	-0.232233502538071	0.4236387782204515
3780.303955078125	-20.75823419550313	18.77504730668892	20.17658044968747	39.55673728051529	3.194767611842821	-18.16322689176536	3527.425641025641	3692.307692307692	0.4551282051282051	-0.2461928934010152	0.4169986719787516
3799.835205078125	-20.55962304848367	19.19752697127619	20.03769515163378	38.17893823187959	3.150843212516013	-17.61761294662893	3553.641025641025	3701.098901098901	0.4525641025641026	-0.2588832487309645	0.4130146082337317
3819.366455078125	-19.31583324407543	20.4120684995931	20.41667559245703	38.92144497407575	4.997250852541843	-16.71166113670733	3437.128205128205	3588.278388278388	0.45	-0.2601522842639594	0.4077025232403718
3838.897705078125	-19.8891989318599	20.96962938271696	19.08010681400992	37.50910780185425	1.983497832959297	-16.32737510434636	3440.041025641025	3589.743589743589	0.45	-0.2779187817258883	0.4037184594953519
3858.428955078125	-19.44120797337775	20.88023543772691	19.8792026622247	35.43560285601165	6.054873432238076	-17.11492068236679	3552.184615384615	3699.6336996337	0.4448717948717949	-0.2741116751269035	0.4050464807436919
3877.960205078125	-19.93184204921373	20.58808354662894	18.81579507862698	35.42975275038799	5.309659977409149	-17.06151971821238	3543.446153846154	3698.168498168498	0.4435897435897436	-0.2893401015228426	0.397078353253652
3897.491455078125	-20.01771307708312	21.28712097708473	18.22869229168744	34.08705433549424	9.737016307055903	-16.83631155800239	3560.923076923077	3701.098901098901	0.4564102564102564	-0.2906091370558375	0.4063745019920318
3917.022705078125	-19.89467752042775	21.66747044947818	18.53224795722515	32.70689274420284	10.82193728903246	-16.74573082849067	3539.076923076923	3698.168498168498	0.4512820512820513	-0.2918781725888325	0.4037184594953519
3936.553955078125	-19.57995599893137	22.78498632815145	18.00440010686325	30.99648477219458	12.63282172671126	-16.29094874980441	3461.887179487179	3597.069597069597	0.4397435897435897	-0.2944162436548223	0.398406374501992
3956.085205078125	-18.69936337569698	22.08328008637702	18.06366243030189	29.63274847746191	12.95047885573894	-15.39710351735209	3464.8	3598.534798534799	0.4423076923076923	-0.2969543147208122	0.4090305444887118
3975.616455078125	-18.86430336360716	21.47448485878168	17.5696636392848	28.24381172773503	12.91757965547211	-15.22642134160875	3466.25641025641	3597.069597069597	0.4435897435897436	-0.3109137055837563	0.397078353253652
3995.147705078125	-17.62790042018928	23.15802557823732	17.2099579810724	28.25033684554603	8.029591402844206	-13.37958799703272	3447.323076923077	3600	0.441025641025641	-0.3109137055837563	0.3798140770252324
4014.678955078125	-17.74975100122745	22.81494081893203	17.02489987725499	25.0994661935102	6.103559764231473	-13.23698246061728	3467.71282051282	3598.534798534799	0.4384615384615385	-0.3261421319796954	0.3877822045152722
4034.210205078125	-17.79421005524141	23.97369061733228	16.57899447585912	24.40387279833452	3.084205946662408	-12.18817397734179	3461.887179487179	3602.930402930403	0.4269230769230769	-0.3197969543147208	0.399734395750332
4053.741455078125	-17.90830443223971	23.23815670733134	17.16955677602914	22.67591450945528	2.659450019854429	-11.57318900619232	3463.343589743589	3600	0.4243589743589744	-0.3185279187817259	0.3891102257636122
4073.272705078125	-16.95624516006712	22.85196145782164	16.37548399328781	20.93096841386119	1.500505837277491	-11.27973484028153	3467.71282051282	3600	0.4230769230769231	-0.3236040609137056	0.3877822045152722
4092.803955078125	-18.15155930479789	24.43615182092279	16.84406952021107	20.64527283750909	2.182368496739864	-9.415806413534622	3463.343589743589	3608.791208791209	0.4269230769230769	-0.3274111675126903	0.3771580345285525
4112.335205078125	-18.30857380643716	24.01165954450153	17.14261935628431	18.58639315572563	8.116777733090961	-10.33685440194107	3474.994871794872	3605.860805860806	0.4358974358974359	-0.3286802030456852	0.3864541832669323
4131.866455078125	-17.95945782902618	24.13443702270105	16.05421709738222	17.65888015512301	15.48911188588026	-8.868193564712163	3461.887179487179	3607.326007326007	0.4256410256410256	-0.3350253807106599	0.3771580345285525
4151.397705078125	-16.70951230712598	23.9581458917357	17.04876928740183	14.97179579486715	19.83946821902029	-6.972576151186452	3464.8	3617.582417582417	0.417948717948718	-0.3477157360406091	0.3877822045152722
4170.928955078125	-16.78267177837447	23.8751138807736	17.7328221625528	16.0562491290275	22.45033931300173	-6.537627618748189	3482.276923076923	3620.51282051282	0.4153846153846154	-0.3464467005076142	0.3837981407702523
4190.460205078125	-15.79004694350159	24.06487048985968	16.99530564984063	13.61739716872609	22.7763976390092	-6.640566062667649	3480.820512820513	3619.047619047619	0.4141025641025641	-0.350253807106599	0.3877822045152722
4209.991455078125	-15.79840332999694	24.95792582483536	16.15966700030655	12.90481596683555	19.02285556567117	-5.913288384630844	3498.297435897436	3624.908424908425	0.4128205128205128	-0.348984771573604	0.3891102257636122
4229.522705078125	-16.39132819454037	24.4183183995627	16.86718054596289	9.76395799557868	14.08289451056283	-4.43228368341849	3472.082051282051	3621.978021978022	0.4115384615384615	-0.348984771573604	0.3784860557768924
4249.053955078125	-15.74521854643812	23.9826707319025	17.47814535618828	8.051299982945929	9.887970513370336	-2.050566813924592	3477.907692307692	3620.51282051282	0.4166666666666667	-0.3426395939086294	0.3944223107569721
4268.585205078125	-15.55202443081158	23.94908313665816	16.79755691884179	5.587360069681527	2.728818693908626	-0.4947003081206833	3486.646153846154	3623.443223443223	0.4128205128205128	-0.3515228426395939	0.397078353253652
4288.116455078125	-15.58392582114193	24.71053431012258	17.60741788580651	6.263153107361757	-2.493276287880381	0.5436288918746952	3479.364102564102	3629.304029304029	0.4064102564102564	-0.348984771573604	0.3731739707835325
4307.647705078125	-16.7472616290737	25.34088809151828	17.27383709263	6.582261786987433	-3.20821454452266	-0.1955042266929242	3466.25641025641	3620.51282051282	0.4076923076923077	-0.3527918781725888	0.3798140770252324
4327.178955078125	-17.15770332642662	25.54774189815242	16.22966735733817	3.478191979940866	0.8274614554960214	-0.480106403512753	3489.558974358974	3629.304029304029	0.4076923076923077	-0.350253807106599	0.3877822045152722
4346.710205078125	-18.10974720930548	24.89546006601391	17.0252790694525	2.123793353799804	3.764390875484923	-0.1480963149939499	3467.71282051282	3621.978021978022	0.4128205128205128	-0.3477157360406091	0.3851261620185923
4366.241455078125	-15.95434058107511	24.8400378330397	16.56594189248916	-0.3004333424424646	5.953482838564706	-0.3845371692994281	3486.646153846154	3626.373626373626	0.408974358974359	-0.3578680203045685	0.3891102257636122
4385.772705078125	-15.62472222324817	24.71173867624989	17.52777767518249	-2.043016895380847	3.665693274684409	0.3639502122360644	3488.102564102564	3623.443223443223	0.4051282051282051	-0.3527918781725888	0.3917662682602922
4405.303955078125	-15.71054708323638	24.29534486176105	16.94529167636192	-0.2838955438525111	-1.94843483055881	2.800695340073529	3469.169230769231	3630.769230769231	0.4064102564102564	-0.348984771573604	0.3891102257636122
4424.835205078125	-15.18687280933404	23.97874153742738	17.31271906659624	-2.040541850693916	-4.597805922793601	3.200951434293129	3488.102564102564	3633.699633699634	0.4128205128205128	-0.348984771573604	0.3864541832669323
4444.366455078125	-16.05960150347244	24.0186590569687	18.03984965275598	-3.074594274865834	-6.507564358185984	4.212329015272845	3491.015384615384	3630.769230769231	0.4102564102564102	-0.3439086294416243	0.3837981407702523
4463.897705078125	-16.63299796984438	24.65317410338897	16.70020301556288	-4.11449680466141	-9.162536248407294	5.277107560406969	3482.276923076923	3635.164835164835	0.4153846153846154	-0.3388324873096447	0.3957503320053121
4483.428955078125	-17.22816967127238	24.73122059875433	17.18303287276255	-6.168651401133451	-5.485817774662918	5.266126003249937	3498.297435897436	3638.095238095238	0.4128205128205128	-0.3401015228426396	0.397078353253652
4502.960205078125	-17.42861214424569	23.88751365030354	17.13878557543031	-7.220366644207565	-2.496562758367431	4.05573847026052	3485.189743589744	3633.699633699634	0.4128205128205128	-0.3413705583756345	0.3851261620185923
4522.491455078125	-16.46180992867986	23.64027418181281	17.81900713201429	-11.34791368449098	-1.883122501518925	5.639179341515415	3499.753846153846	3635.164835164835	0.4217948717948718	-0.3388324873096447	0.3930942895086321
4542.022705078125	-15.94947756425646	23.68128003220671	17.05224357435429	-10.9883042736246	-6.01767249925119	7.38994117800121	3491.015384615384	3639.560439560439	0.417948717948718	-0.3299492385786802	0.3864541832669323
4561.553955078125	-16.85798575074515	23.17887330056029	18.20142492548504	-13.08577215211795	-6.42860282800594	7.297733154300325	3491.015384615384	3639.560439560439	0.417948717948718	-0.3197969543147208	0.399734395750332
4581.085205078125	-17.02150992363217	23.03018656133003	17.84900763678312	-12.36959088522824	-7.935655734710283	8.443989302916759	3470.625641025641	3635.164835164835	0.4217948717948718	-0.3324873096446701	0.3930942895086321
4600.616455078125	-18.61549295601248	23.38626327018798	18.4507043987526	-13.78372808994934	-8.319111264271646	7.89150842195111	3496.841025641026	3639.560439560439	0.4166666666666667	-0.3185279187817259	0.4037184594953519
4620.147705078125	-18.18647699669931	22.73911099743553	17.35230033006957	-16.91412337230236	-7.636895810983135	7.847210583826115	3480.820512820513	3638.095238095238	0.417948717948718	-0.3197969543147208	0.399734395750332
4639.678955078125	-18.13958643427602	22.50098229861878	18.04135657239801	-19.68558425597635	-5.456028647970062	7.653440273456472	3486.646153846154	3632.234432234432	0.4115384615384615	-0.3210659898477157	0.3891102257636122
4659.210205078125	-17.98766578886135	22.66138860059612	17.23342111386477	-21.03818284961782	-5.149396718002341	8.922217275301895	3482.276923076923	3638.095238095238	0.4205128205128205	-0.3083756345177665	0.4050464807436919
4678.741455078125	-18.0522072556211	22.03119086663885	18.77927443789065	-22.74330322615856	-4.094750934212438	9.80533208753565	3498.297435897436	3643.956043956044	0.4217948717948718	-0.3172588832487309	0.3930942895086321
4698.272705078125	-18.12762895304788	21.60428985796297	19.23710469521195	-24.80735800137833	-4.538756860147095	10.83791937201405	3485.189743589744	3641.025641025641	0.4230769230769231	-0.299492385786802	0.4156706507304117
4717.803955078125	-17.41142230314939	20.9086134492578	18.85776968506118	-27.25611014042746	-8.333422933818666	11.77854976973003	3482.276923076923	3642.490842490842	0.4243589743589744	-0.3058375634517767	0.4050464807436919
4737.36572265625	-18.48454730237992	19.98939277540372	19.54526976200765	-27.61796959191833	-10.20468137095769	11.95472272405188	3501.210256410256	3645.421245421245	0.4282051282051282	-0.3032994923857868	0.4169986719787516
4756.866455078125	-18.00848688770617	19.71934098735246	19.15131122938296	-27.57285627739744	-8.747330058479745	12.97271610392236	3495.384615384615	3648.351648351648	0.4294871794871795	-0.282994923857868	0.4050464807436919
4776.397705078125	-19.40944508669097	20.46507799909634	19.05549133090305	-26.49020297573667	-3.506161474477129	12.470897723034	3482.276923076923	3648.351648351648	0.4397435897435897	-0.2741116751269035	0.4183266932270916
4795.928955078125	-19.32483598090743	21.92116126379342	19.51640190925733	-28.88754168651636	3.537843144050648	11.51241883233177	3511.405128205128	3649.81684981685	0.4371794871794872	-0.2741116751269035	0.4116865869853917
4815.460205078125	-18.83717203876132	19.63938991299509	20.2827961238678	-30.23372766437806	6.091140637565117	12.24606117232088	3505.579487179487	3648.351648351648	0.4333333333333334	-0.2626903553299492	0.4209827357237715
4834.991455078125	-18.11553296817617	19.36130368247331	20.44670318238283	-32.29193233397417	6.392348166459386	13.22524749264487	3515.774358974359	3652.747252747252	0.441025641025641	-0.2588832487309645	0.4156706507304117
4854.522705078125	-17.11233568851085	18.11730519924211	20.76643114891542	-31.98159881278398	4.559589727573717	12.56621582030887	3501.210256410256	3648.351648351648	0.4384615384615385	-0.2550761421319797	0.4262948207171314
4874.053955078125	-18.00297752055086	18.94454575729483	19.70224794491371	-30.59851216868076	3.847275473011627	12.44893460871993	3496.841025641026	3654.212454212454	0.4397435897435897	-0.25	0.4249667994687915
4893.585205078125	-18.63548303299588	18.36645324794122	20.45169670041231	-33.70078194322774	5.252653983009126	13.10109934522673	3505.579487179487	3648.351648351648	0.4307692307692308	-0.2512690355329949	0.4395750332005312
4913.116455078125	-18.49930501949516	18.88737499276703	22.06949805048427	-35.05338053686921	5.559285912976845	14.36987634707215	3489.558974358974	3649.81684981685	0.4333333333333334	-0.232233502538071	0.4249667994687915
4932.647705078125	-18.03043140499327	16.58612033442782	20.95685950067282	-35.36956416368306	6.646830897033588	15.08230898356257	3492.471794871794	3657.142857142857	0.4371794871794872	-0.233502538071066	0.448871181938911
4952.178955078125	-17.58414865811514	16.7676824523886	21.5851341884856	-35.69801051190034	4.742496862714654	16.38327724606371	3477.907692307692	3646.886446886447	0.4256410256410256	-0.2195431472081218	0.4369189907038512
4971.710205078125	-18.01441115022044	16.53147833864572	22.55888497795637	-34.3846751271561	3.723727075097916	14.0431059001934	3517.230769230769	3655.677655677655	0.4371794871794872	-0.2055837563451776	0.448871181938911
4991.241455078125	-18.7822328757173	17.27774751216678	21.7767124282705	-36.50846848095591	-0.04066380038700657	14.19120221518736	3517.230769230769	3652.747252747252	0.4397435897435897	-0.2106598984771574	0.448871181938911
5010.772705078125	-18.89141806801575	15.26802455638822	22.85819319842463	-38.22821412155579	-0.8490516536694186	15.20781943780713	3508.492307692307	3651.282051282051	0.4423076923076923	-0.1890862944162436	0.4621513944223107
5030.303955078125	-19.05338792223605	15.23315257068918	22.66120777639479	-36.49553074736513	-2.681986489468158	15.50290089790707	3489.558974358974	3646.886446886447	0.4448717948717949	-0.1967005076142132	0.451527224435591
5049.835205078125	-19.25093720798815	15.15575427237572	22.90627920118485	-36.89024079197345	-3.018717220709455	14.07254484634772	3518.687179487179	3646.886446886447	0.4397435897435897	-0.1725888324873096	0.4621513944223107
5069.366455078125	-19.51596731560241	13.79728083491227	24.40326843975953	-36.1822721733631	-4.142138200939364	14.81716874349386	3502.666666666666	3654.212454212454	0.4384615384615385	-0.1878172588832487	0.4568393094289509
5088.897705078125	-19.70851508089228	13.21483100093198	25.14849191077164	-34.76284737317447	-4.514921325266896	15.79798235800702	3495.384615384615	3655.677655677655	0.4551282051282051	-0.1789340101522843	0.4661354581673307
5108.428955078125	-19.87367051891468	12.14471491641151	24.63294810853268	-33.02026382023609	-2.2271317613866	15.04949497647152	3508.492307692307	3651.282051282051	0.4487179487179487	-0.1560913705583756	0.4661354581673307
5127.960205078125	-19.27834492454937	11.6818976045641	24.16550754506293	-33.35107271110908	-3.002620414402174	15.89543002334796	3498.297435897436	3654.212454212454	0.4397435897435897	-0.1522842639593909	0.4674634794156706
5147.491455078125	-19.42704920757449	11.47978123811177	25.29507924255127	-33.73993265009375	-2.594137690814544	14.4116730076342	3528.882051282051	3654.212454212454	0.45	-0.1370558375634518	0.4661354581673307
5167.022705078125	-19.84156906776583	10.88306168152041	23.84309322341684	-32.02131202980611	-4.788654054967777	14.35852318041825	3508.492307692307	3649.81684981685	0.4448717948717949	-0.1345177664974619	0.4581673306772908
5186.553955078125	-19.71019251390884	10.40883290058639	24.98074860911563	-30.94327131142554	-4.424448524533093	15.32860637471283	3495.384615384615	3652.747252747252	0.4397435897435897	-0.1230964467005076	0.4674634794156706
5206.085205078125	-19.3132164485696	9.869425536132214	24.6783551430404	-30.22540251406747	-1.427145105083966	15.02966143022353	3523.05641025641	3657.142857142857	0.4435897435897436	-0.1230964467005076	0.4714475431606905
5225.616455078125	-18.67029238426943	9.398533769650587	24.97076157305667	-28.39484237271179	-2.230461351119067	18.24409559923664	3508.492307692307	3663.003663003663	0.4435897435897436	-0.1142131979695431	0.4674634794156706
5245.147705078125	-18.74697600378207	10.12675345612758	25.30239962179271	-26.24517355173042	-3.748715853796447	20.71939664968212	3511.405128205128	3670.32967032967	0.4435897435897436	-0.09644670050761421	0.4687915006640106
5264.678955078125	-18.07171964892712	9.817052230031774	24.828035107288	-27.59833465552802	-4.943536032546552	22.46990734922946	3492.471794871794	3670.32967032967	0.4512820512820513	-0.09644670050761421	0.4794156706507304
5284.210205078125	-19.63050798211887	8.177582292709291	24.94920178811281	-28.97320865135188	-4.614853704458895	22.98882081228869	3530.338461538461	3676.190476190476	0.4512820512820513	-0.08248730964467005	0.4674634794156706
5303.741455078125	-20.96341595537351	7.780742422619553	23.65840446264895	-30.03369905286148	-2.743418870406799	21.85853472553088	3525.969230769231	3670.32967032967	0.441025641025641	-0.08502538071065989	0.4674634794156706
5323.272705078125	-20.92049583073255	7.469700789039867	23.95041692674573	-32.47963864113001	0.9691755995107453	20.3904966347373	3525.969230769231	3670.32967032967	0.4653846153846154	-0.08121827411167512	0.4741035856573705
5342.803955078125	-20.0382257744816	6.573992647611027	24.17742255184037	-33.86508782788895	2.810335235376194	20.05274463070152	3501.210256410256	3660.07326007326	0.4551282051282051	-0.06472081218274112	0.4727755644090305
5362.335205078125	-21.54336764530263	6.804955167909505	25.66323546973664	-34.23988501297059	3.580399487318319	18.91721890230366	3508.492307692307	3663.003663003663	0.4628205128205128	-0.06472081218274112	0.4687915006640106
5381.866455078125	-21.38315217056755	7.226214461503989	25.68478294324551	-34.24517260843813	4.336638141207215	18.48888616875615	3517.230769230769	3661.538461538461	0.4551282051282051	-0.04695431472081218	0.4820717131474103
5401.397705078125	-19.33857738906474	6.278117009109229	26.14226109352628	-33.8727379660122	4.695419270568449	19.16937868152931	3498.297435897436	3661.538461538461	0.4384615384615385	-0.04187817258883248	0.4767596281540504
5420.928955078125	-19.04472313429436	5.56901651948346	27.5276865705636	-32.86557352730286	1.750265050512839	18.88003913694634	3524.51282051282	3665.934065934066	0.4525641025641026	-0.0266497461928934	0.4714475431606905
5440.460205078125	-19.29588810382972	5.54423160025263	26.41118961702819	-29.77905403712726	-4.521051313992624	19.32484420622939	3509.948717948718	3661.538461538461	0.4435897435897436	-0.01522842639593909	0.4860557768924302
5459.991455078125	-19.54272868182697	4.707386737876007	25.72713181730322	-29.09628587351113	-5.995028623517058	19.34630504666654	3508.492307692307	3661.538461538461	0.45	-0.02538071065989848	0.4727755644090305
5479.522705078125	-20.98075907383537	4.142874356881415	25.92409261646309	-29.78839170571886	-7.140323604953837	19.88667935016292	3521.6	3667.399267399267	0.4551282051282051	-0.01776649746192893	0.4780876494023904
5499.053955078125	-19.70134367001414	3.284510952868133	25.86563299858542	-29.05229757930248	-7.540581528474757	21.32776582194084	3495.384615384615	3668.864468864469	0.4525641025641026	0.002538071065989848	0.4754316069057105
5518.585205078125	-22.26749978147203	3.316328625440595	25.25002185279709	-27.65694821379582	-5.26101676466117	20.62194898434118	3524.51282051282	3664.468864468864	0.4538461538461538	0.003807106598984771	0.4701195219123506
5538.116455078125	-21.01569215503051	2.484310615042357	26.43078449694861	-28.66647519516086	-1.1870171633022	20.45625531329944	3505.579487179487	3663.003663003663	0.4551282051282051	0.01395939086294416	0.4674634794156706
5557.647705078125	-21.3531590526597	2.235921412417067	24.68409473402991	-27.93161859108794	2.544474511915885	20.47884117404883	3509.948717948718	3670.32967032967	0.4602564102564102	0.02411167512690355	0.4780876494023904
5577.178955078125	-20.44106516073194	1.773168120031566	23.89348392680605	-30.34234504358331	3.593695894632339	21.07236530476115	3518.687179487179	3671.794871794872	0.4602564102564102	0.02538071065989848	0.4648074369189907
5596.710205078125	-20.51730249072641	1.385552438710599	24.26975092735884	-32.45095062316785	3.193790764937557	20.60522551166717	3521.6	3665.934065934066	0.4551282051282051	0.04060913705583756	0.4701195219123506
5616.241455078125	-19.75606738294596	0.1074742106215674	24.39326170540459	-33.22158287317006	0.6242200682027392	19.00281112711379	3533.251282051282	3665.934065934066	0.4525641025641026	0.04949238578680203	0.4621513944223107
5635.772705078125	-20.90521426205875	0.2619587123716379	25.47857379412572	-32.17515522556348	-1.608796294203851	19.7848659265557	3524.51282051282	3667.399267399267	0.4525641025641026	0.0532994923857868	0.4701195219123506
5655.303955078125	-20.26501410274878	-0.3984896023775844	25.49858972512259	-32.49482641534527	-2.395310146279394	21.00573274282523	3496.841025641026	3668.864468864469	0.4512820512820513	0.05964467005076142	0.4621513944223107
5674.835205078125	-20.66653000973835	0.4916568482972669	25.34699902616549	-34.56360627587646	-0.5816253096073342	21.12825359605422	3524.51282051282	3667.399267399267	0.4564102564102564	0.06598984771573603	0.4701195219123506
5694.366455078125	-20.66653000973835	-1.508343151702733	25.34699902616549	-33.88320065491605	-0.9267572378284097	20.69468122086666	3521.6	3667.399267399267	0.4474358974358975	0.06345177664974619	0.4634794156706507
5713.897705078125	-20.70624916128349	-2.200534500949827	25.37508387165083	-32.1212667526071	0.9663752005174856	20.72275786019456	3504.123076923077	3665.934065934066	0.4538461538461538	0.08121827411167512	0.4701195219123506
5733.428955078125	-20.30556427615533	-3.012918542621572	25.44357238446641	-32.10371643573613	3.202015565004266	20.56255496773134	3509.948717948718	3663.003663003663	0.4564102564102564	0.1065989847715736	0.4568393094289509
5752.960205078125	-19.42226313722449	-3.486591154480192	25.77368627755145	-33.82346207633601	2.393627711721854	21.57917219035111	3501.210256410256	3668.864468864469	0.4564102564102564	0.09771573604060913	0.4621513944223107
5772.491455078125	-19.98437925129239	-3.055776956194683	25.56207487076071	-33.87206295382485	-0.9377824368883787	21.06961299025975	3525.969230769231	3667.399267399267	0.4474358974358975	0.1053299492385787	0.4555112881806109
5792.022705078125	-20.91195477271245	-3.885079525714278	24.80452272875569	-32.49426390518916	-0.8938580375615718	20.52399904512332	3518.687179487179	3668.864468864469	0.4628205128205128	0.1205583756345178	0.448871181938911
5811.553955078125	-21.14846913461692	-3.540046174036907	25.15308653830764	-32.77590940841719	3.163515566750909	21.3977595943892	3493.928205128205	3667.399267399267	0.4474358974358975	0.1281725888324873	0.4608233731739708
5831.085205078125	-20.3936821409093	-3.696227191527763	24.6317859090702	-35.52633241225225	9.454081930383049	20.53535221177722	3521.6	3665.934065934066	0.4435897435897436	0.1383248730964467	0.4648074369189907
5850.616455078125	-19.83766018715844	-5.890117057123827	24.23398128415654	-35.53983265599916	10.59395251074638	19.70538722675941	3512.861538461538	3664.468864468864	0.4512820512820513	0.1446700507614213	0.4555112881806109
5870.147705078125	-19.75357431736171	-6.125813016387751	24.64256826382912	-35.85657879296912	10.1800453860853	20.89955356095174	3509.948717948718	3671.794871794872	0.441025641025641	0.1421319796954315	0.4594953519256308
5889.678955078125	-19.56515088279145	-6.231505300688331	23.48491172085544	-35.56852067396132	8.369337345319567	19.49065834982954	3524.51282051282	3667.399267399267	0.4474358974358975	0.1548223350253807	0.4462151394422311
5909.210205078125	-19.2770214452886	-6.627131417181591	24.29785547114015	-36.30810236334565	6.895536432708202	18.55800605783073	3517.230769230769	3663.003663003663	0.4384615384615385	0.1725888324873096	0.450199203187251
5928.741455078125	-19.39419368103288	-7.667248997541406	24.58063189671198	-36.31687752178114	5.777716250464811	18.63810750406234	3521.6	3664.468864468864	0.4294871794871795	0.1763959390862944	0.4541832669322709
5948.272705078125	-18.80068402332771	-7.589770674900554	23.93159766722929	-35.97369340747349	2.410430105681412	19.58560483760754	3508.492307692307	3661.538461538461	0.4358974358974359	0.1763959390862944	0.4462151394422311
5967.803955078125	-19.63221619372289	-8.551461644339877	24.77838062771082	-34.96124137329661	-1.290962768263094	19.72459802657208	3495.384615384615	3658.608058608058	0.4346153846153846	0.1865482233502538	0.447543160690571
5987.335205078125	-19.68041484611322	-9.042781005425649	23.95851538867816	-34.31368634545365	-0.1015669905864401	17.68449664550331	3517.230769230769	3660.07326007326	0.4294871794871795	0.2017766497461929	0.4382470119521912
6006.866455078125	-18.9617766878054	-9.817836314547314	23.82233121945994	-33.98929007036044	-1.572743901117615	17.3736962604832	3512.861538461538	3661.538461538461	0.4358974358974359	0.2131979695431472	0.4462151394422311
6026.397705078125	-18.59100797411644	-9.832312715373163	24.89920258835609	-33.95407693458727	-4.236116988318705	19.43525848198911	3509.948717948718	3664.468864468864	0.4384615384615385	0.2182741116751269	0.4329349269588313
6045.928955078125	-19.63934143671984	-10.73657284122065	24.06585632801602	-32.28236966132013	-5.257687174928702	17.42734836157606	3517.230769230769	3661.538461538461	0.4333333333333334	0.2233502538071066	0.4209827357237715
6065.460205078125	-20.15981473752636	-11.42320249971376	24.01852624736381	-31.22604183496581	-3.369979137656257	17.16583431938254	3502.666666666666	3657.142857142857	0.4256410256410256	0.2385786802030457	0.4276228419654714
6084.991455078125	-19.72829032333522	-11.34211908112374	23.1709676664783	-30.82491917457771	-0.7865828428682103	18.06105570908557	3523.05641025641	3664.468864468864	0.4282051282051282	0.2385786802030457	0.4223107569721115
6104.522705078125	-19.15760237265975	-11.20466775745981	24.23976273402499	-31.05560125766118	5.473355528751144	19.89940867406752	3525.969230769231	3670.32967032967	0.4294871794871795	0.248730964467005	0.4236387782204515
6124.053955078125	-19.12040706528631	-13.20223501790698	23.95929347136914	-30.96188706565145	10.26211698983932	21.42696125402934	3499.753846153846	3668.864468864469	0.4371794871794872	0.2563451776649746	0.4196547144754316
6143.585205078125	-18.24361559760321	-13.4001020925746	23.63844023967901	-31.95442624030165	15.07030484696725	21.58279838822629	3533.251282051282	3677.655677655677	0.4217948717948718	0.2728426395939086	0.4156706507304117
6163.116455078125	-18.24827855360337	-13.74154635316829	23.17214463966276	-32.62076910735905	15.77701830354282	22.36460205072975	3509.948717948718	3674.725274725275	0.4307692307692308	0.2601522842639594	0.4223107569721115
6182.647705078125	-18.1064378955818	-13.37865157161623	21.35621044182046	-32.9844285913495	16.53605735642498	21.60400809172498	3517.230769230769	3676.190476190476	0.4333333333333334	0.266497461928934	0.4169986719787516
6202.178955078125	-16.68496638362678	-14.41279933715234	19.50336163732236	-36.45384541285488	16.82641608317235	22.00401304900612	3533.251282051282	3676.190476190476	0.4141025641025641	0.2741116751269035	0.4236387782204515
6221.710205078125	-15.29851967305753	-13.8761874379042	22.14803269424674	-40.9443769249414	12.56569368544618	24.7270942699867	3527.425641025641	3679.120879120879	0.4166666666666667	0.2906091370558375	0.4063745019920318
6241.241455078125	-16.56286895831718	-15.68688696748427	23.71310416828254	-40.00336368059187	4.053488952293557	24.08839841777559	3544.902564102564	3677.655677655677	0.4115384615384615	0.2880710659898477	0.3944223107569721
6260.772705078125	-18.56207671747596	-15.1676871307339	23.79232825240411	-36.55205968611358	0.02603775234158379	24.33033005065959	3525.969230769231	3676.190476190476	0.408974358974359	0.3045685279187817	0.4103585657370518
6280.303955078125	-17.49352233848321	-15.82077320736273	22.64776615167934	-36.90278143651325	-1.856245883857412	24.88143477437454	3517.230769230769	3679.120879120879	0.4076923076923077	0.3236040609137056	0.4050464807436919
6299.835205078125	-17.37876622185452	-16.73975380823462	22.12337781454793	-35.38435484884735	1.803493799014339	27.81813370239703	3504.123076923077	3682.051282051282	0.3987179487179487	0.3185279187817259	0.397078353253652
6319.366455078125	-16.21221405153321	-17.41181765410531	22.77859484667954	-33.85827812305819	3.578149446693835	31.63819857959173	3544.902564102564	3696.703296703297	0.4	0.3350253807106599	0.3837981407702523
6338.897705078125	-15.0565267225852	-17.91906185634279	22.34732774147956	-33.11914644179876	-3.584155565587273	35.4345525757248	3534.707692307692	3704.029304029304	0.4	0.3388324873096447	0.3758300132802125
6358.428955078125	-14.06601022095332	-18.45794506145253	21.39897790466763	-33.53309433374641	-10.66088298746882	35.60960050973441	3525.969230769231	3701.098901098901	0.3961538461538461	0.348984771573604	0.3745019920318725
6377.960205078125	-16.6742246566033	-19.2698023275999	20.57753433967003	-32.9635032135418	-9.394310816372382	30.94497674291398	3541.989743589743	3692.307692307692	0.3897435897435898	0.3578680203045685	0.3784860557768924
6397.491455078125	-18.5968257427181	-19.28643676908549	20.3174257281906	-33.31197492331699	-5.270786017700085	29.56914667582128	3543.446153846154	3687.912087912088	0.3923076923076923	0.3604060913705584	0.3705179282868525
6417.022705078125	-18.14474123210379	-19.61073443249825	21.52587678962096	-34.62486029993633	4.384089694809126	29.04561631755732	3515.774358974359	3684.981684981685	0.391025641025641	0.3756345177664974	0.3519256308100929
6436.553955078125	-16.70724946537593	-21.69952419381646	21.27505346240641	-32.88058921652959	11.17623558484289	26.85192784291609	3512.861538461538	3683.516483516483	0.3884615384615385	0.3692893401015228	0.3572377158034528
6456.085205078125	-15.4893906209026	-21.65110008827299	19.06093790973994	-31.85767449344887	13.09701921929525	25.46561849254328	3534.707692307692	3686.446886446886	0.3833333333333334	0.3845177664974619	0.3413014608233732
6475.616455078125	-15.56373506776829	-20.77139681232325	19.62649322317061	-32.86832649512616	14.16811460321857	26.26339221690536	3533.251282051282	3684.981684981685	0.3756410256410256	0.3921319796954315	0.3399734395750332
6495.147705078125	-14.72529310448838	-22.08591550292827	19.47068955116201	-31.76744786440708	16.01172184425114	27.50160525228423	3533.251282051282	3689.377289377289	0.3717948717948718	0.3972081218274111	0.3452855245683931
6514.678955078125	-14.05091393937603	-22.20242307507636	18.90860606239681	-33.52004409812442	16.73786169686645	26.9116934690228	3541.989743589743	3692.307692307692	0.3743589743589744	0.4060913705583756	0.350597609561753
6534.210205078125	-14.3746843655856	-22.6954149446047	18.53156344144004	-34.57288436151077	16.7242124957263	26.6647733314372	3537.620512820513	3687.912087912088	0.3551282051282051	0.4086294416243654	0.3399734395750332
6553.741455078125	-14.4551537513558	-22.50183317266911	18.48462486442032	-33.92881689663575	16.03954943727066	25.13310613014756	3527.425641025641	3683.516483516483	0.3628205128205128	0.4263959390862944	0.3293492695883134
6573.272705078125	-14.14194038064495	-23.61356329247168	17.80596193550532	-36.36069373100126	20.11372543554271	24.01329932666987	3525.969230769231	3677.655677655677	0.3538461538461539	0.4263959390862944	0.3346613545816733
6592.803955078125	-13.70806140451313	-23.41947336605713	17.19385954868741	-36.67631484765899	22.70272252831727	24.24399826545837	3517.230769230769	3677.655677655677	0.3435897435897436	0.432741116751269	0.3266932270916335
6612.335205078125	-12.34552965640016	-24.08947658549737	17.4470343599839	-37.67470412793285	26.76569693061627	24.45323636380973	3539.076923076923	3684.981684981685	0.3371794871794872	0.4390862944162436	0.3173970783532537
6631.866455078125	-12.59671001522925	-23.07578442308	16.32899847707549	-35.86529436844731	28.98733530013675	25.95433959863281	3531.794871794872	3682.051282051282	0.3346153846153846	0.4352791878172588	0.3147410358565737
6651.397705078125	-10.64623953374133	-22.73960576322894	15.37604662586657	-35.8494315820447	26.71861933847006	27.23933779927533	3533.251282051282	3689.377289377289	0.3269230769230769	0.4467005076142132	0.3107569721115538
6670.928955078125	-9.39604778314146	-24.53153020056559	16.39522168585404	-39.01312746564008	20.29925657276383	28.4522126594034	3534.707692307692	3689.377289377289	0.3217948717948718	0.450507614213198	0.3081009296148738
6690.460205078125	-10.42629882561222	-26.64636126305473	17.37011743877831	-37.35244539143289	12.15405776903915	28.45133877602962	3534.707692307692	3689.377289377289	0.3205128205128205	0.4631979695431472	0.3014608233731739
6709.991455078125	-11.35893742466941	-27.81670397031466	16.10625753305928	-36.04957269559251	5.513111473025555	27.63646996949666	3528.882051282051	3686.446886446886	0.3038461538461538	0.4682741116751269	0.300132802124834
6729.522705078125	-12.63287423992278	-28.6561816330626	16.71257600772173	-35.78964008439074	2.979240375550834	25.53111218374268	3533.251282051282	3676.190476190476	0.2974358974358974	0.4771573604060914	0.298804780876494
6749.053955078125	-10.40775534223943	-28.00970556587664	15.22446577605746	-35.45466861836245	-0.004413842758132947	26.07697726581757	3517.230769230769	3683.516483516483	0.3115384615384615	0.4847715736040609	0.2908366533864542
6768.585205078125	-10.20138799118009	-28.97967505198503	15.8612008819912	-37.24180297566561	-2.248102610398554	25.32573756978067	3534.707692307692	3679.120879120879	0.2961538461538462	0.4898477157360406	0.2722443559096945
6788.116455078125	-9.852287403062839	-28.8184204921373	14.77125969371612	-33.84382494398759	-7.349273196354041	24.1480435713239	3515.774358974359	3676.190476190476	0.2974358974358974	0.4911167512690355	0.2695883134130146
6807.647705078125	-10.85610025447736	-28.03533874297786	14.38997455226389	-33.55576682497977	-9.159981237119771	22.73914836020169	3511.405128205128	3671.794871794872	0.3	0.5038071065989848	0.2682602921646746
6827.178955078125	-10.01461121103893	-27.96831959992761	14.53887889610749	-35.00511716547404	-6.880063679480046	20.12510525773013	3520.14358974359	3661.538461538461	0.2961538461538462	0.5012690355329948	0.2616201859229748
6846.710205078125	-10.14223277722582	-28.88249874115577	13.77672227741849	-33.99334014348451	-4.948254845967725	18.36386413796422	3507.035897435897	3658.608058608058	0.2935897435897436	0.4999999999999999	0.2576361221779548
6866.241455078125	-10.29981668273309	-29.88333899659342	14.01833172669107	-31.60376407285929	-2.972521613128596	16.05700907306188	3528.882051282051	3660.07326007326	0.2948717948717949	0.5177664974619289	0.2403718459495352
6885.772705078125	-9.656800282670547	-29.58509325296429	14.31997173294527	-28.48686903425316	-2.514866486053778	15.27134192616907	3504.123076923077	3657.142857142857	0.2910256410256411	0.5203045685279187	0.2337317397078353
6905.303955078125	-9.149700278115317	-29.46187964218045	13.02997218846837	-26.74248544881519	-2.857374412194664	15.4596214579602	3491.015384615384	3657.142857142857	0.2858974358974359	0.5190355329949238	0.2324037184594953
6924.835205078125	-8.311966222346978	-30.00645257696801	12.80337776530219	-25.35411120924443	-4.325927320645648	15.77067297991877	3512.861538461538	3654.212454212454	0.2807692307692308	0.5139593908629442	0.2177954847277556
6944.366455078125	-8.641292183593043	-29.6092179714941	11.87078164069569	-23.9440240776474	-7.317982735934394	17.31332173836545	3501.210256410256	3660.07326007326	0.2923076923076923	0.5203045685279187	0.2284196547144754
6963.897705078125	-8.013264955623432	-30.83429470251264	10.67350443765674	-23.53930135226013	-9.995181421188711	20.08207695472172	3511.405128205128	3665.934065934066	0.2884615384615384	0.5279187817258882	0.2111553784860558
6983.428955078125	-7.250891040106962	-29.95967697256889	10.91089598930383	-22.05653790849228	-12.30817457600835	23.82091536537257	3499.753846153846	3676.190476190476	0.2820512820512821	0.5291878172588832	0.2071713147410358
7002.960205078125	-7.806205086346249	-30.53573286279028	11.37949136537507	-23.05188963392309	-15.00724726246953	26.38542098807908	3523.05641025641	3684.981684981685	0.2705128205128205	0.5342639593908629	0.2045152722443559
7022.491455078125	-8.259551519046404	-31.05631450422466	10.04484809535945	-22.29295759516819	-13.92810347539257	28.09463730094128	3528.882051282051	3683.516483516483	0.2666666666666667	0.5380710659898477	0.201859229747676
7042.022705078125	-9.62566897259844	-30.4211512607525	9.433102740156082	-21.87720967072095	-9.481673543532203	28.85635628025828	3520.14358974359	3686.446886446886	0.2782051282051282	0.5406091370558376	0.1899070385126162
7061.553955078125	-10.3415524473286	-30.53349356665964	9.844755267139671	-21.50601255063848	-4.991142815431964	28.11834818200291	3528.882051282051	3687.912087912088	0.2653846153846154	0.5469543147208121	0.1859229747675963
7081.085205078125	-10.0614716104465	-31.80560598114134	9.852838955350116	-22.22399385002777	-0.8537924187064402	26.03532512005985	3544.902564102564	3689.377289377289	0.2615384615384616	0.5444162436548223	0.1699867197875166
7100.616455078125	-8.188608106095023	-31.43258273592095	9.139189390497787	-22.22928144549531	-0.09755376481754441	25.60699238651235	3527.425641025641	3684.981684981685	0.2615384615384616	0.5456852791878172	0.1752988047808765
7120.147705078125	-7.391301109383407	-31.89940126413814	8.869889061659357	-21.94471088945545	-3.782320641715562	24.70653135516927	3523.05641025641	3682.051282051282	0.2564102564102564	0.5507614213197969	0.1699867197875166
7139.678955078125	-6.748176984264755	-32.87049509204644	9.182301573524503	-20.5656743184763	-7.87014584112776	25.57941802106136	3509.948717948718	3682.051282051282	0.2602564102564103	0.5545685279187816	0.1673306772908366
7159.210205078125	-5.958610802299283	-31.98334155121618	8.138919770071638	-20.93338387559082	-10.48661773309571	25.80899193953762	3533.251282051282	3682.051282051282	0.2525641025641026	0.5596446700507614	0.147410358565737
7178.741455078125	-7.229131194344619	-32.36473133986578	9.086880565538076	-20.55037404222981	-11.64031391151227	27.34614991940579	3558.010256410256	3690.84249084249	0.2512820512820513	0.5558375634517766	0.151394422310757
7198.272705078125	-6.709058015175075	-32.67769755851933	9.094198482492523	-19.13274927454076	-9.382799545818621	27.39019662059232	3539.076923076923	3683.516483516483	0.2397435897435898	0.5571065989847716	0.1420982735723771
7217.803955078125	-6.403246894748312	-32.28195140553497	7.675310525168881	-17.35326505536085	-5.254026742985945	27.258070367457	3520.14358974359	3684.981684981685	0.2435897435897436	0.5558375634517766	0.1354581673306773
7237.335205078125	-7.361908173931029	-32.38908812894504	7.80918260689711	-18.37392973781709	-1.169001942567007	26.71744492702216	3549.271794871795	3683.516483516483	0.2371794871794872	0.5609137055837563	0.1341301460823373
7256.866455078125	-6.56854083641427	-33.00577375522158	7.145916358573005	-17.64841080233578	-0.05678255831013568	27.30186593170508	3515.774358974359	3684.981684981685	0.2282051282051282	0.5634517766497461	0.1328021248339973
7276.397705078125	-5.695612081457379	-33.54589333618959	6.438791854262156	-17.00726839027259	-1.114052344180231	25.79689921249263	3527.425641025641	3686.446886446886	0.2282051282051282	0.5736040609137055	0.1314741035856574
7295.928955078125	-6.21102230462676	-32.89148285694235	6.897769537323961	-15.64173206304034	-4.0620069632291	25.83982089336693	3534.707692307692	3689.377289377289	0.2294871794871795	0.5710659898477157	0.1288180610889774
7315.460205078125	-5.334323172706041	-33.85848744172074	6.567682729395889	-13.94594935509121	-7.735925037980219	25.5185412250667	3546.358974358974	3689.377289377289	0.2064102564102564	0.5697969543147208	0.1274900398406375
7334.991455078125	-4.415704220236798	-32.63552335294544	6.429577976320186	-10.84952968616789	-9.886517002806645	24.91977745271431	3537.620512820513	3682.051282051282	0.2128205128205128	0.567258883248731	0.1221779548472776
7354.522705078125	-3.3720029350461	-34.14966165098805	6.799706495389982	-8.044093189064199	-10.5990076542818	25.75660937356134	3531.794871794872	3683.516483516483	0.2076923076923077	0.583756345177665	0.1195219123505976
7374.053955078125	-3.605193209504921	-33.11567793532311	7.480679049507972	-5.891499315271006	-11.74465542954472	28.20520994192961	3523.05641025641	3689.377289377289	0.2128205128205128	0.567258883248731	0.1102257636122178
7393.585205078125	-3.294365179322206	-34.2634603996538	6.563482067779373	-4.433373816341256	-12.90675280494106	30.73915159816956	3514.317948717948	3693.772893772893	0.208974358974359	0.58248730964467	0.1102257636122178
7413.116455078125	-3.539959224527333	-33.21694887553508	6.004077547266676	-4.42808622087372	-13.66299145882995	31.16748433171707	3541.989743589743	3699.6336996337	0.2025641025641026	0.5774111675126903	0.1128818061088977
7432.647705078125	-4.580551872384589	-32.47518107043003	5.944812761541046	-4.046876420012299	-12.18639014722533	31.76787539825861	3530.338461538461	3696.703296703297	0.1948717948717949	0.5875634517766497	0.1062416998671979
7452.178955078125	-4.906615303359914	-33.23508777437571	5.338469664008628	-4.756645071122229	-8.432671676974236	30.08648458778585	3549.271794871795	3696.703296703297	0.1897435897435897	0.5862944162436548	0.09561752988047809
7471.710205078125	-4.589631555685235	-32.77370289798868	5.036844431476398	-4.06982683438203	-6.531138041648561	29.11777755074197	3546.358974358974	3696.703296703297	0.1846153846153846	0.5888324873096447	0.100929614873838
7491.241455078125	-4.065695663789485	-33.74441661034185	5.430433621051568	-3.077962671919177	-5.706124191319661	27.06170610781458	3559.466666666666	3693.772893772893	0.1782051282051282	0.6002538071065989	0.100929614873838
7510.772705078125	-4.115402466965342	-33.46498196990346	4.459753303465791	-2.451445523915136	-8.626427614262072	25.69024179898816	3541.989743589743	3692.307692307692	0.1743589743589744	0.598984771573604	0.08764940239043824
7530.303955078125	-3.747634665553713	-32.97642744932921	5.236533444628705	-2.173962595842403	-8.924658347250013	23.42468112077095	3512.861538461538	3682.051282051282	0.1807692307692308	0.5736040609137055	0.09694555112881806
7549.835205078125	-3.792278391092431	-32.35595267115049	4.772160890756943	-2.993870735520798	-9.192437485138237	19.41247322739576	3537.620512820513	3670.32967032967	0.1769230769230769	0.5964467005076142	0.09428950863213811
7569.366455078125	-3.868161767331115	-32.62854123038019	5.183823266888518	-2.699400000733215	-8.756479962357217	17.46844335441724	3504.123076923077	3665.934065934066	0.1730769230769231	0.5862944162436548	0.102257636122178
7588.897705078125	-2.760288358430194	-32.58903183490858	3.971164156980644	-3.463619634955644	-9.079385095545288	15.33089430800753	3507.035897435897	3661.538461538461	0.1628205128205128	0.5964467005076142	0.08233731739707835
7608.428955078125	-2.751839636172473	-32.71294965977349	4.816036382752664	-3.894667835649375	-9.755646957021138	12.8024434303461	3509.948717948718	3658.608058608058	0.1538461538461539	0.6015228426395939	0.08632138114209827
7627.960205078125	-3.354829098815271	-33.08854568711965	4.517090118472938	-2.917428937245663	-10.79366674376456	10.87987439780473	3507.035897435897	3649.81684981685	0.1525641025641026	0.5951776649746192	0.08897742363877821
7647.491455078125	-2.358895565790462	-33.17136163239778	4.110443420953816	-3.334414384036372	-11.10834707688592	8.699654807459186	3512.861538461538	3645.421245421245	0.1602564102564103	0.6065989847715736	0.07835325365205843
7667.022705078125	-2.109608090090157	-33.45237275208586	5.039190990984335	-1.626931464839932	-13.29183824197918	8.271573210850141	3479.364102564102	3639.560439560439	0.1538461538461539	0.6065989847715736	0.07968127490039841
7686.553955078125	-2.8800459955211	-33.16499969836984	3.995400447890004	-1.319522996461569	-15.49720340827931	7.639242020591337	3479.364102564102	3638.095238095238	0.1628205128205128	0.6027918781725888	0.08233731739707835
7706.085205078125	-2.877306701237176	-33.01392023175045	4.26932987628239	-0.6637553203392423	-14.69143955707709	6.000772890992876	3491.015384615384	3633.699633699634	0.1564102564102564	0.598984771573604	0.07835325365205843
7725.616455078125	-3.151308767095967	-33.94025506830999	4.869123290403358	-0.3218087283750577	-13.92697610312148	5.529769613509536	3486.646153846154	3638.095238095238	0.1551282051282051	0.5913705583756345	0.08100929614873838
7745.147705078125	-3.476633511972255	-33.54706169136956	4.336648802774505	0.3761472094563335	-12.03646766685578	4.935994345858751	3477.907692307692	3632.234432234432	0.1538461538461539	0.6002538071065989	0.07835325365205843
7764.678955078125	-1.912412758093845	-34.49000157586367	4.758724190615485	0.6910933139267166	-8.992263052173518	2.805061098339803	3489.558974358974	3630.769230769231	0.1576923076923077	0.5901015228426395	0.07304116865869853
7784.210205078125	-3.077241327517411	-34.12737087459203	4.275867248258855	1.708157931383785	-7.816692872550092	1.472152712121399	3488.102564102564	3626.373626373626	0.1564102564102564	0.6002538071065989	0.06772908366533864
7803.741455078125	-2.750900889254949	-34.06005164031404	4.909911074505111	2.375625818753425	-5.520502111690016	-0.2731183457858794	3486.646153846154	3627.838827838828	0.15	0.5951776649746192	0.06374501992031872
7823.272705078125	-3.188950363987575	-32.82685244006485	5.104963601242469	3.05130635440243	-3.607943277304373	-1.616757152222857	3470.625641025641	3624.908424908425	0.1615384615384616	0.5888324873096447	0.07038512616201859
7842.803955078125	-3.587619251637114	-33.05496609430805	5.238074836288693	3.388527861055199	-0.5857890607420492	-2.997826860955613	3453.148717948718	3614.652014652014	0.1666666666666667	0.6053299492385786	0.0743691899070385
7862.335205078125	-2.708811786475396	-34.29333086489062	5.118821352460378	3.705836508181291	1.329570172636854	-4.673726892849852	3477.907692307692	3616.117216117216	0.1628205128205128	0.5862944162436548	0.07038512616201859
7881.866455078125	-2.316775684423449	-33.48159502027077	4.322431557655065	4.730551263761602	0.6200563170680241	-5.123269329896043	3457.517948717949	3613.186813186813	0.158974358974359	0.5964467005076142	0.07304116865869853
7901.397705078125	-2.667969216487967	-33.40996647596253	5.203078351203381	5.410956884722023	0.2749243888469486	-5.556841705083606	3466.25641025641	3614.652014652014	0.1666666666666667	0.6027918781725888	0.06905710491367861
7920.928955078125	-3.192597626601564	-33.70778408944011	4.74023733984362	5.414444447689972	2.148983224979235	-6.065275884862722	3479.364102564102	3614.652014652014	0.1628205128205128	0.6040609137055837	0.07171314741035856
7940.460205078125	-2.58389873598497	-33.60718535357825	5.610126401502979	5.409156852222436	2.90522187886813	-6.493608618410226	3473.538461538461	3607.326007326007	0.1576923076923077	0.6040609137055837	0.06640106241699867
7959.991455078125	-2.153620854585948	-34.40945832148358	4.637914541405202	6.46840973138857	5.16553664355504	-6.781823142680953	3474.994871794872	3607.326007326007	0.1628205128205128	0.5862944162436548	0.07835325365205843
7979.522705078125	-2.190939276309229	-33.10407440785075	4.906072369077122	7.171090754531377	4.798354317214026	-6.465531979082321	3469.169230769231	3611.721611721612	0.1628205128205128	0.5901015228426395	0.07171314741035856
7999.053955078125	-2.993863365232262	-33.59312107803849	4.613663476773862	7.862634076582991	4.442197189932982	-6.524172584876787	3461.887179487179	3614.652014652014	0.1641025641025641	0.5964467005076142	0.08233731739707835
8018.585205078125	-1.989496499243463	-32.76137776653334	5.050350075653768	7.831583515965117	3.346427405809529	-7.193934677431368	3469.169230769231	3605.860805860806	0.1653846153846154	0.5951776649746192	0.0743691899070385
8038.116455078125	-2.356202439387728	-32.90485092083378	4.379756061227228	8.204018158391055	3.705208535170764	-6.513442164658214	3463.343589743589	3613.186813186813	0.1551282051282051	0.6091370558375634	0.07702523240371846
8057.647705078125	-3.000157586367795	-33.85599468392238	3.984241363220573	8.548327293010946	3.34082660782301	-6.529412226516844	3463.343589743589	3613.186813186813	0.1730769230769231	0.598984771573604	0.0743691899070385
8077.178955078125	-4.628027227969612	-33.77492326898146	5.197277203038954	8.201655615735346	4.834053916474123	-6.968475380282922	3464.8	3605.860805860806	0.1717948717948718	0.5913705583756345	0.07835325365205843
8096.710205078125	-2.680080590653405	-32.12850321882468	3.991940934659521	8.540677154887703	5.225910643015266	-7.412778175689057	3469.169230769231	3610.25641025641	0.1692307692307692	0.5862944162436548	0.07304116865869853
8116.241455078125	-2.999049557219241	-33.62634456259318	4.095044278075919	7.863196586739112	5.943649298650805	-7.0059062825787	3469.169230769231	3607.326007326007	0.1653846153846154	0.5901015228426395	0.0743691899070385
8135.772705078125	-2.553536275027609	-33.52092836222212	4.646372497239161	7.510112293683733	5.190211043755168	-6.909834774488457	3477.907692307692	3608.791208791209	0.1628205128205128	0.6015228426395939	0.08366533864541832
8155.303955078125	-2.84094241572515	-32.93372508319452	3.905758427485032	7.89604717985657	4.409121592753075	-5.399377276697498	3454.605128205128	3611.721611721612	0.1679487179487179	0.5939086294416244	0.07835325365205843
8174.835205078125	-2.676710335326554	-32.55498409978172	4.328966467344534	6.882470125367449	5.107610249261936	-4.574903070258209	3491.015384615384	3617.582417582417	0.1628205128205128	0.5964467005076142	0.07702523240371846
8194.366455078125	-2.749931363749965	-33.48410778415099	5.006863625003539	6.870769914120135	3.617183339604081	-4.468101141949394	3470.625641025641	3617.582417582417	0.1628205128205128	0.5926395939086294	0.08233731739707835
8213.897705078125	-3.120838581082496	-33.12333764849129	3.916141891750476	6.528823322155951	2.852719885648476	-3.997097864466054	3467.71282051282	3621.978021978022	0.1717948717948718	0.5926395939086294	0.07968127490039841
8233.428955078125	-2.639915149590091	-33.55214723737554	4.008485040990922	5.837280000104339	3.20887701292952	-3.93845725867159	3482.276923076923	3621.978021978022	0.1641025641025641	0.5901015228426395	0.07171314741035856
8252.960205078125	-3.236564223216166	-32.78030090378244	4.343577678383459	5.50467107673176	5.063685849935128	-4.029289125121775	3473.538461538461	3620.51282051282	0.1653846153846154	0.58248730964467	0.07835325365205843
8272.491455078125	-1.63762583825483	-33.52599790336262	4.237416174517053	5.518733830634782	5.425267378289623	-3.681057837805882	3476.451282051281	3616.117216117216	0.1666666666666667	0.6002538071065989	0.08632138114209827
8292.022705078125	-2.076198548974273	-32.98457792707445	4.38014510257272	5.170937133046939	3.91559046950509	-3.156653596168135	3477.907692307692	3620.51282051282	0.1679487179487179	0.5913705583756345	0.08366533864541832
8311.553955078125	-2.031939555778803	-33.64312566404802	4.806044422119708	5.872493135877504	0.5455039257284312	-1.87689503716568	3461.887179487179	3620.51282051282	0.1782051282051282	0.598984771573604	0.08233731739707835
8331.085205078125	-2.032632073996649	-32.91165698987877	4.736792600335116	5.880705784156869	0.1618719992539988	-1.47526278569538	3477.907692307692	3626.373626373626	0.182051282051282	0.5977157360406091	0.06772908366533864
8350.616455078125	-2.556398683661371	-33.36419117565586	4.360131633862848	5.880705784156869	0.1618719992539988	-1.47526278569538	3476.451282051281	3627.838827838828	0.1730769230769231	0.598984771573604	0.09296148738379813
8370.147705078125	-2.952420612789365	-33.21036287339043	4.757938721063511	5.553384456251827	1.26044218237071	-1.137761918598061	3473.538461538461	3627.838827838828	0.1705128205128205	0.583756345177665	0.08764940239043824
8389.678955078125	-2.354478838489978	-33.21428406543281	4.552116151002212	5.189724972261376	2.019481235252866	-1.898355877602827	3485.189743589744	3623.443223443223	0.1807692307692308	0.5913705583756345	0.0743691899070385
8409.210205078125	-2.558199231027771	-32.8623726228158	4.180076897222909	5.204350236320519	3.882514872325183	-2.031858287988846	3482.276923076923	3623.443223443223	0.1692307692307692	0.5913705583756345	0.07835325365205843
8428.741455078125	-3.348688770617037	-33.44090126475371	5.131122938296318	5.551021913596119	2.38928756367407	-1.592795134222769	3477.907692307692	3624.908424908425	0.1756410256410256	0.5850253807106599	0.08499335989375829
8448.272705078125	-3.269465917638962	-33.51783942318465	5.053408236103775	4.495256597397935	2.003031635119447	-1.813014789731158	3480.820512820513	3621.978021978022	0.1794871794871795	0.6027918781725888	0.08100929614873838
8467.803955078125	-2.790219919163118	-32.75264711241448	4.97800808368821	5.556309509063656	1.633048909785174	-1.164462400675264	3463.343589743589	3624.908424908425	0.1846153846153846	0.598984771573604	0.08233731739707835
8487.335205078125	-2.868642528867237	-33.67651719969025	5.135747113276281	4.48704394911857	2.386663561593879	-2.214647041201458	3489.558974358974	3626.373626373626	0.1782051282051282	0.5862944162436548	0.07968127490039841
8506.866455078125	-2.555706165443526	-33.09565984982512	4.429383455647439	5.183874866637719	1.274267780423939	-1.844954913448419	3470.625641025641	3621.978021978022	0.1628205128205128	0.5736040609137055	0.09163346613545816
8526.397705078125	-2.591670329318574	-33.17625912123439	4.832967068142561	5.194450057572793	-0.2382095273538526	-0.9882894463534104	3474.994871794872	3624.908424908425	0.1692307692307692	0.598984771573604	0.06905710491367861
8545.928955078125	-3.472186006084312	-32.666938287701	4.781399391568883	4.822015415146856	-0.5969906567150874	-1.668781959126565	3485.189743589744	3620.51282051282	0.1782051282051282	0.5888324873096447	0.08499335989375829
8565.460205078125	-2.792128191585627	-32.98148898803698	4.787180841437334	5.527058980945371	-2.09301836435946	-0.8974575799032252	3460.430769230769	3624.908424908425	0.1717948717948718	0.5862944162436548	0.08366533864541832
8584.991455078125	-3.153447878924424	-32.5919407192094	4.65521210755762	4.113484286380393	-0.9750217852030008	-1.931672158570788	3488.102564102564	3624.908424908425	0.1730769230769231	0.5875634517766497	0.08499335989375829
8604.522705078125	-3.509581374276242	-33.16916896582715	5.041862572375847	4.11933439200405	-0.2298083303740739	-1.985073122725196	3474.994871794872	3620.51282051282	0.1730769230769231	0.5875634517766497	0.08897742363877821
8624.053955078125	-2.988861844770041	-33.09817261370534	5.113815522995913	3.77266271472845	1.263418978277039	-2.424136276491274	3464.8	3621.978021978022	0.1653846153846154	0.5875634517766497	0.09030544488711818
8643.585205078125	-3.03670654340458	-33.47446485269983	4.329345659542039	4.461843494124356	2.036107232299354	-2.937810097910447	3488.102564102564	3623.443223443223	0.1692307692307692	0.5964467005076142	0.08632138114209827
8663.116455078125	-3.107065163194227	-33.56032572363537	5.293483680577356	4.472981195215549	2.025082033239385	-2.562878328517351	3476.451282051281	3623.443223443223	0.1769230769230769	0.5951776649746192	0.08100929614873838
8682.647705078125	-2.834755919645726	-34.4015119057732	4.524408035427385	4.837203189362119	2.767495089075053	-2.284018067214496	3477.907692307692	3623.443223443223	0.1717948717948718	0.598984771573604	0.07835325365205843
8702.178955078125	-2.59247057259253	-32.17545087552769	4.752942740747033	4.48704394911857	2.386663561593879	-2.214647041201458	3482.276923076923	3626.373626373626	0.1666666666666667	0.5888324873096447	0.102257636122178
8721.710205078125	-2.873474767098429	-32.59471356215367	4.652523290157131	4.47005614240372	1.652475305824922	-2.536177846440147	3482.276923076923	3632.234432234432	0.1743589743589744	0.5939086294416244	0.07702523240371846
8741.241455078125	-2.909300427329908	-33.02160656839679	5.06995726700917	4.472418685059427	0.5236299245215624	-2.081144630815438	3480.820512820513	3626.373626373626	0.1666666666666667	0.5964467005076142	0.09163346613545816
8760.772705078125	-2.513063048089697	-33.7141140137371	4.693695191030381	4.441368124441556	-0.5721398596018897	-2.75090672337002	3480.820512820513	3627.838827838828	0.1782051282051282	0.5964467005076142	0.08100929614873838
8780.303955078125	-3.273005455196842	-33.66811064409735	4.699454480315862	4.471856174903308	-0.9778221841962602	-1.599410933113526	3461.887179487179	3621.978021978022	0.1833333333333333	0.5964467005076142	0.08632138114209827
8799.835205078125	-2.6332823639925	-33.13576942775219	4.671763600750012	4.11933439200405	-0.2298083303740739	-1.985073122725196	3488.102564102564	3626.373626373626	0.1794871794871795	0.5862944162436548	0.08764940239043824
8819.366455078125	-3.19664501085253	-33.58831161596202	4.335498914747006	5.192087514917084	0.8906358539495067	-1.443322661978119	3474.994871794872	3627.838827838828	0.1679487179487179	0.5939086294416244	0.08233731739707835
8838.897705078125	-3.148215519056255	-32.67414847959933	5.178448094374535	4.853628485920848	2.000231236126188	-1.480753564273896	3474.994871794872	3627.838827838828	0.1705128205128205	0.5926395939086294	0.08499335989375829
8858.428955078125	-2.666630347933464	-32.75747257935643	5.336965206653591	4.887041589194427	1.967155638946281	-0.3559582560946065	3457.517948717949	3619.047619047619	0.182051282051282	0.5901015228426395	0.07038512616201859
8877.960205078125	-1.952809038563108	-33.48920133258972	4.719096143689219	4.509319351300957	2.364613163473941	-1.464783502415265	3477.907692307692	3627.838827838828	0.1679487179487179	0.5939086294416244	0.08632138114209827
8897.491455078125	-2.63155876309475	-33.44520257235122	4.844123690524996	4.514044436612372	0.1069224008672229	-0.5547170711658488	3493.928205128205	3629.304029304029	0.1730769230769231	0.6027918781725888	0.08366533864541832
8917.022705078125	-2.911439539158366	-33.6732922192962	4.856046084163431	5.190962494604842	-2.112268363486139	-0.4798552665742943	3492.471794871794	3629.304029304029	0.1730769230769231	0.5939086294416244	0.08100929614873838
8936.553955078125	-3.26654195183028	-33.82848493634372	5.345804816972051	5.557547031407122	-2.498700688953831	0.2540382103532679	3470.625641025641	3626.373626373626	0.1769230769230769	0.5850253807106599	0.08233731739707835
8956.085205078125	-3.266911294879798	-32.90503497678679	5.308870512020269	4.844853327485363	0.8824110538827973	-1.400652118042284	3492.471794871794	3627.838827838828	0.1743589743589744	0.5926395939086294	0.08764940239043824
8975.616455078125	-3.462906261965176	-32.86861852156902	5.709373803482412	5.245413477717342	1.964355239953021	-0.02369703063734463	3473.538461538461	3626.373626373626	0.1705128205128205	0.5926395939086294	0.09030544488711818
8995.147705078125	-3.2256224353742	-33.13750595565667	5.437756462580008	5.58150996405787	1.983605239079699	-0.4412993439662754	3476.451282051281	3624.908424908425	0.1769230769230769	0.583756345177665	0.08897742363877821
9014.678955078125	-2.232305082283475	-33.67921802073984	4.769491771652428	6.266640670329706	-0.6192174517480947	0.03519471209557934	3472.082051282051	3626.373626373626	0.1782051282051282	0.5913705583756345	0.08897742363877821
9034.210205078125	-3.628323317980974	-33.28462421806998	5.167668201902608	5.552259435939585	-1.742462035064935	-0.1742945231942364	3486.646153846154	3624.908424908425	0.1717948717948718	0.5926395939086294	0.09030544488711818
9053.741455078125	-2.908130841006436	-32.94586477366042	5.186915899356481	6.59159945557904	-0.5889422535614473	-0.757339370626448	3482.276923076923	3626.373626373626	0.1769230769230769	0.6040609137055837	0.07569721115537847
9073.272705078125	-2.906761193864473	-33.37032504035072	5.323880613552674	5.894768538059891	0.5234535276084932	-1.127031498379487	3486.646153846154	3627.838827838828	0.1897435897435897	0.598984771573604	0.08233731739707835
9092.803955078125	-3.070316145338953	-33.44205761628458	4.968385466104772	6.594524508390869	-0.2163355261469838	-0.784039852703652	3469.169230769231	3626.373626373626	0.1871794871794872	0.598984771573604	0.099601593625498
9112.335205078125	-2.98567626096795	-34.06292851488391	5.432373903205034	6.597449561202697	0.1562712012674796	-0.8107403347808558	3492.471794871794	3629.304029304029	0.1679487179487179	0.5951776649746192	0.07835325365205843
9131.866455078125	-2.948019274782611	-33.21480822477725	5.198072521738915	6.27834088157702	0.871209457909759	-0.0716072162132364	3477.907692307692	3627.838827838828	0.1807692307692308	0.6078680203045684	0.08100929614873838
9151.397705078125	-3.162773790924749	-32.27482924039676	3.722620907525117	6.639637822911761	1.241015786330963	0.2339535271668216	3469.169230769231	3627.838827838828	0.1871794871794872	0.5862944162436548	0.08100929614873838
9170.928955078125	-3.72441283688703	-33.03680457320564	3.558716311297095	5.89825610102784	2.397512363740779	-1.635465678158603	3489.558974358974	3629.304029304029	0.1730769230769231	0.5939086294416244	0.08897742363877821
9190.460205078125	-3.070069916639274	-33.05769092265587	4.993008336072627	5.559234561875484	2.005655637199638	-1.191162882752468	3476.451282051281	3623.443223443223	0.1653846153846154	0.6002538071065989	0.08366533864541832
9209.991455078125	-2.786880442423728	-33.10217383007511	5.311955757627241	5.189724972261376	2.019481235252866	-1.898355877602827	3499.753846153846	3624.908424908425	0.1807692307692308	0.6065989847715736	0.08764940239043824
9229.522705078125	-2.629681269259701	-33.13940653343231	5.031873074029889	5.178024761014062	0.5290543255950123	-1.791553949294011	3486.646153846154	3624.908424908425	0.1756410256410256	0.5901015228426395	0.08499335989375829
9249.053955078125	-3.868254103093495	-33.39767874049095	5.174589690650572	5.544609297816342	0.1426220001273203	-1.057660472366449	3470.625641025641	3623.443223443223	0.1794871794871795	0.5799492385786802	0.1062416998671979
9268.585205078125	-3.122793021386194	-33.23674827916917	3.720697861380629	5.178024761014062	0.5290543255950123	-1.791553949294011	3491.015384615384	3626.373626373626	0.1743589743589744	0.5951776649746192	0.07968127490039841
9288.116455078125	-3.619597588436116	-33.1011295126026	6.040241156388464	4.858916081388385	1.243992582237292	-1.052420830726391	3477.907692307692	3626.373626373626	0.1897435897435897	0.5850253807106599	0.08100929614873838
9307.647705078125	-3.22060552561825	-32.68103457297172	5.93944743817505	4.531594753483343	2.342562765354003	-0.7149199636290723	3482.276923076923	3629.304029304029	0.1769230769230769	0.5875634517766497	0.07569721115537847
9327.178955078125	-3.072916935979307	-33.93943081773782	4.708306402069305	4.853628485920848	2.000231236126188	-1.480753564273896	3480.820512820513	3626.373626373626	0.182051282051282	0.5964467005076142	0.09827357237715803
9346.710205078125	-3.107388338362555	-32.75230700902305	5.261166163744547	4.856553538732677	2.372837963540651	-1.5074540463511	3486.646153846154	3626.373626373626	0.1756410256410256	0.6053299492385786	0.08499335989375829
9366.241455078125	-2.910454624359652	-32.13582544478136	4.954537564034851	4.836640679205998	1.26604298035723	-1.802284369512584	3476.451282051281	3620.51282051282	0.1705128205128205	0.5951776649746192	0.08632138114209827
9385.772705078125	-3.260432402219506	-33.10388635068138	5.956759778049449	4.484118896306741	2.014056834179416	-2.187946559124254	3488.102564102564	3623.443223443223	0.1769230769230769	0.5901015228426395	0.09561752988047809
9405.303955078125	-3.307199850292951	-33.17357430505027	5.28001497070494	4.855991028576557	0.8713858548228283	-1.025720348649188	3469.169230769231	3624.908424908425	0.1833333333333333	0.5939086294416244	0.08366533864541832
9424.835205078125	-2.90728442985129	-33.06210426431173	5.271557014870981	4.841928274673534	0.5098043264683339	-1.37395163596508	3479.364102564102	3627.838827838828	0.1730769230769231	0.5888324873096447	0.08897742363877821
9444.366455078125	-3.155171479822174	-33.28250757461036	4.482852017782636	5.208512811475814	0.1233720010006418	-0.6400581590375178	3469.169230769231	3626.373626373626	0.1705128205128205	0.5862944162436548	0.08897742363877821
9463.897705078125	-3.349535181772182	-33.3246617741024	5.046481822781817	4.870053782479578	1.232967383177323	-0.677489061333295	3469.169230769231	3624.908424908425	0.1807692307692308	0.6002538071065989	0.08499335989375829
9483.428955078125	-2.873382431336049	-32.8255760520429	4.661756866395076	4.5034692456773	1.619399708645015	-1.411382538260857	3493.928205128205	3629.304029304029	0.182051282051282	0.6015228426395939	0.09561752988047809
9502.960205078125	-2.340951649301387	-33.0356388342056	5.904835069861237	4.853628485920848	2.000231236126188	-1.480753564273896	3477.907692307692	3621.978021978022	0.182051282051282	0.5977157360406091	0.09030544488711818
9522.491455078125	-2.911377981983446	-33.82720054588902	4.862201801655395	3.467616789005794	2.339938763273813	-1.336771870607762	3507.035897435897	3627.838827838828	0.1769230769230769	0.5875634517766497	0.08233731739707835
9542.022705078125	-2.791958909354598	-32.40473688616724	4.804109064540235	3.823063624716879	1.96453163686609	-0.9778101630732958	3488.102564102564	3626.373626373626	0.1705128205128205	0.5862944162436548	0.08632138114209827
9561.553955078125	-2.993617136532583	-33.20875438440979	4.638286346741717	4.197860809798523	1.194467384923966	0.1577155653245669	3464.8	3623.443223443223	0.1692307692307692	0.5862944162436548	0.08897742363877821
9581.085205078125	-3.078226242316126	-32.66483764910687	4.177375768387435	3.475266927129038	0.454854728081558	-0.4534059214355491	3488.102564102564	3627.838827838828	0.1679487179487179	0.6002538071065989	0.08632138114209827
9600.616455078125	-3.471124144816947	-33.32185692142719	4.887585518305256	3.830151252684003	-1.422004507043988	0.3872894838008287	3473.538461538461	3626.373626373626	0.1717948717948718	0.5939086294416244	0.08632138114209827
9620.147705078125	-3.47235528831534	-33.24369038957074	4.764471168465982	3.146820578911754	-1.449479306237376	0.8475623410655941	3483.733333333333	3627.838827838828	0.1794871794871795	0.5888324873096447	0.09827357237715803
9639.678955078125	-2.787588349935303	-33.33222807425765	5.241165006469658	3.83656386846378	0.8246610565027619	-0.1478451780554912	3473.538461538461	3620.51282051282	0.1782051282051282	0.5939086294416244	0.08897742363877821
9659.210205078125	-2.626788082038478	-33.37309788329498	5.321191796152183	3.820138571905051	1.591924909451627	-0.9511096809960917	3482.276923076923	3626.373626373626	0.1705128205128205	0.5964467005076142	0.08897742363877821
9678.741455078125	-2.390889291883194	-33.17904796904412	4.911070811680596	4.559157751133266	1.56427371334517	0.4632763087046248	3444.410256410256	3621.978021978022	0.1769230769230769	0.5939086294416244	0.08233731739707835
9698.272705078125	-3.473817271219682	-33.58836763299119	4.618272878031844	3.839488921275609	1.197267783917225	-0.1745456601326951	3473.538461538461	3621.978021978022	0.1782051282051282	0.5951776649746192	0.09163346613545816
9717.803955078125	-2.945249201911227	-33.14068292145427	5.475079808877283	3.824863657216466	-0.6657658531550919	-0.0410432497466755	3460.430769230769	3621.978021978022	0.1743589743589744	0.5901015228426395	0.09561752988047809
9737.335205078125	-3.182440692739824	-33.10265797725585	5.755930726017631	4.160960143556994	-0.6465158540284135	-0.4586455630756064	3476.451282051281	3626.373626373626	0.1717948717948718	0.5913705583756345	0.08366533864541832
9756.866455078125	-2.506461041079565	-33.22078204081733	5.353895892043489	4.849578412796778	-1.375279708723922	-0.4905856867928676	3467.71282051282	3624.908424908425	0.1692307692307692	0.5926395939086294	0.08499335989375829
9776.397705078125	-2.542563708598183	-32.95508757739275	5.743629140181692	4.869491272323457	-0.2684847255405001	-0.195755363631383	3474.994871794872	3624.908424908425	0.1705128205128205	0.5850253807106599	0.09827357237715803
9795.928955078125	-3.143552563056092	-33.33270421900565	5.644743694390787	4.869491272323457	-0.2684847255405001	-0.195755363631383	3479.364102564102	3621.978021978022	0.1743589743589744	0.598984771573604	0.08233731739707835
9815.460205078125	-3.703837351170141	-33.48066273685662	5.616264882985965	4.872416325135285	0.1041220018739633	-0.2224558457085868	3479.364102564102	3623.443223443223	0.1717948717948718	0.5913705583756345	0.08764940239043824
9834.991455078125	-3.594821441102711	-33.0476918829478	4.517855889728939	5.233713266470028	0.4739283302951672	0.08310489767147111	3451.692307692307	3620.51282051282	0.1641025641025641	0.5926395939086294	0.08632138114209827
9854.522705078125	-3.707161438615801	-33.16961310084419	5.283856138419925	4.514606946768494	1.608374509585046	-1.036450768867761	3485.189743589744	3627.838827838828	0.1628205128205128	0.5888324873096447	0.08897742363877821
9874.053955078125	-3.430189239067138	-32.66935502238834	4.981076093286204	4.531032243327222	0.8411106566361808	-0.2331862659271602	3464.8	3620.51282051282	0.1769230769230769	0.5888324873096447	0.09163346613545816
9893.585205078125	-2.597702932460699	-33.09324311513777	4.229706753930117	4.166810249180651	0.09869760080051343	-0.5120465272300142	3495.384615384615	3627.838827838828	0.1769230769230769	0.5926395939086294	0.09296148738379813
9913.116455078125	-2.875213757289909	-33.24680333590642	4.478624271009156	4.519332032079908	-0.649316253021673	-0.1263843376183445	3469.169230769231	3620.51282051282	0.1794871794871795	0.5913705583756345	0.08897742363877821
9932.647705078125	-3.232716899783688	-32.39957131583385	4.728310021631191	4.858353571232264	-0.2574595264805311	-0.5706871330244794	3489.558974358974	3632.234432234432	0.1666666666666667	0.5926395939086294	0.09163346613545816
9952.178955078125	-3.354567480821863	-33.74265607513915	4.543251917813784	4.499981682709351	-0.2546591274872715	-0.9029483584817413	3492.471794871794	3629.304029304029	0.1756410256410256	0.5862944162436548	0.08764940239043824
9971.710205078125	-3.079611278751818	-32.20190030076836	4.038872124818252	4.488843981618158	-0.2436339284273025	-1.277880127874838	3485.189743589744	3630.769230769231	0.1705128205128205	0.6002538071065989	0.08764940239043824
9991.241455078125	-3.032612991272424	-32.70936857112254	4.738700872757625	4.488843981618158	-0.2436339284273025	-1.277880127874838	3483.733333333333	3623.443223443223	0.1666666666666667	0.6027918781725888	0.09163346613545816
10010.77270507813	-3.150262295122333	-32.55669662038797	4.973770487766743	4.160960143556994	-0.6465158540284135	-0.4586455630756064	3482.276923076923	3629.304029304029	0.1692307692307692	0.5926395939086294	0.09030544488711818
10030.30395507813	-3.265218472569508	-33.13751395808941	5.478152743049271	4.505269278176887	-1.010897781376167	-0.474615624934237	3469.169230769231	3626.373626373626	0.1705128205128205	0.6027918781725888	0.09030544488711818
10049.83520507813	-3.663394902819688	-33.59689422507519	5.660509718031204	3.816651008937102	-0.2821339266806595	-0.4426755012169758	3482.276923076923	3626.373626373626	0.1743589743589744	0.5964467005076142	0.08499335989375829
10069.36645507813	-3.10828091739889	-32.52063627342712	5.171908260111072	3.461204173226016	0.09327319972706356	-0.8016372087514416	3488.102564102564	3630.769230769231	0.1743589743589744	0.5926395939086294	0.0743691899070385
10088.89770507813	-3.264510565057932	-32.90745971390687	5.548943494206854	3.814288466281394	0.8467114546226999	-0.897708716841684	3472.082051282051	3623.443223443223	0.1679487179487179	0.6040609137055837	0.08100929614873838
10108.42895507813	-3.464783755800225	-33.17441456048793	5.521624419977519	3.481117032752695	1.200068182910485	-0.5068068855899569	3489.558974358974	3630.769230769231	0.1730769230769231	0.6053299492385786	0.08233731739707835
10127.96020507813	-2.672339775907261	-32.48247528787213	4.766022409273957	3.475266927129038	0.454854728081558	-0.4534059214355491	3485.189743589744	3629.304029304029	0.1679487179487179	0.5977157360406091	0.07702523240371846
10147.49145507813	-3.187503770376964	-33.44369811499619	5.249622962303617	3.825426167372587	0.8356862555627309	-0.5227769474485876	3477.907692307692	3626.373626373626	0.1666666666666667	0.6015228426395939	0.08233731739707835
10167.02270507813	-3.468169400420805	-32.70945659788268	5.183059957919515	3.122745144229781	1.202868581903744	-0.8390681110472189	3485.189743589744	3626.373626373626	0.1756410256410256	0.5964467005076142	0.08100929614873838
10186.55395507813	-3.500440133800676	-33.02455546486132	5.955986619932459	4.166810249180651	0.09869760080051343	-0.5120465272300142	3466.25641025641	3626.373626373626	0.1782051282051282	0.5977157360406091	0.07835325365205843
10206.08520507813	-3.470370069424182	-32.20723392218927	4.962993057581812	3.831276272996244	1.580899710391658	-0.5761779116029954	3491.015384615384	3629.304029304029	0.1794871794871795	0.5951776649746192	0.08897742363877821
10225.61645507813	-2.989554362987887	-33.36670393953608	5.044563701211321	4.18728561886345	2.706944692701757	-0.6989499017704416	3488.102564102564	3626.373626373626	0.1769230769230769	0.5964467005076142	0.08764940239043824
10245.14770507813	-3.513090133246661	-33.39639435003625	4.690986675333916	4.184360566051622	2.334337965287294	-0.6722494196932377	3495.384615384615	3629.304029304029	0.1884615384615385	0.598984771573604	0.08499335989375829
10264.67895507813	-3.627984753518916	-33.13112001433051	5.201524648108409	4.175585407616136	1.216517783043904	-0.592147973461626	3491.015384615384	3629.304029304029	0.1730769230769231	0.5951776649746192	0.08632138114209827
10284.21020507813	-2.673186187062405	-33.36623579722082	4.681381293759456	4.525182137703565	0.09589720180725386	-0.1797853017727524	3458.974358974359	3619.047619047619	0.1730769230769231	0.5977157360406091	0.08100929614873838
10303.74145507813	-3.029750582638661	-32.8661057576888	5.024941736133938	3.823063624716879	1.96453163686609	-0.9778101630732958	3486.646153846154	3626.373626373626	0.1769230769230769	0.5901015228426395	0.08897742363877821
10323.27270507813	-2.430054428854064	-33.25641425762662	4.994557114593605	4.534519806295172	2.715169492768467	-0.7416204457062762	3477.907692307692	3624.908424908425	0.1692307692307692	0.5862944162436548	0.09030544488711818
10342.80395507813	-2.42048228815406	-33.18915904281055	5.951771184593961	4.887041589194427	1.967155638946281	-0.3559582560946065	3464.8	3621.978021978022	0.1807692307692308	0.6015228426395939	0.07702523240371846
10362.33520507813	-2.510308364512043	-32.60151162876591	4.969163548795756	4.872416325135285	0.1041220018739633	-0.2224558457085868	3476.451282051281	3620.51282051282	0.1679487179487179	0.583756345177665	0.09030544488711818
10381.86645507813	-3.590096927927629	-32.86015594894694	4.990307207237153	4.522257084891737	-0.2767095256072096	-0.1530848196955485	3483.733333333333	3620.51282051282	0.1717948717948718	0.598984771573604	0.09428950863213811
10401.39770507813	-3.420309312492536	-33.37164144053638	5.96906875074638	3.83656386846378	0.8246610565027619	-0.1478451780554912	3501.210256410256	3626.373626373626	0.182051282051282	0.5888324873096447	0.07968127490039841
10420.92895507813	-3.2715434722925	-33.32343340067688	4.84565277075	3.50631748774691	1.55062451220501	0.2163561711190319	3480.820512820513	3626.373626373626	0.1628205128205128	0.5951776649746192	0.08897742363877821
10440.46020507813	-3.704314419275768	-33.28787320576224	5.568558072423246	3.537368048364781	2.646394296328463	0.8861182636736131	3473.538461538461	3621.978021978022	0.1666666666666667	0.5926395939086294	0.08366533864541832
10459.99145507813	-3.71402506361934	-33.00883468574446	4.597493638065972	2.507365697316933	4.112146805786188	0.907327967172301	3492.471794871794	3629.304029304029	0.1705128205128205	0.583756345177665	0.09030544488711818
10479.52270507813	-2.269685061181676	-33.2199257805142	5.031493881832384	2.507365697316933	4.112146805786188	0.907327967172301	3474.994871794872	3629.304029304029	0.1666666666666667	0.5939086294416244	0.09030544488711818
10499.05395507813	-2.149681195391091	-32.25959122342423	5.031880460890879	2.182406912067599	4.08187160759954	1.699862049894328	3470.625641025641	3630.769230769231	0.1730769230769231	0.6015228426395939	0.08366533864541832
10518.58520507813	-2.438749379811462	-33.51686312639042	4.125062018853731	1.462738082209942	3.714865678171596	1.062040081057008	3485.189743589744	3624.908424908425	0.1717948717948718	0.6078680203045684	0.08366533864541832
10538.11645507813	-3.552901620554187	-32.85772320939412	4.709837944581306	1.113141352122513	4.835486259408246	0.6496774093681348	3489.558974358974	3626.373626373626	0.1679487179487179	0.5913705583756345	0.08632138114209827
10557.64770507813	-2.268130742514956	-33.10611102698297	5.186925748504468	0.07143878982735033	4.810811859208117	0.7776890411756383	3505.579487179487	3629.304029304029	0.1717948717948718	0.5939086294416244	0.07569721115537847
10577.17895507813	-2.668123109425265	-33.02519565948048	5.187689057473471	0.4210355199147789	3.690191277971468	1.190051712864512	3485.189743589744	3627.838827838828	0.1641025641025641	0.5875634517766497	0.08632138114209827
10596.71020507813	-2.713136178013501	-32.48127092174482	4.686382198649928	1.120791490245757	2.950402224215991	1.533043358540347	3464.8	3626.373626373626	0.1679487179487179	0.5926395939086294	0.08233731739707835
10616.24145507813	-2.837156649467592	-33.39908716865311	4.2843350532408	0.7542069534434781	3.336834549683683	0.7991498816127849	3491.015384615384	3626.373626373626	0.1717948717948718	0.5977157360406091	0.08499335989375829
10635.77270507813	-2.722108136258038	-33.04913232084091	3.789186374196216	1.104366193687028	3.717666077164856	0.7297788555997465	3467.71282051282	3624.908424908425	0.1730769230769231	0.5977157360406091	0.08233731739707835
10655.30395507813	-1.998883968418707	-33.29035796112787	4.111603158129301	1.454525433930577	4.098497604646028	0.6604078295867081	3469.169230769231	3627.838827838828	0.1628205128205128	0.6027918781725888	0.07835325365205843
10674.83520507813	-2.310989309981003	-33.9489777199961	4.901069001899653	1.090303439784006	3.356084548810361	0.3815475682838541	3491.015384615384	3630.769230769231	0.1666666666666667	0.598984771573604	0.07569721115537847
10694.36645507813	-2.320330611275059	-32.59338915953526	3.966938872494161	1.075678175724863	1.493050911738044	0.5150499786698737	3486.646153846154	3626.373626373626	0.1769230769230769	0.583756345177665	0.08499335989375829
10713.89770507813	-3.072747653748278	-33.36267871586809	4.725234625172206	2.467539978263575	1.898556839419346	0.3176673208493316	3491.015384615384	3627.838827838828	0.1692307692307692	0.5964467005076142	0.07835325365205843
10733.42895507813	-2.912824575594057	-33.21035487095769	4.717542440594248	3.509242540558738	1.923231239619474	0.1896556890418281	3464.8	3623.443223443223	0.1705128205128205	0.5913705583756345	0.06772908366533864
10752.96020507813	-2.638730173972887	-33.51488252428738	4.126982602711223	3.487529648532473	3.446733746457235	-1.041941547446277	3476.451282051281	3624.908424908425	0.1730769230769231	0.5913705583756345	0.07702523240371846
10772.49145507813	-2.350523790001391	-33.10289404902167	4.94762099986088	2.798911379292688	4.175497601152743	-1.010001423729016	3480.820512820513	3624.908424908425	0.1679487179487179	0.5964467005076142	0.08366533864541832
10792.02270507813	-2.122381203885981	-33.51639498407516	3.761879611401866	3.476391947441279	3.457758945517204	-1.416873316839373	3493.928205128205	3629.304029304029	0.1692307692307692	0.598984771573604	0.07835325365205843
10811.55395507813	-2.115779196875851	-34.02306301115539	4.422080312414973	3.828913730340537	2.709745091695017	-1.031211127227704	3473.538461538461	3627.838827838828	0.1602564102564103	0.6002538071065989	0.08233731739707835
10831.08520507813	-2.912809186300328	-34.2488319526059	4.719081369967238	4.175585407616136	1.216517783043904	-0.592147973461626	3457.517948717949	3624.908424908425	0.1692307692307692	0.58248730964467	0.07702523240371846
10850.61645507813	-2.767382822839682	-33.85109719508577	3.261717716031827	3.800788222534493	1.986582034986028	-1.727673701859489	3492.471794871794	3623.443223443223	0.1717948717948718	0.5977157360406091	0.07569721115537847
10870.14770507813	-2.519572719337448	-34.4383084765461	4.042728066255219	4.512244404112785	2.737219890888405	-1.491483984492469	3491.015384615384	3627.838827838828	0.1576923076923077	0.6053299492385786	0.08233731739707835
10889.67895507813	-1.986357083322561	-33.61070242276728	5.364291667743917	4.856553538732677	2.372837963540651	-1.5074540463511	3485.189743589744	3624.908424908425	0.1666666666666667	0.5951776649746192	0.07968127490039841
10909.21020507813	-2.518972536881981	-33.93891466082611	4.102746311801864	5.219650512567006	0.1123468019406728	-0.2651263896444214	3461.887179487179	3620.51282051282	0.1628205128205128	0.5951776649746192	0.07171314741035856
10928.74145507813	-2.794605867876142	-32.78667884267586	4.539413212385796	5.203225216008278	0.8796106548895377	-1.068390892585022	3485.189743589744	3627.838827838828	0.1666666666666667	0.6027918781725888	0.07968127490039841
10948.27270507813	-2.790881658793504	-33.09813260154164	4.9118341206496	5.189724972261376	2.019481235252866	-1.898355877602827	3485.189743589744	3623.443223443223	0.1692307692307692	0.6015228426395939	0.0743691899070385
10967.80395507813	-2.793051549209421	-33.67286408914464	4.694845079057879	5.209637831788055	3.126276218436287	-1.603525554441342	3472.082051282051	3626.373626373626	0.1717948717948718	0.598984771573604	0.07968127490039841
10987.33520507813	-2.117749026473279	-33.09799656018506	4.225097352672135	5.199062640852983	4.638753526214079	-2.460191021536351	3486.646153846154	3626.373626373626	0.1653846153846154	0.6027918781725888	0.09827357237715803
11006.86645507813	-1.68006889479017	-33.40774580087731	3.993110520982993	5.542809265316754	2.772919490148502	-1.994427385693069	3477.907692307692	3620.51282051282	0.1615384615384616	0.5964467005076142	0.07835325365205843
11026.39770507813	-2.355155967414094	-32.52129247291176	4.484403258590611	5.886555889780526	0.9070854540829256	-1.528663749849788	3486.646153846154	3627.838827838828	0.1717948717948718	0.5888324873096447	0.07569721115537847
11045.92895507813	-2.554213403951724	-33.82793676970106	4.578659604827559	5.533471596725148	0.1536471991872893	-1.432592241759545	3482.276923076923	3626.373626373626	0.1692307692307692	0.5977157360406091	0.07702523240371846
