Time Stamp	Accelerometer X	Accelerometer Y	Accelerometer Z	Gyroscope X	Gyroscope Y	Gyroscope Z	VSenseReg	VSenseBatt	Magnetometer X	Magnetometer Y	Magnetometer Z
1753.936767578125	-14.57692307692308	-32.18327739114368	0.663869557184209	-80.17924205808367	-6.242784570071184	-9.872880323079057	3466.25641025641	3595.604395604395	0.4058323207776428	0.5328467153284672	0.07001321003963013
1773.468017578125	-14.34615384615385	-32.19554874668966	-0.8764088193631829	-1.282862511971019	0.079574689330003	2.054440698543622	3499.753846153846	3626.373626373626	0.4009720534629404	0.5291970802919708	0.05151915455746367
1792.999267578125	-14.46153846153846	-32.16631766952023	-0.2995011393730369	1.741160977447565	-1.485820725807797	-1.256759612950921	3472.082051282051	3617.582417582417	0.4082624544349939	0.5413625304136254	0.0607661822985469
1812.530517578125	-14.69230769230769	-32.44196895978322	0.2522941430067134	1.728839510958047	-1.493613441369049	-1.66487759074776	3493.928205128205	3620.51282051282	0.3985419198055893	0.5340632603406327	0.06869220607661823
1832.061767578125	-15	-32.89547022233171	0.1581265012009607	0.8571692143246774	-1.450953935897382	-0.8394077621144653	3493.928205128205	3619.047619047619	0.3973268529769137	0.5352798053527981	0.06208718626155878
1851.593017578125	-14.92307692307692	-33.60910266674878	1.147441029746875	1.748648749834185	-1.947459487055118	-0.8532876129811378	3474.994871794872	3620.51282051282	0.402187120291616	0.5389294403892945	0.05548216644649934
1871.124267578125	-15	-32.48052287984233	0.5646055305783089	1.285516590254742	-1.010644927385895	-1.655614676400896	3493.928205128205	3621.978021978022	0.4070473876063183	0.5340632603406327	0.04491413474240423
1890.655517578125	-14.42307692307692	-32.36493040586315	-0.02271047607316623	1.738506899163842	-0.5547504877519056	-1.655585635093647	3485.189743589744	3621.978021978022	0.4009720534629404	0.537712895377129	0.05548216644649934
1910.186767578125	-13.96153846153846	-32.10847909096508	0.1547237790232185	1.278028817868122	-0.5490061661385746	-2.059086676370679	3492.471794871794	3621.978021978022	0.4046172539489671	0.5364963503649636	0.06340819022457067
1929.718017578125	-14.26923076923077	-32.50347200837594	0.9812927264888836	1.280682896151845	-1.480076404194467	-1.660260654227953	3498.297435897436	3624.908424908425	0.4119076549210206	0.5304136253041363	0.05416116248348745
1949.249267578125	-14.19230769230769	-31.90913500030794	0.03367309232000992	1.748648749834185	-1.947459487055118	-0.8532876129811378	3485.189743589744	3620.51282051282	0.4143377885783718	0.5413625304136254	0.06340819022457067
1968.780517578125	-14.61538461538462	-32.63826445772002	0.3747613475395704	1.75082836565336	-0.5469577721906543	-1.247467657296807	3492.471794871794	3621.978021978022	0.4034021871202916	0.5279805352798054	0.06605019815059446
1988.311767578125	-14.34615384615385	-32.10085760916425	0.1582650735973394	2.649795673549487	-1.505102084595711	-0.8578755081936967	3476.451282051281	3621.978021978022	0.4046172539489671	0.5474452554744526	0.06605019815059446
2007.843017578125	-14.92307692307692	-33.13102789924247	0.3206257313543142	2.201639058743285	-1.491565047421129	-0.853258571673889	3486.646153846154	3623.443223443223	0.4009720534629404	0.5462287104622872	0.05548216644649934
2027.374267578125	-14.76923076923077	-32.70142267660282	-0.1596354006281948	1.29783805674426	-1.002852211824644	-1.247496698604056	3485.189743589744	3621.978021978022	0.3961117861482381	0.5352798053527981	0.05416116248348745
2046.905517578125	-14.76923076923077	-32.70989098971485	0.2637802549732096	0.8545151360409545	-0.5198836978414898	-1.238233784257192	3491.015384615384	3621.978021978022	0.4034021871202916	0.5425790754257908	0.05151915455746367
2066.436767578125	-15.03846153846154	-32.33502956211123	-0.902368048284782	0.8470273636543343	-0.05824493659416952	-1.641705784226975	3511.405128205128	3623.443223443223	0.4082624544349939	0.537712895377129	0.05548216644649934
2085.968017578125	-14.15384615384616	-32.18165301471947	0.159573812896471	0.8470273636543343	-0.05824493659416952	-1.641705784226975	3492.471794871794	3621.978021978022	0.4058323207776428	0.5352798053527981	0.0607661822985469
2105.499267578125	-15.53846153846154	-32.6145839748722	0.1138141282256575	1.300017672563434	0.3976495030398198	-1.641676742919726	3472.082051282051	3616.117216117216	0.3997569866342648	0.5462287104622872	0.05416116248348745
2125.030517578125	-14.5	-32.23946079940876	-0.4500369526390342	1.275374739584399	0.3820640719173173	-2.457912698513405	3498.297435897436	3620.51282051282	0.3985419198055893	0.5486618004866181	0.05019815059445178
2144.561767578125	-14.88461538461539	-33.01631305044036	0.3156525220176141	1.721351738571427	-1.031974680121728	-2.068349590717543	3488.102564102564	3614.652014652014	0.4046172539489671	0.5413625304136254	0.047556142668428
2164.093017578125	-14.03846153846154	-32.35022633491408	0.7805475149350249	2.625152740570452	-1.520687515718213	-1.674111463787376	3473.538461538461	3619.047619047619	0.3997569866342648	0.5316301703163017	0.05812417437252312
2183.624267578125	-16.03846153846154	-33.49615846523373	0.4617694155324259	2.164674659274732	-1.514943194104882	-2.077612505064408	3483.733333333333	3611.721611721612	0.402187120291616	0.5389294403892945	0.05680317040951123
2203.155517578125	-14.73076923076923	-33.28572858286629	0.1710445279300363	3.984123667297753	-0.1530041968162451	-1.67402433986563	3482.276923076923	3619.047619047619	0.3961117861482381	0.5328467153284672	0.05548216644649934
2222.686767578125	-14.84615384615385	-33.03478167149104	1.200622036090411	2.184009435686322	0.3627827131294041	-2.059028593756181	3485.189743589744	3616.117216117216	0.4070473876063183	0.5401459854014599	0.05284015852047556
2242.218017578125	-15.26923076923077	-32.92862751739854	0.1621451006959414	1.275374739584399	0.3820640719173173	-2.457912698513405	3496.841025641026	3620.51282051282	0.4094775212636695	0.5413625304136254	0.05019815059445178
2261.749267578125	-14.5	-32.49197049947651	0.6369865122867526	2.654629367652385	-1.035670607787139	-0.8532295303666401	3469.169230769231	3619.047619047619	0.4009720534629404	0.5389294403892945	0.05548216644649934
2281.280517578125	-14.92307692307692	-33.72150027714479	0.998090780316561	1.735852820880119	0.3763197503039863	-2.054411657236373	3496.841025641026	3620.51282051282	0.4034021871202916	0.5279805352798054	0.05812417437252312
2300.811767578125	-14.46153846153846	-32.49581203424278	0.7906017121389422	2.198984980459562	-0.5604948093652366	-1.252084593816615	3473.538461538461	3621.978021978022	0.4106925880923451	0.5437956204379563	0.05680317040951123
2320.343017578125	-14.61538461538462	-32.40808031040217	0.4040155201083944	2.181829819867147	-1.037719001735059	-1.664848549440512	3480.820512820513	3620.51282051282	0.4094775212636695	0.5413625304136254	0.05151915455746367
2339.874267578125	-14.34615384615385	-32.59894838948081	0.06280408942538651	3.080797127763275	-1.995863314140116	-1.275256400337401	3466.25641025641	3619.047619047619	0.4046172539489671	0.5304136253041363	0.06208718626155878
2359.405517578125	-15.26923076923077	-31.92628718359303	0.04512841042064419	2.605343501694314	-1.066841470032144	-2.485701441553999	3489.558974358974	3620.51282051282	0.3997569866342648	0.5352798053527981	0.0607661822985469
2378.936767578125	-14.46153846153846	-32.13475395701176	0.04539015828047055	1.726185432674324	-0.5625432033131568	-2.063703612890487	3493.928205128205	3619.047619047619	0.3985419198055893	0.5437956204379563	0.06472919418758256
2398.468017578125	-14.80769230769231	-32.87079663730984	0.6552164808770093	2.198984980459562	-0.5604948093652366	-1.252084593816615	3489.558974358974	3620.51282051282	0.4070473876063183	0.5389294403892945	0.047556142668428
2417.999267578125	-14.69230769230769	-32.90464679435857	0.3092627948512656	2.220973835154875	0.3861608598131578	-0.834674660365662	3479.364102564102	3621.978021978022	0.4034021871202916	0.5401459854014599	0.05548216644649934
2437.530517578125	-14.92307692307692	-32.47896778961631	0.4099279423538831	1.300017672563434	0.3976495030398198	-1.641676742919726	3499.753846153846	3623.443223443223	0.4131227217496962	0.5389294403892945	0.05416116248348745
2457.061767578125	-14.69230769230769	-32.27568208412885	-0.3697419474040771	2.181829819867147	-1.037719001735059	-1.664848549440512	3492.471794871794	3619.047619047619	0.3997569866342648	0.5401459854014599	0.0488771466314399
2476.593017578125	-15.15384615384616	-32.39279115600173	0.1780193385477611	2.642307901162867	-1.04346332334839	-1.26134750816348	3482.276923076923	3620.51282051282	0.3961117861482381	0.524330900243309	0.06208718626155878
2496.124267578125	-15.03846153846154	-32.23802888464618	0.01682884769353943	2.181829819867147	-1.037719001735059	-1.664848549440512	3488.102564102564	3620.51282051282	0.4070473876063183	0.5413625304136254	0.047556142668428
2515.655517578125	-14.38461538461539	-32.51427295682701	-0.2863521586499969	1.709030272081909	-1.03976739568298	-2.476467568514383	3496.841025641026	3620.51282051282	0.4070473876063183	0.5352798053527981	0.05812417437252312
2535.186767578125	-14.73076923076923	-32.80380458212724	1.074844490977398	2.622498662286729	-0.5896172776623212	-2.072937485930102	3472.082051282051	3616.117216117216	0.402187120291616	0.5352798053527981	0.05548216644649934
2554.718017578125	-14.73076923076923	-32.05936287491532	0.3912206688427664	1.733198742596396	1.307389988359878	-2.453237679379099	3492.471794871794	3621.978021978022	0.4106925880923451	0.5352798053527981	0.06737120211360634
2574.249267578125	-14.34615384615385	-31.72671213894192	0.6817607932499846	2.201164596278737	0.8400069054992269	-1.646264638132285	3482.276923076923	3620.51282051282	0.3924665856622114	0.5364963503649636	0.05812417437252312
2593.780517578125	-14.69230769230769	-32.17098294019831	0.1645316253002402	1.740686514983017	0.8457512271125578	-2.049765679409316	3507.035897435897	3617.582417582417	0.3985419198055893	0.537712895377129	0.04623513870541612
2613.311767578125	-14.34615384615385	-32.72597308616123	0.6448081542156803	2.605343501694314	-1.066841470032144	-2.485701441553999	3493.928205128205	3619.047619047619	0.4106925880923451	0.5255474452554745	0.0607661822985469
2632.843017578125	-15.19230769230769	-32.44437857978691	0.8727751431914763	3.09046451596907	-1.057000360522973	-1.265964444683288	3477.907692307692	3620.51282051282	0.4009720534629404	0.5328467153284672	0.05416116248348745
2652.374267578125	-14.38461538461539	-32.33104945494858	0.1678573628133275	3.07548897119583	-0.1337228380283319	-2.072908444622853	3495.384615384615	3617.582417582417	0.4046172539489671	0.5352798053527981	0.05284015852047556
2671.905517578125	-14.07692307692308	-32.34407526020816	0.5114553181006343	3.087810437685347	-0.1259301224670807	-1.664790466826014	3488.102564102564	3621.978021978022	0.4034021871202916	0.5352798053527981	0.06472919418758256
2691.436767578125	-14.03846153846154	-32.61120434809386	0.367909712385293	3.112453370664383	-0.1103446913445781	-0.8485545112323344	3480.820512820513	3620.51282051282	0.402187120291616	0.5340632603406327	0.06869220607661823
2710.968017578125	-14.46153846153846	-32.32105684547638	-0.2548500338732525	2.220973835154875	0.3861608598131578	-0.834674660365662	3499.753846153846	3624.908424908425	0.4094775212636695	0.5389294403892945	0.05812417437252312
2730.499267578125	-14.92307692307692	-32.27803781486728	-0.0211861797130013	2.684105994734318	-0.5506536998560649	-0.03234759694590383	3474.994871794872	3626.373626373626	0.4034021871202916	0.5316301703163017	0.059445178335535
2750.030517578125	-15.42307692307692	-32.43287707088748	0.5284689289893454	2.684105994734318	-0.5506536998560649	-0.03234759694590383	3472.082051282051	3624.908424908425	0.4046172539489671	0.5413625304136254	0.059445178335535
2769.561767578125	-15.07692307692308	-32.01170166902753	0.2773911436841781	2.644487516982042	0.3570383915160731	-1.655527552479149	3483.733333333333	3619.047619047619	0.3985419198055893	0.5340632603406327	0.05680317040951123
2789.093017578125	-14.73076923076923	-33.71761255157972	0.6113968097554969	2.20381867456246	-0.09106333255666496	-1.247438615989558	3482.276923076923	3623.443223443223	0.4082624544349939	0.5401459854014599	0.05548216644649934
2808.624267578125	-14.65384615384616	-32.6721454086346	0.1841935086530764	2.615010889900109	-0.127978516415001	-2.476409485899886	3491.015384615384	3621.978021978022	0.3985419198055893	0.5352798053527981	0.05548216644649934
2828.155517578125	-14.34615384615385	-32.43959013364538	-0.2128010100388	1.713863966184807	-0.570335918874408	-2.471821590687326	3496.841025641026	3620.51282051282	0.3912515188335358	0.5389294403892945	0.06472919418758256
2847.686767578125	-15.03846153846154	-32.89932715403092	0.3894346246227751	1.735852820880119	0.3763197503039863	-2.054411657236373	3493.928205128205	3619.047619047619	0.4119076549210206	0.5328467153284672	0.05284015852047556
2867.218017578125	-14.19230769230769	-31.94762733263534	0.03521278561310592	2.19633090217584	0.3705754286906554	-1.650910615959341	3483.733333333333	3621.978021978022	0.4034021871202916	0.5364963503649636	0.05812417437252312
2886.749267578125	-14.92307692307692	-32.45048346369403	0.9087885693169922	2.174342047480527	-0.576080240487739	-2.068320549410295	3470.625641025641	3616.117216117216	0.4034021871202916	0.5389294403892945	0.06208718626155878
2906.280517578125	-14.80769230769231	-33.05632967912791	0.3164839563958859	2.144865420398594	-1.061097148418813	-2.889202482831031	3488.102564102564	3617.582417582417	0.3961117861482381	0.5316301703163017	0.05680317040951123
2925.811767578125	-13.96153846153846	-32.76515828047053	0.2963755619880519	2.144865420398594	-1.061097148418813	-2.889202482831031	3477.907692307692	3616.117216117216	0.4119076549210206	0.5267639902676399	0.06340819022457067
2945.343017578125	-15.5	-32.1087870296237	-0.2144946726612058	2.169508353377629	-1.04551171729631	-2.072966527237351	3476.451282051281	3617.582417582417	0.402187120291616	0.5340632603406327	0.06737120211360634
2964.874267578125	-15.19230769230769	-31.82003294943647	0.4247243949005357	1.713863966184807	-0.570335918874408	-2.471821590687326	3492.471794871794	3617.582417582417	0.402187120291616	0.5425790754257908	0.05548216644649934
2984.405517578125	-14.30769230769231	-32.26328755311942	0.5489930405863153	1.743340593266739	-0.08531901094333398	-1.65093965726659	3498.297435897436	3623.443223443223	0.4034021871202916	0.5316301703163017	0.059445178335535
3003.936767578125	-14.5	-32.28796113814128	0.05190306091026664	1.743340593266739	-0.08531901094333398	-1.65093965726659	3498.297435897436	3623.443223443223	0.4094775212636695	0.5352798053527981	0.0607661822985469
3023.468017578125	-15	-33.54676048531132	0.03033195787399134	2.167328737558455	-2.446013432160774	-1.678786482921682	3476.451282051281	3621.978021978022	0.4058323207776428	0.5304136253041363	0.05416116248348745
3042.999267578125	-15.26923076923077	-32.17648734372114	1.01667487836423	2.181829819867147	-1.037719001735059	-1.664848549440512	3473.538461538461	3620.51282051282	0.4009720534629404	0.5364963503649636	0.06340819022457067
3062.530517578125	-15.34615384615385	-32.78006251154771	0.5031255773849849	1.270541045481501	-0.08736740489125427	-2.462558676340462	3501.210256410256	3620.51282051282	0.4191980558930741	0.5413625304136254	0.05284015852047556
3082.061767578125	-14.42307692307692	-32.75139342243025	0.06967112151259469	2.149699114501491	-0.5916656716102415	-2.884556505003974	3489.558974358974	3619.047619047619	0.3973268529769137	0.5437956204379563	0.06869220607661823
3101.593017578125	-15.42307692307692	-32.00715187534643	0.396055305783088	2.201639058743285	-1.491565047421129	-0.853258571673889	3477.907692307692	3620.51282051282	0.402187120291616	0.5328467153284672	0.05812417437252312
3121.124267578125	-13.76923076923077	-32.07687688612428	0.3053827677526637	1.740686514983017	0.8457512271125578	-2.049765679409316	3491.015384615384	3617.582417582417	0.3985419198055893	0.5425790754257908	0.047556142668428
3140.655517578125	-15.19230769230769	-32.59372882921721	0.647979922399458	1.741160977447565	-1.485820725807797	-1.256759612950921	3483.733333333333	3620.51282051282	0.3973268529769137	0.5413625304136254	0.05812417437252312
3160.186767578125	-14.65384615384616	-32.51894592597155	0.2165270678080928	1.718697660287704	-0.1009044420658365	-2.46717561286027	3501.210256410256	3620.51282051282	0.3924665856622114	0.5364963503649636	0.06208718626155878
3179.718017578125	-15.88461538461539	-33.22360195848987	0.1416363860319025	3.073309355376655	-1.534224552892796	-1.678728400307184	3464.8	3614.652014652014	0.3973268529769137	0.5352798053527981	0.05812417437252312
3199.249267578125	-15.34615384615385	-32.30198774404139	1.599387202069348	2.602689423410591	-0.1357712319762522	-2.884527463696725	3472.082051282051	3617.582417582417	0.402187120291616	0.5401459854014599	0.05680317040951123
3218.780517578125	-16.73076923076923	-33.08673862166656	-0.08614583974872203	1.708555809617361	1.291804557237376	-3.269473634972779	3492.471794871794	3619.047619047619	0.4119076549210206	0.5401459854014599	0.05548216644649934
3238.311767578125	-17.19230769230769	-32.15069748106178	1.65025866847324	3.0450634191848	4.044404159881305	-4.479802510960381	3476.451282051281	3616.117216117216	0.4131227217496962	0.5389294403892945	0.06605019815059446
3257.843017578125	-15.65384615384616	-32.68235357516783	1.694601835314405	4.386879185319685	4.934863286413449	-4.892479342662531	3474.994871794872	3613.186813186813	0.4119076549210206	0.5291970802919708	0.05416116248348745
3277.374267578125	-15.46153846153846	-31.75772926033134	1.424924555028638	6.120552390380629	3.910681321852972	-6.552710955583235	3472.082051282051	3610.25641025641	0.3985419198055893	0.5364963503649636	0.0607661822985469
3296.905517578125	-15.15384615384616	-32.25190921968344	0.8262302149411837	6.487766896327655	1.980454799637848	-8.616501692395469	3482.276923076923	3600	0.4106925880923451	0.5352798053527981	0.05680317040951123
3316.436767578125	-14.92307692307692	-33.00015396932931	1.469236928003942	6.51240982930669	1.99604023076035	-7.800265736801789	3488.102564102564	3605.860805860806	0.4179829890643985	0.5413625304136254	0.07661822985468957
3335.968017578125	-14.57692307692308	-32.30491316129827	0.9764272956827	6.536578299821176	4.343197614803208	-7.777035847666506	3482.276923076923	3604.395604395604	0.4131227217496962	0.5267639902676399	0.0607661822985469
3355.499267578125	-15.38461538461539	-31.6453162530024	1.496581880889327	7.045867784610419	6.700196108355238	-6.53406896166051	3466.25641025641	3605.860805860806	0.4131227217496962	0.5304136253041363	0.06737120211360634
3375.030517578125	-15.38461538461539	-31.03867709552257	1.933854776128595	6.619225562034981	9.991960767628568	-6.905048158148145	3482.276923076923	3605.860805860806	0.4070473876063183	0.5340632603406327	0.07001321003963013
3394.561767578125	-16.57692307692308	-31.6001339533165	4.275928435055737	7.09155064735567	12.32558111449685	-6.886435205532669	3470.625641025641	3605.860805860806	0.4058323207776428	0.5291970802919708	0.06208718626155878
3414.093017578125	-18.38461538461539	-33.3326507359734	6.170998337131243	10.27480427620889	15.52463490749602	-6.478113938585087	3466.25641025641	3607.326007326007	0.4143377885783718	0.5401459854014599	0.07397622192866579
3433.624267578125	-17.15384615384615	-33.67267660282072	6.556907064112829	14.76726850336679	22.39177311007252	-8.495183525361512	3483.733333333333	3602.930402930403	0.4179829890643985	0.5364963503649636	0.08058124174372523
3453.155517578125	-17.80769230769231	-32.9699374884523	6.689182114922708	19.56022444396024	16.09350020927317	-11.05507540561218	3479.364102564102	3597.069597069597	0.4070473876063183	0.5304136253041363	0.07661822985468957
3472.686767578125	-18.61538461538462	-32.9993533288169	7.044589517768061	24.80787584681743	13.98319541589264	-14.80212435532966	3572.574358974359	3695.238095238095	0.4131227217496962	0.524330900243309	0.0845442536327609
3492.218017578125	-18.65384615384615	-33.04632167272279	5.58531440537045	30.14348266845585	15.65951329922568	-16.87953357124332	3555.097435897435	3689.377289377289	0.4204131227217496	0.5316301703163017	0.08586525759577279
3511.749267578125	-17.73076923076923	-32.34095738128965	5.93248444909774	36.37104348806834	14.50775367848063	-18.17781657156526	3528.882051282051	3684.981684981685	0.4106925880923451	0.5279805352798054	0.08850726552179657
3531.280517578125	-17.65384615384615	-32.68198404877748	5.599202438874176	40.23290141540002	9.613678420211167	-22.3470085564825	3549.271794871795	3674.725274725275	0.425273390036452	0.5255474452554745	0.07926023778071334
3550.811767578125	-17.88461538461539	-32.29248783642298	5.585930282687688	44.16603406338507	5.697429693365097	-24.46631869676142	3523.05641025641	3667.399267399267	0.4289185905224787	0.5279805352798054	0.1017173051519155
3570.343017578125	-19	-32.87702469668042	5.158927141713371	45.41193217588754	5.59447685735134	-27.74511332869556	3521.6	3665.934065934066	0.4204131227217496	0.5158150851581509	0.1083223249669749
3589.874267578125	-18.53846153846154	-32.35959536860258	5.748999199359488	45.79753253331705	10.20512014821121	-31.37633228711636	3523.05641025641	3657.142857142857	0.4301336573511543	0.5170316301703163	0.1241743725231176
3609.405517578125	-19.88461538461539	-31.90411560017245	7.398087700929975	47.57954267940697	13.87525295173645	-32.99010412176649	3511.405128205128	3652.747252747252	0.4313487241798298	0.5121654501216545	0.1254953764861295
3628.936767578125	-19.88461538461539	-31.1866185255897	8.061695510254356	50.72488298386254	21.71407250389258	-35.39214892112623	3511.405128205128	3645.421245421245	0.4398541919805589	0.5121654501216545	0.1281373844121533
3648.468017578125	-18.88461538461539	-30.63289862659358	8.221854406602205	54.70199334123821	19.6911351154033	-36.67663919450324	3502.666666666666	3639.560439560439	0.4507897934386391	0.5036496350364964	0.1373844121532365
3667.999267578125	-19.34615384615385	-30.70997567284597	8.691091334606146	57.85359072719032	21.00467028560695	-36.69501981666073	3496.841025641026	3638.095238095238	0.4483596597812879	0.4902676399026764	0.1505944517833553
3687.530517578125	-19.73076923076923	-30.11111196649627	9.901752170967543	60.6247032157768	28.90378316830517	-36.64373981271961	3504.123076923077	3638.095238095238	0.456865127582017	0.5024330900243309	0.1624834874504623
3707.061767578125	-18.88461538461539	-30.90542433947158	10.3096785120404	64.22227760071593	28.80327958646976	-36.27255732708123	3509.948717948718	3643.956043956044	0.4520048602673147	0.4902676399026764	0.1836195508586526
3726.593017578125	-19.15384615384615	-30.29191045143807	10.67244564882675	66.84089149382888	23.08108692615815	-36.7641286579216	3498.297435897436	3639.560439560439	0.4544349939246658	0.4841849148418492	0.1889035667107001
3746.124267578125	-19.42307692307692	-30.2657895547207	11.55870850526575	70.37780747124951	18.27847586067578	-36.84752392835063	3502.666666666666	3639.560439560439	0.473876063183475	0.475669099756691	0.1981505944517834
3765.655517578125	-20.53846153846154	-29.89956580649135	11.67059801687504	71.65631075158218	15.39789774161685	-38.11360453826291	3512.861538461538	3638.095238095238	0.4714459295261239	0.4683698296836983	0.2007926023778071
3785.186767578125	-19.92307692307692	-28.89864199051549	11.00902260269754	73.92126229612768	17.6773699397868	-38.11345933172667	3511.405128205128	3638.095238095238	0.465370595382746	0.462287104622871	0.1994715984147953
3804.718017578125	-20.26923076923077	-29.62775605099464	11.27241793434748	75.71606837117167	19.02372350595293	-38.52610712212157	3509.948717948718	3635.164835164835	0.4763061968408262	0.451338199513382	0.2285336856010568
3824.249267578125	-21.30769230769231	-27.34767814251401	11.76852251031595	76.67616854905084	20.43611472427449	-36.88893115049265	3496.841025641026	3638.095238095238	0.4908869987849331	0.4452554744525548	0.23778071334214
3843.780517578125	-20	-26.75925355669151	11.8088316807292	78.07428349106587	23.22767790472468	-36.05867013749607	3489.558974358974	3641.025641025641	0.4811664641555285	0.4343065693430657	0.2483487450462351
3863.311767578125	-21.80769230769231	-26.50479614460799	12.4321149227074	78.50045125117676	22.2674851983717	-36.48069700746682	3495.384615384615	3642.490842490842	0.4835965978128797	0.4391727493917275	0.2628797886393659
3882.843017578125	-20.38461538461539	-26.42752663669397	12.91479337316007	78.48812978468725	22.25969248281045	-36.88881498526366	3491.015384615384	3636.630036630037	0.4860267314702308	0.4257907542579076	0.2708058124174372
3902.374267578125	-20.88461538461539	-26.16125977705242	13.56298885262056	77.1383517837012	24.16244407044598	-37.67261621998969	3512.861538461538	3639.560439560439	0.5018226002430133	0.4160583941605839	0.2800528401585205
3921.905517578125	-21.5	-24.45771232370512	13.61638541602513	76.7535076546972	27.94701835321163	-36.81459550525975	3507.035897435897	3641.025641025641	0.4921020656136087	0.4063260340632603	0.2998678996036988
3941.436767578125	-20	-24.16871959105746	14.97444109133461	76.83397530109181	32.19527979117252	-35.54842777142572	3515.774358974359	3643.956043956044	0.5042527339003645	0.3807785888077859	0.3143989431968296
3960.968017578125	-19.57692307692308	-23.43343136047299	16.24849110057277	77.75976515778615	32.65322262475443	-34.7367797110446	3521.6	3646.886446886447	0.4993924665856622	0.3953771289537713	0.3104359313077939
3980.499267578125	-19.42307692307692	-22.54576738313728	15.94221531071011	80.45932115975828	28.84771944948338	-33.16917724159254	3499.753846153846	3652.747252747252	0.4945321992709599	0.3868613138686132	0.3421400264200793
4000.06103515625	-20.42307692307692	-22.87238252140174	15.96527991624069	82.27706501442667	26.4775847789872	-31.5784029656197	3499.753846153846	3652.747252747252	0.4993924665856622	0.3722627737226277	0.3487450462351387
4019.561767578125	-20.42307692307692	-21.92624099279423	16.73512656278869	84.0723455519352	25.49236639223298	-31.1980446895562	3502.666666666666	3651.282051282051	0.4945321992709599	0.3661800486618005	0.3527080581241744
4039.093017578125	-21.19230769230769	-21.16039754880828	17.67372359426003	83.98173605487024	22.63681395357529	-33.26651044550274	3504.123076923077	3651.282051282051	0.5054678007290401	0.343065693430657	0.3725231175693527
4058.624267578125	-21.42307692307692	-20.75704409681591	18.89066637925725	84.86307373970939	23.53301740172077	-34.08268831848192	3509.948717948718	3651.282051282051	0.5006075334143377	0.3394160583941606	0.3698811096433289
4078.155517578125	-20.19230769230769	-21.50739822627333	18.63914208289709	85.72460218567241	24.88306689555231	-35.71045616922773	3520.14358974359	3646.886446886447	0.5006075334143377	0.3223844282238443	0.3791281373844121
4097.686767578125	-19.96153846153846	-19.60044189197512	19.21440229106362	87.51239495079432	24.35948727004541	-35.73356989313402	3520.14358974359	3646.886446886447	0.4933171324422843	0.3077858880778589	0.3923381770145311
4117.218017578125	-20.42307692307692	-19.16942015150582	19.27869988298331	87.49789386848563	22.9511928396197	-35.74750782661518	3512.861538461538	3643.956043956044	0.4981773997569866	0.3150851581508516	0.4002642007926024
4136.749267578125	-20.15384615384615	-17.94223070764304	21.11153538215188	88.88150772819196	24.33446158964417	-34.93118474709976	3493.928205128205	3645.421245421245	0.4933171324422843	0.2773722627737226	0.4214002642007926
4156.280517578125	-20.5	-15.74746720453286	19.41182176510439	87.59817075375641	26.74560823189453	-33.66975011501453	3514.317948717948	3648.351648351648	0.5018226002430133	0.2761557177615572	0.4266842800528402
4175.811767578125	-20	-16.06377409620004	19.342550963848	87.26479210652967	31.96185509176965	-31.5734375334129	3515.774358974359	3651.282051282051	0.5006075334143377	0.2591240875912409	0.4332892998678996
4195.343017578125	-19.88461538461539	-14.38548531132599	19.92811172014535	85.58476399906513	35.81821134830406	-29.06909409793618	3520.14358974359	3661.538461538461	0.4993924665856622	0.2493917274939173	0.4425363276089828
4214.874267578125	-19.30769230769231	-13.56086407587609	20.42781917841966	84.2992474088104	36.82885627568996	-27.41347942153528	3536.164102564102	3665.934065934066	0.5042527339003645	0.2287104622871046	0.4583883751651255
4234.405517578125	-18.73076923076923	-13.42140635585391	20.57031779269569	84.32919849835689	34.98230123070068	-25.79959142165615	3534.707692307692	3668.864468864469	0.4945321992709599	0.2128953771289538	0.4649933949801849
4253.936767578125	-18.5	-11.43053673708197	20.79606762332943	83.87402857362861	33.12590507620222	-25.40544041864773	3536.164102564102	3664.468864468864	0.4823815309842041	0.2068126520681265	0.4782034346103039
4273.468017578125	-19.19230769230769	-11.42143714971978	21.03339594752725	83.41402495479743	30.8000774448952	-25.01593539346636	3540.533333333333	3670.32967032967	0.488456865127582	0.1934306569343066	0.4874504623513871
4292.999267578125	-17.65384615384615	-11.18709583051056	21.2394069101435	83.43866788777646	30.8156628760177	-24.19969943787269	3515.774358974359	3667.399267399267	0.4811664641555285	0.1897810218978102	0.4927344782034346
4312.530517578125	-18.38461538461539	-8.984710845599556	21.46631151074706	81.66054251086034	32.27810545514174	-24.16729375831228	3531.794871794872	3668.864468864469	0.4921020656136087	0.1618004866180049	0.5006605019815059
4332.061767578125	-18.30769230769231	-8.357270431729999	20.78659850957689	81.25200437380643	31.38395040094419	-22.53949686625923	3521.6	3670.32967032967	0.4775212636695018	0.1435523114355231	0.5072655217965654
4351.593017578125	-17.73076923076923	-7.768222270123792	19.60342119849726	79.47653307517402	31.91532274201234	-22.10826516455611	3524.51282051282	3670.32967032967	0.465370595382746	0.1435523114355231	0.512549537648613
4371.124267578125	-17.53846153846154	-7.962185132721562	21.4169489437704	77.22608261293722	31.04414497426811	-22.09447243761118	3543.446153846154	3673.260073260073	0.4714459295261239	0.1289537712895377	0.5099075297225891
4390.655517578125	-17.15384615384615	-6.845060663915748	20.94534088809509	75.47307463146468	30.19060103159431	-20.4528247359987	3534.707692307692	3673.260073260073	0.473876063183475	0.1277372262773723	0.5072655217965654
4410.186767578125	-17	-5.955856993286937	20.56208043357763	72.796456409117	30.27961597020305	-20.01700513908302	3552.184615384615	3683.516483516483	0.4678007290400972	0.1058394160583942	0.5336856010568032
4429.718017578125	-16.57692307692308	-4.707850896101498	21.20023711276714	71.05046173756652	31.29600521920227	-18.76489150395915	3544.902564102564	3682.051282051282	0.4507897934386391	0.09610705596107057	0.5310435931307794
4449.249267578125	-16.57692307692308	-3.069617232247336	21.98086161236682	69.30446706601606	32.3123944682015	-17.51277786883529	3537.620512820513	3684.981684981685	0.4520048602673147	0.08515815085158152	0.5495376486129459
4468.780517578125	-15.80769230769231	-2.820032949436472	22.19395516413131	67.96265129988117	31.42193534166935	-17.10010103713314	3550.728205128205	3684.981684981685	0.4520048602673147	0.07177615571776155	0.5455746367239102
4488.311767578125	-14.65384615384616	-2.457204224918397	22.12944201515058	68.84493790964943	27.65499488397412	-16.33026677719553	3537.620512820513	3686.446886446886	0.44228432563791	0.06934306569343066	0.5521796565389696
4507.843017578125	-14	-1.727258730060972	23.43985957997167	69.23509019522086	22.00828012509668	-16.39063544764002	3544.902564102564	3687.912087912088	0.44228432563791	0.04866180048661801	0.5455746367239102
4527.374267578125	-15.73076923076923	0.2370434809385971	25.03244133768553	68.7654191881839	18.74358954017251	-16.01042237811276	3552.184615384615	3690.84249084249	0.4398541919805589	0.04744525547445256	0.5482166446499339
4546.905517578125	-17	0.6833004865430807	23.21959105746135	67.04141337132876	20.70663445835013	-14.34089880953795	3556.553846153846	3696.703296703297	0.4179829890643985	0.0121654501216545	0.5521796565389696
4566.436767578125	-16.65384615384615	0.284589209829402	23.57823181622221	65.79892556553554	28.27373462993353	-13.43647639915194	3579.85641025641	3699.6336996337	0.4301336573511543	0.01581508515815085	0.5640686922060766
4585.968017578125	-15.11538461538462	0.8461153538215189	24.7326938473856	65.35873118558051	25.49406095294043	-12.23538139620395	3454.605128205128	3592.673992673992	0.4216281895504253	0.007299270072992701	0.570673712021136
4605.499267578125	-15.03846153846154	3.054820779700684	23.83588409188889	64.8692509396674	22.68321641370233	-12.66675830444332	3544.902564102564	3698.168498168498	0.4264884568651275	-0.00364963503649635	0.5627476882430648
4625.030517578125	-15.61538461538462	3.386509207365893	23.21300117016691	60.42152065032566	26.10460712310816	-12.58806709445585	3553.641025641025	3696.703296703297	0.4228432563791008	-0.00364963503649635	0.570673712021136
4644.561767578125	-14.88461538461539	3.071018353144054	24.79523618895116	60.04852352534664	32.22854607435542	-12.11493446838746	3457.517948717949	3591.208791208791	0.4204131227217496	-0.01338199513381995	0.5746367239101717
4664.093017578125	-14.57692307692308	3.632298146209275	25.26970807415163	59.19618800512486	34.14893148706137	-11.27088072844594	3461.887179487179	3597.069597069597	0.4106925880923451	-0.0291970802919708	0.5733157199471598
4683.624267578125	-13.42307692307692	4.514003510500708	24.26136293650305	59.16671137804293	33.66391457913029	-12.09176266186668	3473.538461538461	3591.208791208791	0.4009720534629404	-0.04257907542579076	0.5746367239101717
4703.155517578125	-13.5	5.253810740900413	25.80946295497937	59.58321174994802	31.76485891916018	-12.52308148749155	3565.292307692307	3701.098901098901	0.3961117861482381	-0.0462287104622871	0.5865257595772787
4722.686767578125	-13.69230769230769	5.596354006281949	24.25922276282564	59.59117398479919	28.9716482049925	-11.32660342106337	3477.907692307692	3594.139194139194	0.3961117861482381	-0.06326034063260341	0.5891677675033025
4742.218017578125	-12.38461538461539	6.147825953070148	24.2240869618772	60.93782344503697	30.33153880833322	-11.73463427493847	3476.451282051281	3597.069597069597	0.3815309842041312	-0.07299270072992702	0.583883751651255
4761.749267578125	-12.88461538461539	6.910643899735173	25.04472809016444	61.41327707110593	29.40251696422525	-10.52418923372187	3456.061538461538	3594.139194139194	0.3863912515188335	-0.07299270072992702	0.5865257595772787
4781.280517578125	-11.88461538461539	6.728390404631398	25.46509515304551	60.95497860562939	30.80876300070305	-11.32187031931457	3477.907692307692	3597.069597069597	0.3803159173754556	-0.08880778588807786	0.5904887714663144
4800.811767578125	-10.65384615384616	6.962670136108888	24.05880088686334	62.76258060962744	29.83133732951007	-10.53339406545423	3458.974358974359	3595.604395604395	0.3754556500607533	-0.1082725060827251	0.583883751651255
4820.343017578125	-11.30769230769231	7.726996982201145	24.95784319763503	61.35479827940662	26.10091119544275	-11.37294703410494	3469.169230769231	3595.604395604395	0.3669501822600243	-0.1155717761557178	0.5772787318361955
4839.874267578125	-10.88461538461539	9.577023156987128	24.34114984295128	61.37678713410192	27.04756686462114	-10.95553710065399	3472.082051282051	3598.534798534799	0.3620899149453219	-0.1180048661800487	0.5772787318361955
4859.405517578125	-10.19230769230769	9.54867740346123	23.14305290386155	62.27092074789516	25.61999107540751	-10.57059092937794	3473.538461538461	3594.139194139194	0.3608748481166464	-0.1326034063260341	0.5904887714663144
4878.936767578125	-10.30769230769231	10.38932684609226	23.53365769538708	60.0767694615385	26.64991736158132	-9.313860357734264	3495.384615384615	3602.930402930403	0.3511543134872417	-0.1399026763990268	0.5759577278731837
4898.468017578125	-10.5	10.85812496150767	23.36298269384739	59.67789871269036	26.69462526100091	-7.676771510027098	3474.994871794872	3605.860805860806	0.3511543134872417	-0.1447688564476886	0.5812417437252312
4917.999267578125	-9.615384615384617	11.86218205333498	22.2755127178666	57.9367377352428	28.1804459868087	-6.420011897076177	3473.538461538461	3608.791208791209	0.3317132442284325	-0.1545012165450122	0.5852047556142669
4937.530517578125	-8.884615384615385	12.10329032456735	22.95086838701731	56.13709796609592	26.364660943834	-6.012010084508333	3488.102564102564	3608.791208791209	0.3341433778857837	-0.1642335766423358	0.5812417437252312
4957.061767578125	-9.230769230769232	12.69985218944386	22.31508283549917	55.32921461772931	27.84678574197638	-3.540130411206508	3473.538461538461	3619.047619047619	0.3256379100850547	-0.1690997566909976	0.5812417437252312
4976.593017578125	-8.384615384615385	13.07801625916117	21.79149473424894	53.99223254569733	27.42575809225281	-3.122807601677302	3485.189743589744	3619.047619047619	0.3329283110571081	-0.1715328467153285	0.5918097754293263
4996.124267578125	-7.923076923076923	13.16895054505143	22.55247274742871	55.34030539332875	21.79093283683246	-1.151820256177208	3464.8	3617.582417582417	0.3098420413122722	-0.1678832116788321	0.5733157199471598
5015.655517578125	-8	13.98805198004557	22.05893945925972	52.16889876850051	20.93124371231489	-1.945029611786346	3496.841025641026	3620.51282051282	0.3049817739975698	-0.183698296836983	0.5785997357992074
5035.186767578125	-8.346153846153847	13.845561064236	21.83733140358441	51.71856253787512	19.54427903462501	-1.546232630950868	3492.471794871794	3621.978021978022	0.3134872417982989	-0.2068126520681265	0.5852047556142669
5054.718017578125	-8.230769230769232	14.41065159820164	22.31357393607193	50.84158408467431	21.44907901620846	-1.518414846603026	3498.297435897436	3623.443223443223	0.307411907654921	-0.1982968369829684	0.5772787318361955
5074.249267578125	-8.038461538461538	15.06890897333251	21.90070517952824	50.38906823822976	18.66161262365412	-0.7254378214518789	3480.820512820513	3620.51282051282	0.3061968408262454	-0.2068126520681265	0.5825627476882431
5093.780517578125	-8.192307692307693	14.65085145039108	21.80358132659974	48.16278624650744	20.13759223995274	-0.6884152053716695	3492.471794871794	3619.047619047619	0.3013365735115431	-0.2262773722627737	0.571994715984148
5113.311767578125	-7.730769230769231	16.63483864014288	20.21960645439429	49.54640010621377	21.52086098997721	0.1279078741437568	3473.538461538461	3621.978021978022	0.3025516403402187	-0.2214111922141119	0.5799207397622193
5132.843017578125	-7.5	16.86506897825953	21.93885877933116	48.17510771299695	20.14538495551399	-0.2802972275748297	3480.820512820513	3624.908424908425	0.298906439854192	-0.2262773722627737	0.5653896961690885
5152.374267578125	-7	16.57493687257498	20.56084867894315	47.241830083916	20.1490808831794	-1.495417287925733	3492.471794871794	3621.978021978022	0.2916160388821385	-0.24330900243309	0.570673712021136
5171.905517578125	-6.576923076923078	16.66586345999877	21.36067315390774	45.87537138480208	19.24303632552476	-1.898976411817263	3485.189743589744	3619.047619047619	0.3013365735115431	-0.2506082725060828	0.5680317040951123
5191.436767578125	-7	17.56188027344953	21.21367863521587	45.88238469472415	21.11296951719779	-2.288510478305875	3492.471794871794	3617.582417582417	0.2928311057108141	-0.2445255474452555	0.5680317040951123
5210.968017578125	-6.115384615384616	18.26415747983002	21.75366447003757	45.87489692233753	21.57460827844511	-2.691982478275659	3495.384615384615	3620.51282051282	0.2916160388821385	-0.2639902676399027	0.5693527080581242
5230.499267578125	-6.269230769230769	18.82688458459075	20.69423230892407	45.86039584002884	20.16631384801939	-2.705920411756829	3473.538461538461	3617.582417582417	0.2697448359659781	-0.2542579075425791	0.5535006605019816
5250.030517578125	-6.76923076923077	19.22171583420582	20.68343905893946	44.96844184205479	22.99439135209749	-3.485046627348552	3496.841025641026	3620.51282051282	0.275820170109356	-0.2749391727493917	0.560105680317041
5269.561767578125	-5.192307692307693	18.96336299809078	20.48569624930714	45.84494583279104	23.42116332343439	-4.30587047815479	3479.364102564102	3616.117216117216	0.2612393681652491	-0.2700729927007299	0.5680317040951123
5289.093017578125	-5.576923076923078	19.03565159820164	21.10203547453347	46.72941205837848	21.05472458060362	-3.93021626253285	3480.820512820513	3614.652014652014	0.267314702308627	-0.2761557177615572	0.5561426684280053
5308.624267578125	-5.846153846153847	20.02562049639712	19.94974441091335	47.13406542625861	16.8163042521519	-3.976646999496169	3451.692307692307	3610.25641025641	0.2697448359659781	-0.2883211678832117	0.5482166446499339
5328.155517578125	-6.153846153846154	20.77077046252387	19.53839995072982	45.34096450456925	19.20202435377058	-4.751185319875333	3491.015384615384	3614.652014652014	0.2746051032806804	-0.2907542579075426	0.5442536327608983
5347.686767578125	-5.269230769230769	20.79943185317485	19.14379195664224	44.00616204835644	20.18149841891147	-4.728042554661796	3501.210256410256	3614.652014652014	0.2515188335358444	-0.3004866180048662	0.5495376486129459
5367.218017578125	-4.807692307692308	20.82338948081543	19.407449036152	44.48862898434747	21.12240976647653	-3.907131579933811	3477.907692307692	3613.186813186813	0.2478736330498177	-0.3004866180048662	0.5482166446499339
5386.749267578125	-4.730769230769231	21.59325152429636	19.29896224672045	44.500950450837	21.13020248203779	-3.499013602136971	3476.451282051281	3617.582417582417	0.2551640340218712	-0.305352798053528	0.5336856010568032
5406.280517578125	-4.923076923076923	22.21678881566792	19.08363613968098	43.6169586877141	21.1650692719482	-3.081661751300516	3488.102564102564	3617.582417582417	0.2466585662211421	-0.3114355231143552	0.5468956406869221
5425.811767578125	-4	22.72276282564513	19.78493564082035	43.63894754240941	22.1117249411266	-2.664251817849562	3477.907692307692	3617.582417582417	0.2345078979343864	-0.3272506082725061	0.5297225891677675
5445.343017578125	-3.5	22.39336854098664	18.44695756605284	42.73296692459122	21.19993606185862	-2.66430990046406	3483.733333333333	3617.582417582417	0.2430133657351154	-0.329683698296837	0.5363276089828269
5464.874267578125	-3.807692307692308	23.07000215557061	17.6152768368541	42.26016737680598	21.1978876679107	-3.475928919537932	3493.928205128205	3620.51282051282	0.2332928311057108	-0.3381995133819952	0.5350066050198151
5484.405517578125	-3.384615384615385	23.40266059001047	17.86697049947651	42.71315768571508	21.65378210754468	-3.475899878230683	3488.102564102564	3616.117216117216	0.2381530984204131	-0.3442822384428224	0.5270805812417437
5503.936767578125	-3.423076923076923	23.34183500646671	17.1005573689721	42.69647698758721	18.84498596225451	-3.095657767396184	3474.994871794872	3616.117216117216	0.2296476306196841	-0.3479318734793188	0.523117569352708
5523.468017578125	-2.576923076923077	24.05334267413931	15.29440475457289	42.24130706285894	16.98858980775605	-2.701506764387763	3493.928205128205	3619.047619047619	0.2247873633049818	-0.3527980535279806	0.5191545574636725
5542.999267578125	-3.807692307692308	25.72828262610088	15.47048407957135	38.66354191679594	16.63524734390539	-2.261099272259517	3467.71282051282	3614.652014652014	0.2247873633049818	-0.3625304136253041	0.5284015852047557
5562.530517578125	-4.153846153846154	25.99535012625485	14.00172445648827	33.80243979629736	18.69305152230509	-0.5592571480460452	3466.25641025641	3617.582417582417	0.2150668286755771	-0.3625304136253041	0.512549537648613
5582.061767578125	-3.5	25.06473640450822	13.72471823612736	29.42816384342818	24.49277047799878	1.175135862264073	3480.820512820513	3619.047619047619	0.2272174969623329	-0.3722627737226277	0.52443857331572
5601.593017578125	-2.5	25.3066684116524	14.08965634045698	28.0718469949846	22.19401692104091	1.573874760485053	3491.015384615384	3626.373626373626	0.2150668286755771	-0.3734793187347932	0.5059445178335535
5621.124267578125	-2.730769230769231	24.631466711831	13.46512594691138	24.83276865271579	14.76228712120334	0.7156217152971203	3496.841025641026	3627.838827838828	0.2138517618469016	-0.3698296836982968	0.512549537648613
5640.655517578125	-2.192307692307693	25.52998552688305	12.23149288661699	23.36916160907937	6.799184980297618	-0.5738630315939399	3488.102564102564	3620.51282051282	0.2162818955042527	-0.378345498783455	0.5165125495376486
5660.186767578125	-2.730769230769231	25.80471300117017	10.57204224918396	19.68145218953981	1.712564170554983	-2.22050520672046	3488.102564102564	3614.652014652014	0.2138517618469016	-0.3807785888077859	0.5085865257595773
5679.718017578125	-3.807692307692308	26.3587870296237	10.86834082650736	16.96256141115611	3.640341438591757	-3.806691587480745	3480.820512820513	3613.186813186813	0.2041312272174969	-0.3844282238442823	0.5099075297225891
5699.249267578125	-2.769230769230769	26.20502555890867	11.74872205456673	13.82499064504815	6.066672651734189	-4.567379098300486	3467.71282051282	3613.186813186813	0.2174969623329283	-0.3856447688564477	0.5085865257595773
5718.780517578125	-2.192307692307693	26.09351327215619	10.97818254603683	9.357451116830266	9.941909406826081	-5.300277866079632	3479.364102564102	3610.25641025641	0.2102065613608748	-0.3807785888077859	0.5072655217965654
5738.311767578125	-1.653846153846154	27.07440567838886	11.39510069594137	4.875884968768242	10.0772797785719	-5.254108500881555	3476.451282051281	3608.791208791209	0.1968408262454435	-0.3844282238442823	0.5138705416116248
5757.843017578125	-1.423076923076923	26.44086807907865	12.07198066145224	1.349585304482486	11.15560989183071	-3.575409141881619	3476.451282051281	3613.186813186813	0.2065613608748481	-0.3856447688564477	0.499339498018494
5777.374267578125	-1.730769230769231	26.69716542464741	13.02634415224487	-1.767701760284794	10.79652310636672	-2.731500608476342	3482.276923076923	3617.582417582417	0.1980558930741191	-0.3868613138686132	0.5099075297225891
5796.905517578125	-0.3461538461538462	26.25786013426125	14.37622405616801	-4.063835085266852	4.299960332480876	-2.365341637659257	3493.928205128205	3617.582417582417	0.212636695018226	-0.3990267639902677	0.5085865257595773
5816.436767578125	-1.423076923076923	27.33542988236744	15.42081357393607	-4.525543857452651	-1.757940966610966	-0.7886505017038279	3492.471794871794	3623.443223443223	0.1931956257594168	-0.3892944038929441	0.5019815059445179
5835.968017578125	-2.807692307692308	26.85707797006836	15.72302457350496	-4.048385078029064	1.045110857065881	-0.7653915712612953	3492.471794871794	3621.978021978022	0.1944106925880923	-0.3868613138686132	0.5112285336856011
5855.499267578125	-1.846153846153846	25.97271663484634	16.67186056537538	-2.649795673549487	1.505102084595711	0.8578755081936967	3477.907692307692	3626.373626373626	0.2053462940461725	-0.378345498783455	0.5059445178335535
5875.030517578125	-1.576923076923077	25.85883322042249	16.32756974810618	-1.3589709267273	-1.367683318901968	-8.712392174668043e-05	3493.928205128205	3626.373626373626	0.2004860267314702	-0.3819951338199514	0.5165125495376486
5894.561767578125	-1.307692307692308	26.41240684855577	19.14888834144238	0.872144759097918	-2.374231458392022	-0.03246376217489941	3489.558974358974	3623.443223443223	0.2053462940461725	-0.3844282238442823	0.5151915455746368
5914.093017578125	-2.384615384615385	27.40298392560202	18.77388064297592	2.696901923688384	-2.874432937215169	1.168776447309332	3477.907692307692	3617.582417582417	0.2053462940461725	-0.3832116788321168	0.5165125495376486
5933.624267578125	-2.538461538461539	25.48218574859888	18.81378949313297	4.545353096328789	1.304094920924898	1.600240479470451	3504.123076923077	3626.373626373626	0.1956257594167679	-0.378345498783455	0.5204755614266843
5953.155517578125	-1.923076923076923	25.36760177372667	18.15837285212785	6.286988536240902	-2.513297757803255	1.136486932977926	3493.928205128205	3621.978021978022	0.2017010935601458	-0.3759124087591241	0.5019815059445179
5972.686767578125	-2.461538461538462	26.68778099402599	18.07248876023896	6.250024136772349	-2.536675904487009	-0.08786700041259357	3511.405128205128	3627.838827838828	0.2029161603888214	-0.3819951338199514	0.5046235138705416
5992.218017578125	-3.884615384615385	27.3534135000308	16.98317115230646	5.852858541278843	1.240105662717397	0.3620357365205079	3499.753846153846	3626.373626373626	0.1980558930741191	-0.391727493917275	0.5019815059445179
6011.749267578125	-2.615384615384615	26.05570610334421	17.13777175586623	7.71581079622794	6.826927951283178	0.8074377021627972	3477.907692307692	3626.373626373626	0.1992709599027946	-0.378345498783455	0.5072655217965654
6031.280517578125	-1.961538461538462	25.84797838270617	15.33185009546099	8.509193062285855	3.936508722715077	-1.678379904620197	3495.384615384615	3621.978021978022	0.2077764277035237	-0.3795620437956205	0.499339498018494
6050.811767578125	-2.615384615384615	27.21278561310587	15.05302703701423	7.544733652768337	-0.2768859253354055	-2.527195787617772	3480.820512820513	3617.582417582417	0.2077764277035237	-0.3807785888077859	0.5046235138705416
6070.343017578125	-1.961538461538462	26.25676695202316	14.12319086038061	7.078947414905172	1.590998872389709	-3.728348873180256	3480.820512820513	3614.652014652014	0.2017010935601458	-0.3856447688564477	0.5033025099075297
6089.874267578125	-1.692307692307693	25.83109564574737	13.98367925109318	4.8108673296114	2.57416886519601	-4.920326168317622	3488.102564102564	3613.186813186813	0.2041312272174969	-0.3734793187347932	0.5019815059445179
6109.405517578125	-1.5	26.06670721192339	13.54925478844614	3.895219323587406	0.7235170323108878	-4.929676206586234	3482.276923076923	3613.186813186813	0.1883353584447144	-0.3905109489051095	0.5138705416116248
6128.936767578125	-0.576923076923077	26.89139773357147	13.69934409065714	2.601740498481495	4.527372673864458	-4.470539596613516	3488.102564102564	3613.186813186813	0.1907654921020656	-0.3807785888077859	0.5046235138705416
6148.468017578125	-1.730769230769231	26.54704532857055	12.84004126378025	-0.5520365032897899	1.813335788796356	-4.057978930140362	3482.276923076923	3611.721611721612	0.2077764277035237	-0.3832116788321168	0.5112285336856011
6167.999267578125	-0.6538461538461539	27.1985511486112	13.8032118002094	-3.204011792658452	1.917936158527603	-2.805923377630996	3474.994871794872	3617.582417582417	0.2017010935601458	-0.3819951338199514	0.5072655217965654
6187.530517578125	-1.423076923076923	26.20991408511425	14.00429574428774	-6.308977390936215	1.566642088624861	-1.553896866428879	3488.102564102564	3620.51282051282	0.1871202916160389	-0.3880778588807786	0.5019815059445179
6207.061767578125	-0.4615384615384616	26.73899119295437	13.51197881382029	-8.941143441428739	1.217396412670039	0.5097486638471102	3498.297435897436	3626.373626373626	0.1883353584447144	-0.3819951338199514	0.5046235138705416
6226.593017578125	-0.8846153846153847	26.81204194124531	14.12867216850403	-9.851483290885287	-2.495395896326867	1.298050669863951	3488.102564102564	3624.908424908425	0.1907654921020656	-0.3807785888077859	0.5059445178335535
6246.124267578125	-0.3461538461538462	26.99922245488699	13.84656956334298	-10.71784543095121	-4.314876866966983	2.921172542782699	3467.71282051282	3623.443223443223	0.2029161603888214	-0.378345498783455	0.5151915455746368
6265.655517578125	-1.423076923076923	26.52632105684548	15.49163946541849	-12.96393666154967	-2.385051204982288	2.146605181096286	3501.210256410256	3626.373626373626	0.2089914945321993	-0.3746958637469586	0.523117569352708
6285.186767578125	-1.230769230769231	26.49710537660898	14.83703886185872	-14.28859726709214	-2.798286139144611	2.972045968422332	3489.558974358974	3623.443223443223	0.2004860267314702	-0.3844282238442823	0.5099075297225891
6304.718017578125	-1.5	26.47164654800764	14.45613413807969	-15.67439074261765	-5.582056604033545	2.549902933222575	3496.841025641026	3627.838827838828	0.2004860267314702	-0.3734793187347932	0.5138705416116248
6324.249267578125	-1.884615384615385	24.89107439797992	15.02320317792696	-17.93934228716315	-7.861528802203491	2.549757726686331	3483.733333333333	3626.373626373626	0.1968408262454435	-0.3600973236009732	0.5191545574636725
6343.780517578125	-3.384615384615385	25.16560941060541	14.33491408511424	-21.07909266909029	-6.835699303925524	2.183250260182259	3499.753846153846	3626.373626373626	0.2150668286755771	-0.3722627737226277	0.512549537648613
6363.311767578125	-2.423076923076923	25.43524819855885	15.27605161051918	-22.8255618031053	-3.487738102005943	2.642357828847728	3489.558974358974	3626.373626373626	0.1992709599027946	-0.3637469586374696	0.5217965653896962
6382.843017578125	-2.5	24.746989899612	15.15050501940014	-22.8255618031053	-3.487738102005943	2.642357828847728	3485.189743589744	3626.373626373626	0.2102065613608748	-0.3613138686131387	0.5165125495376486
6402.374267578125	-2.115384615384615	24.67470129950114	14.5341657941738	-24.23334413332612	-7.218164236073271	1.802804860197018	3501.210256410256	3626.373626373626	0.2162818955042527	-0.3600973236009732	0.5270805812417437
6421.905517578125	-3.26923076923077	24.95238498491101	15.2653661390651	-25.17581468814833	-10.48490321494536	1.371398910650397	3483.733333333333	3621.978021978022	0.2089914945321993	-0.3564476885644769	0.512549537648613
6441.436767578125	-2.423076923076923	24.49295590318409	16.2368202254111	-28.8028657001694	-10.86941654104103	0.1793344915912837	3502.666666666666	3626.373626373626	0.2077764277035237	-0.3503649635036497	0.5270805812417437
6460.968017578125	-4.384615384615385	24.31472870604176	15.57125700560448	-31.49881869892869	-12.65812750966657	0.5965701771987436	3498.297435897436	3626.373626373626	0.2138517618469016	-0.3503649635036497	0.5350066050198151
6480.499267578125	-3.653846153846154	24.0469683439059	14.76696742008992	-32.75533312456605	-8.830893721429241	2.28006072056198	3476.451282051281	3623.443223443223	0.2162818955042527	-0.3442822384428224	0.5508586525759578
6500.030517578125	-2.730769230769231	24.0332958674632	16.45059124222455	-35.44958096997071	-6.887531022269966	1.510110295395374	3492.471794871794	3621.978021978022	0.2272174969623329	-0.3394160583941606	0.5297225891677675
6519.561767578125	-3.423076923076923	22.96537999630474	16.69253864630166	-36.35774120360808	-9.199821616402407	1.904232257096546	3483.733333333333	3627.838827838828	0.2199270959902795	-0.3345498783454988	0.5284015852047557
6539.093017578125	-3.5	23.49424924555029	17.24907618402414	-38.22116792102173	-12.45507195204784	0.6658242249958613	3492.471794871794	3629.304029304029	0.2150668286755771	-0.3211678832116788	0.5455746367239102
6558.624267578125	-3.346153846153846	22.18477089363799	17.18453224117756	-37.85129933679097	-15.31636871231885	-0.9991404896736458	3492.471794871794	3620.51282051282	0.2077764277035237	-0.329683698296837	0.5416116248348745
6578.155517578125	-4.346153846153847	21.57177280285767	18.06520601096262	-38.77756365594986	-13.44273959298041	-2.603794616513162	3488.102564102564	3620.51282051282	0.2223572296476306	-0.3175182481751825	0.5442536327608983
6597.686767578125	-4	21.09068793496336	18.69637248260147	-39.68183912041344	-10.62245480446357	-3.791038809901725	3501.210256410256	3616.117216117216	0.2272174969623329	-0.3126520681265207	0.5587846763540291
6617.218017578125	-4.384615384615385	21.02209459875593	18.66450083143438	-40.12298242529757	-8.738984575615946	-4.17595593987053	3488.102564102564	3613.186813186813	0.2284325637910085	-0.2992700729927008	0.5535006605019816
6636.749267578125	-3.692307692307693	20.89905770770463	20.27788384553797	-39.62553994453329	-8.721350750545525	-2.548100965202979	3477.907692307692	3617.582417582417	0.2381530984204131	-0.2907542579075426	0.5548216644649934
6656.280517578125	-2.846153846153846	21.15712570056045	19.98986881813143	-39.64004102684199	-10.12964518097124	-2.562038898684149	3489.558974358974	3614.652014652014	0.2296476306196841	-0.2980535279805353	0.5587846763540291
6675.811767578125	-3.615384615384615	21.04380427418858	20.65594013672476	-39.68306981130351	-16.68610042516874	-1.810846632669264	3477.907692307692	3616.117216117216	0.2308626974483596	-0.2907542579075426	0.5535006605019816
6695.343017578125	-3.961538461538462	20.55488236743241	20.44818932068732	-39.66544018824655	-18.54044818571927	-0.605076610586972	3480.820512820513	3624.908424908425	0.235722964763062	-0.2785888077858881	0.5799207397622193
6714.874267578125	-4.884615384615385	20.03197173123114	20.59372113075076	-42.36404726528956	-19.39808891628892	-0.5866669471222383	3496.841025641026	3624.908424908425	0.2345078979343864	-0.2858880778588808	0.5680317040951123
6734.405517578125	-5.153846153846154	20.19127609780132	20.59004126378026	-43.19439393081603	-16.53104783440457	0.674796726270237	3493.928205128205	3626.373626373626	0.2417982989064398	-0.2725060827250608	0.570673712021136
6753.936767578125	-5.653846153846154	19.94328539754881	20.02803781486728	-44.50284830069518	-11.80391467035636	0.3269893363033882	3499.753846153846	3626.373626373626	0.2417982989064398	-0.2652068126520681	0.5693527080581242
6773.468017578125	-4.384615384615385	18.14286814066638	20.3181314282195	-45.40181560859131	-10.84577035795131	-0.06260281279972235	3493.928205128205	3620.51282051282	0.2417982989064398	-0.2627737226277372	0.5799207397622193
6792.999267578125	-4.576923076923078	17.60701638233664	20.37995011393731	-48.53407821813183	-10.28157962092066	-0.02563827933401069	3469.169230769231	3619.047619047619	0.25273390036452	-0.2554744525547446	0.571994715984148
6812.530517578125	-6.115384615384616	17.40808800886864	20.32636878733756	-51.58369356545855	-4.068625731064651	0.8833139436500614	3508.492307692307	3624.908424908425	0.2563791008505468	-0.2518248175182482	0.5878467635402906
6832.061767578125	-4.730769230769231	16.28669858964095	21.16507051795282	-52.32002042721079	9.118115125047019	1.838871151440945	3483.733333333333	3621.978021978022	0.2624544349939246	-0.232360097323601	0.5918097754293263
6851.593017578125	-4.576923076923078	17.41224518075999	22.42620250046191	-53.7423038397403	3.979394560553977	0.9853802493090651	3488.102564102564	3624.908424908425	0.2539489671931956	-0.2092457420924574	0.5970937912813739
6871.124267578125	-4.346153846153847	14.31981739237544	22.97066884276652	-54.71207140582526	1.628140388615279	-0.6610876779739616	3495.384615384615	3623.443223443223	0.2478736330498177	-0.208029197080292	0.5970937912813739
6890.655517578125	-4.115384615384616	14.70324721315514	22.79917780378149	-52.55128151572433	-5.019378188138886	-1.157334027948635	3483.733333333333	3621.978021978022	0.2490886998784933	-0.2019464720194647	0.6010568031704096
6910.186767578125	-4.461538461538462	15.02574367186057	22.40512409927943	-51.77410548532973	-13.05016551491752	-2.469903457438734	3485.189743589744	3616.117216117216	0.25273390036452	-0.2031630170316302	0.5944517833553501
6929.718017578125	-5.230769230769231	14.16259161175094	24.0242655662992	-52.28074089183526	-16.33823424652544	-3.314044321302004	3482.276923076923	3611.721611721612	0.2575941676792223	-0.1934306569343066	0.5878467635402906
6949.249267578125	-6.346153846153847	14.35867925109318	23.02757590687935	-52.71392196186822	-17.2479747318455	-2.50248338484263	3477.907692307692	3617.582417582417	0.2588092345078979	-0.1739659367396594	0.6010568031704096
6968.780517578125	-5.807692307692308	12.59506836238221	24.13119726550471	-52.1246392931489	-8.311142847412217	-0.7863548314610004	3464.8	3617.582417582417	0.2636695018226002	-0.183698296836983	0.6010568031704096
6988.311767578125	-5.5	12.08087239021987	24.53330356592967	-52.10094528509895	-3.632413510449004	-1.556131008784112	3482.276923076923	3617.582417582417	0.2624544349939246	-0.1581508515815085	0.6089828269484808
7007.843017578125	-5.346153846153847	11.6105268830449	24.81980969390897	-51.24112199249056	-6.014437684402278	-1.996712748755851	3488.102564102564	3620.51282051282	0.2660996354799514	-0.1569343065693431	0.6155878467635403
7027.374267578125	-5.423076923076923	11.70905185687011	25.73971484880212	-52.27856127601608	-14.93773253166098	-3.708224365617673	3480.820512820513	3613.186813186813	0.267314702308627	-0.1435523114355231	0.6116248348745046
7046.905517578125	-5.807692307692308	10.5518953624438	24.3667703393484	-51.40689097938272	-14.98039203713265	-4.533694194250968	3485.189743589744	3611.721611721612	0.2709599027946537	-0.1435523114355231	0.6221928665785997
7066.436767578125	-6.653846153846154	10.17835037260578	24.65940444663423	-51.40471136356354	-13.57989032226818	-4.927874238566638	3476.451282051281	3608.791208791209	0.2709599027946537	-0.1301703163017032	0.6050198150594451
7085.968017578125	-6.038461538461539	10.19541017429328	25.11410666995135	-50.09019260869141	-11.77394638880265	-6.555613048005193	3488.102564102564	3605.860805860806	0.2660996354799514	-0.1253041362530414	0.6208718626155878
7105.499267578125	-6.192307692307693	10.47714325306399	24.64283734680052	-49.16487721446162	-8.984431602300383	-6.536971054082469	3463.343589743589	3601.465201465201	0.2721749696233293	-0.1265206812652068	0.6129458388375165
7125.030517578125	-6.461538461538462	8.97049947650428	23.32118002093983	-49.13587504984424	-6.167842741448953	-6.509095187120128	3476.451282051281	3601.465201465201	0.2806804374240583	-0.1058394160583942	0.6274768824306473
7144.561767578125	-4.115384615384616	8.03791494734249	25.29656032518323	-49.56687650405802	-5.677081511904548	-6.091714294976423	3472.082051282051	3610.25641025641	0.2782503037667071	-0.1119221411192214	0.6169088507265522
7164.093017578125	-4.923076923076923	8.960799408757776	26.11387571595738	-50.46442042456052	-11.71365305826056	-4.102288244704346	3474.994871794872	3614.652014652014	0.2782503037667071	-0.1009732360097324	0.6248348745046235
7183.624267578125	-5.884615384615385	7.986750939212908	25.77783765473918	-51.7649125595885	-9.779730608380023	-3.253617568243017	3488.102564102564	3614.652014652014	0.2818955042527339	-0.08759124087591241	0.6221928665785997
7203.155517578125	-5.346153846153847	6.190806491346923	26.57506004803843	-51.2138249812278	-6.929922491335668	-0.7816507710194458	3479.364102564102	3613.186813186813	0.2855407047387606	-0.07907542579075426	0.618229854689564
7222.686767578125	-6	6.32616862720946	26.23003017798854	-49.87153475262836	-8.371035317723877	-0.4013215362631999	3496.841025641026	3623.443223443223	0.2916160388821385	-0.07299270072992702	0.6155878467635403
7242.218017578125	-5.538461538461538	5.81431298885262	26.36127363429205	-48.52659044574521	-10.74321838216798	0.3778337206357723	3499.753846153846	3626.373626373626	0.2867557715674362	-0.07542579075425791	0.6169088507265522
7261.749267578125	-5.346153846153847	5.034496828231816	26.69823551148611	-46.7695049985953	-17.81546053631113	1.514030240541209	3473.538461538461	3619.047619047619	0.3001215066828675	-0.05596107055961071	0.6287978863936592
7281.280517578125	-6.576923076923078	4.921852866908911	25.86889511609288	-45.90001431778111	-19.25862175664726	1.082740456223583	3499.753846153846	3627.838827838828	0.3025516403402187	-0.04866180048661801	0.6235138705416117
7300.811767578125	-6.5	5.377617478598263	26.0806645316253	-46.32087392132456	-20.16056952640606	2.302419370479797	3492.471794871794	3626.373626373626	0.2940461725394897	-0.0413625304136253	0.6235138705416117
7320.343017578125	-7.115384615384616	4.863236743240747	27.41508591488575	-46.71007728196689	-19.17699867336933	3.948800173841077	3495.384615384615	3630.769230769231	0.3049817739975698	-0.03284671532846716	0.6208718626155878
7339.874267578125	-7.346153846153847	3.718428589025066	27.1939551641313	-47.05577739568316	-13.96854452905546	5.636994777645868	3508.492307692307	3638.095238095238	0.2952612393681652	-0.03527980535279805	0.6274768824306473
7359.405517578125	-6.615384615384616	3.539200591242224	25.80920120711954	-46.53151236612067	-12.53482355799807	7.686905663591429	3495.384615384615	3633.699633699634	0.3134872417982989	-0.0145985401459854	0.6208718626155878
7378.936767578125	-6.423076923076923	1.856354314220607	25.1438227505081	-48.80878537715569	-14.82208847172927	7.278642479258345	3511.405128205128	3638.095238095238	0.3086269744835966	-0.0121654501216545	0.6301188903566711
7398.468017578125	-6.615384615384616	1.797037630104083	26.37888772556507	-49.74642223787499	-17.61939597379279	6.851882507538781	3492.471794871794	3638.095238095238	0.3061968408262454	-0.00364963503649635	0.6287978863936592
7417.999267578125	-7.884615384615385	1.157041017429328	25.03256451314898	-49.74689670033954	-15.28782402087243	6.058876441080384	3491.015384615384	3635.164835164835	0.3134872417982989	-0.004866180048661801	0.618229854689564
7437.530517578125	-7	0.2588070456365091	24.82887848740531	-47.48194515579404	-13.00835182270249	6.059021647616629	3469.169230769231	3629.304029304029	0.3147023086269745	0.0145985401459854	0.6103038309114928
7457.061767578125	-7	-0.1268861242840427	24.88276775266367	-47.08525402276509	-14.45356143698654	4.816112844225131	3493.928205128205	3629.304029304029	0.3280680437424058	0.01824817518248175	0.6261558784676354
7476.593017578125	-7.346153846153847	0.2571980661452239	25.25548130812342	-48.0545471263855	-19.13638756184558	3.962650983400501	3493.928205128205	3630.769230769231	0.3219927095990279	0.02798053527980535	0.618229854689564
7496.124267578125	-8.346153846153847	0.1091873498799039	24.04063250600481	-48.97019513240949	-20.98703939473071	3.953300945131889	3502.666666666666	3629.304029304029	0.3353584447144593	0.05352798053527981	0.6248348745046235
7515.655517578125	-7.230769230769231	-1.3964094352405	23.20508714664039	-51.67581551937457	-23.7146133169734	4.361244675085236	3501.210256410256	3630.769230769231	0.3280680437424058	0.04866180048661801	0.6261558784676354
7535.186767578125	-9.26923076923077	-1.178950852990084	23.98600418796576	-53.40465503033263	-22.22099987560435	6.026122265832997	3498.297435897436	3635.164835164835	0.330498177399757	0.05231143552311435	0.6155878467635403
7554.718017578125	-9.884615384615385	-1.828054751493502	24.36427603621359	-55.08250352197798	-16.96414190420547	8.136285656994051	3507.035897435897	3639.560439560439	0.3377885783718104	0.06934306569343066	0.6155878467635403
7574.249267578125	-8.038461538461538	-3.585245119172261	23.83917903553612	-53.72305813278613	-17.92803053822386	8.929378847374192	3486.646153846154	3639.560439560439	0.3377885783718104	0.08150851581508516	0.5984147952443858
7593.780517578125	-8.26923076923077	-4.196549547330172	23.86593890497013	-52.04738925695995	-24.5853902244872	7.213395500528808	3508.492307692307	3638.095238095238	0.3438639125151883	0.09002433090024331	0.607661822985469
7613.311767578125	-8.384615384615385	-3.026405739976597	23.16644084498368	-52.57989828733458	-33.95269000792279	7.533210858304321	3504.123076923077	3641.025641025641	0.3572296476306197	0.08759124087591241	0.5997357992073976
7632.843017578125	-10.65384615384616	-3.845206934778592	24.06803904662191	-54.78106288361332	-34.79269691342202	9.179475496436606	3496.841025641026	3642.490842490842	0.3499392466585662	0.1082725060827251	0.6063408190224571
7652.374267578125	-12.30769230769231	-4.171952946972962	24.7514935024943	-57.31702951451244	-23.42174110028506	10.54303451679533	3521.6	3646.886446886447	0.3547995139732685	0.1034063260340633	0.5865257595772787
7671.905517578125	-11.38461538461539	-4.716049762887233	24.11018045205395	-59.4343161576873	-12.54933923225375	11.08109466721352	3509.948717948718	3646.886446886447	0.3596597812879708	0.1204379562043796	0.5891677675033025
7691.436767578125	-12.19230769230769	-5.875600480384307	25.2031009422923	-61.53710171855346	-0.2686429337967256	11.63309275111287	3521.6	3648.351648351648	0.3645200486026731	0.1301703163017032	0.5891677675033025
7710.968017578125	-11.46153846153846	-7.382813943462462	24.83300486543081	-63.22774613915288	7.311994274961251	12.54213209801869	3485.189743589744	3645.421245421245	0.3645200486026731	0.1435523114355231	0.5931307793923382
7730.499267578125	-10	-7.416394654184887	25.05050194001355	-63.76556332609495	-0.1931650323625632	12.06429541150875	3498.297435897436	3651.282051282051	0.3560145808019441	0.1545012165450122	0.5904887714663144
7750.030517578125	-9.807692307692308	-7.589571657325862	23.90165978936996	-64.90545911071042	-14.31137698676056	8.669206127361946	3517.230769230769	3645.421245421245	0.370595382746051	0.1618004866180049	0.5878467635402906
7769.561767578125	-11.07692307692308	-8.703023957627641	23.15119788138203	-65.41597928638974	-22.73202110101776	9.406431418588412	3501.210256410256	3643.956043956044	0.3596597812879708	0.1690997566909976	0.5799207397622193
7789.093017578125	-11.11538461538462	-9.54755342735727	23.10844059863275	-65.81532449770242	-20.35574124867782	10.25051419983718	3511.405128205128	3651.282051282051	0.3742405832320777	0.183698296836983	0.5746367239101717
7808.624267578125	-11.65384615384616	-9.917957442877379	22.93633368233048	-64.83418439005705	-13.33355045533716	10.71908797200026	3508.492307692307	3645.421245421245	0.3693803159173754	0.2019464720194647	0.571994715984148
7828.155517578125	-11.65384615384616	-10.27131705364291	23.29662191291495	-67.89299266312501	-10.39103147201865	12.41175430578861	3505.579487179487	3649.81684981685	0.3584447144592952	0.2104622871046229	0.5680317040951123
7847.686767578125	-10.96153846153846	-11.46752016998214	22.7990854221839	-69.08136090885725	-2.323328961381675	14.95329460518904	3540.533333333333	3655.677655677655	0.3815309842041312	0.2274939172749392	0.560105680317041
7867.218017578125	-10.03846153846154	-12.25334883291249	22.70590318408573	-71.87977040870648	-9.306957037146511	13.68695262351152	3528.882051282051	3655.677655677655	0.3766707168894289	0.2396593673965937	0.5548216644649934
7886.749267578125	-10.03846153846154	-13.14560109626162	23.08774712077354	-75.5621716716786	-16.25571832300093	12.83796249267045	3502.666666666666	3651.282051282051	0.3766707168894289	0.24330900243309	0.5442536327608983
7906.280517578125	-13.69230769230769	-13.50585083451377	23.60023403338055	-77.32939896949884	-7.790767169554566	10.8994679506525	3514.317948717948	3646.886446886447	0.3791008505467801	0.2530413625304137	0.5574636723910171
7925.811767578125	-11.65384615384616	-14.91118279238776	24.52067808092628	-76.67291904580351	10.04967734311907	11.88763412715453	3507.035897435897	3645.421245421245	0.3766707168894289	0.2652068126520681	0.5416116248348745
7945.343017578125	-9.038461538461538	-16.75906109502987	23.91459321303196	-74.39953080394228	7.204366874200989	13.87726346657735	3515.774358974359	3660.07326007326	0.3730255164034022	0.2798053527980535	0.5442536327608983
7964.874267578125	-9.730769230769232	-16.80154123298639	22.88475395701176	-73.16187669225197	-0.8321647741909769	12.96819507836428	3518.687179487179	3651.282051282051	0.3718104495747266	0.2871046228710462	0.5363276089828269
7984.405517578125	-10.57692307692308	-17.01264858040278	22.7478136355238	-72.77873771660262	-8.348812724741451	13.29736047440841	3502.666666666666	3651.282051282051	0.3693803159173754	0.3041362530413626	0.5204755614266843
8003.936767578125	-11.15384615384616	-18.01664408449837	21.60143499414917	-71.05160335899919	-13.57449983389532	12.81966899443471	3520.14358974359	3652.747252747252	0.3742405832320777	0.3260340632603406	0.5178335535006605
8023.468017578125	-10.42307692307692	-18.84947188520047	22.12744041386956	-69.27129836626391	-13.6364406981549	12.39308327055864	3521.6	3649.81684981685	0.370595382746051	0.3187347931873479	0.499339498018494
8042.999267578125	-10.92307692307692	-18.58012563897272	20.69858964094352	-66.61136084204408	-16.53425178205382	12.33750578447745	3499.753846153846	3649.81684981685	0.3730255164034022	0.3272506082725061	0.5033025099075297
8062.530517578125	-10.84615384615385	-19.35765535505328	21.03661390650982	-67.93213667841273	-11.81491133356686	11.58158041671376	3521.6	3646.886446886447	0.3742405832320777	0.3418491484184915	0.4966974900924703
8082.061767578125	-10.65384615384616	-20.58937149719776	20.89165178296483	-66.99933351179632	-9.487035308311921	12.00369441060627	3508.492307692307	3651.282051282051	0.3766707168894289	0.3552311435523115	0.476882430647292
8101.593017578125	-10.34615384615385	-20.7186441460861	21.27836115045883	-68.32664819562253	-8.969200004418351	12.43030917578959	3521.6	3655.677655677655	0.3778857837181044	0.3686131386861314	0.4676354029062087
8121.124267578125	-11.26923076923077	-22.11994980599865	21.11287491531687	-66.58937198734876	-15.58759611287543	12.75491571792841	3496.841025641026	3646.886446886447	0.3815309842041312	0.364963503649635	0.4795244385733157
8140.655517578125	-10.96153846153846	-21.70955995565683	19.5164593213032	-66.11609797709896	-17.91711967184786	14.35954080346067	3520.14358974359	3655.677655677655	0.3742405832320777	0.3832116788321168	0.4597093791281374
8160.186767578125	-10.84615384615385	-23.21458705425879	19.65242963601651	-65.22196436330573	-19.34469546106149	14.74448697473673	3523.05641025641	3655.677655677655	0.3718104495747266	0.378345498783455	0.4583883751651255
8179.718017578125	-11.07692307692308	-22.24231693046745	19.34661575414177	-63.00534975978921	-21.75953803097726	14.6981724030024	3502.666666666666	3652.747252747252	0.370595382746051	0.4014598540145986	0.4610303830911493
8199.249267578125	-11.38461538461539	-24.14082034858656	20.34870973702039	-60.83100771230868	-22.335618271465	12.62985185359211	3509.948717948718	3652.747252747252	0.3839611178614824	0.4038929440389295	0.4346103038309115
8218.780517578125	-11.96153846153846	-25.19023680482848	19.55030177988545	-57.72556765156637	-24.31589615448261	12.17083140884839	3499.753846153846	3648.351648351648	0.3827460510328068	0.4111922141119221	0.4214002642007926
8238.311767578125	-11.07692307692308	-24.85286690891174	19.1048839071257	-56.32261901544845	-21.05490149722386	13.00573839967204	3520.14358974359	3652.747252747252	0.3766707168894289	0.4209245742092457	0.4147952443857332
8257.843017578125	-11.61538461538462	-25.18631828539755	19.00822196218513	-54.51236293316667	-22.96339740647272	14.1930406756751	3520.14358974359	3655.677655677655	0.3827460510328068	0.413625304136253	0.4068692206076618
8277.374267578125	-10.23076923076923	-26.25920736589272	19.34498367925109	-51.38180547698078	-27.25966181128818	15.34326225298345	3520.14358974359	3658.608058608058	0.3754556500607533	0.4209245742092457	0.4068692206076618
8296.905517578125	-9.115384615384617	-25.72625023095399	18.50481924000739	-45.60097788478085	-35.39260025361971	16.4286143885565	3527.425641025641	3658.608058608058	0.3827460510328068	0.440389294403893	0.3976221928665786
8316.436767578125	-10.03846153846154	-25.76800671306276	17.66956642236866	-41.62680337164987	-47.21125693059899	18.31150240318602	3499.753846153846	3663.003663003663	0.3863912515188335	0.4391727493917275	0.3883751651254954
8335.968017578125	-9.76923076923077	-27.09208905586007	18.21983740838825	-39.38166106598051	-44.47793868674297	17.50005763195564	3530.338461538461	3658.608058608058	0.3912515188335358	0.4562043795620438	0.3725231175693527
8355.499267578125	-11.42307692307692	-26.51888433823983	18.13652460429882	-38.02221567678866	-45.44182732076136	18.29315082233578	3518.687179487179	3665.934065934066	0.3803159173754556	0.4537712895377129	0.3698811096433289
8375.030517578125	-12.46153846153846	-26.51524296360165	17.06984048777484	-39.68916608933814	-33.18246077504018	18.43241399191849	3541.989743589743	3667.399267399267	0.3876063183475091	0.4671532846715328	0.3474240422721268
8394.561767578125	-12.34615384615385	-28.14883445217713	15.94172260885632	-38.98775953132308	-18.11184882985045	21.84141216823921	3539.076923076923	3677.655677655677	0.3791008505467801	0.4683698296836983	0.3540290620871863
8414.093017578125	-9.192307692307693	-28.35221253926218	15.2644731169551	-38.50747221115122	-18.57143919714985	23.05650318728287	3533.251282051282	3679.120879120879	0.3876063183475091	0.4732360097323601	0.3342140026420079
8433.624267578125	-9.961538461538462	-28.65029716080557	13.63024265566299	-39.95780886336902	-31.18989252833504	23.76114855110544	3549.271794871795	3679.120879120879	0.393681652490887	0.4817518248175183	0.3421400264200793
8453.155517578125	-10.88461538461539	-27.7359041079017	11.14135924123914	-39.07504779113621	-37.28840493895063	25.32398887750145	3539.076923076923	3679.120879120879	0.3839611178614824	0.4744525547445256	0.3289299867899604
8472.686767578125	-12.15384615384616	-28.09644638787954	11.20693477859211	-38.64091779617416	-41.04180835947128	26.09844007395886	3524.51282051282	3683.516483516483	0.3912515188335358	0.4878345498783455	0.3302509907529723
8492.218017578125	-12.84615384615385	-27.84561495350126	10.89613229044774	-43.15461464960183	-40.46038465760064	24.92490148359348	3553.641025641025	3684.981684981685	0.3754556500607533	0.4866180048661801	0.3104359313077939
8511.749267578125	-13.23076923076923	-27.82490607870912	12.16838085853298	-43.53509954696747	-33.87480694510605	24.99456210969208	3530.338461538461	3682.051282051282	0.3778857837181044	0.4939172749391728	0.2945838837516512
8531.280517578125	-11.34615384615385	-27.79681437457658	10.80225719036768	-43.54789547592154	-31.55102770774695	23.79343806543685	3552.184615384615	3683.516483516483	0.3730255164034022	0.5024330900243309	0.285336856010568
8550.811767578125	-12.38461538461539	-27.76930775389542	12.38846461784813	-44.46837717604843	-33.87111101744064	23.77944204934118	3536.164102564102	3683.516483516483	0.3863912515188335	0.5012165450121655	0.2826948480845443
8570.343017578125	-14	-29.71657325860689	13.29020139188274	-45.7055568252742	-28.16615132196903	25.48151650401264	3544.902564102564	3682.051282051282	0.3754556500607533	0.5048661800486618	0.2734478203434611
8589.874267578125	-12.46153846153846	-30.84793989037384	12.55084067253803	-43.7234673711073	-14.57561578097378	27.23025402610541	3559.466666666666	3689.377289377289	0.3766707168894289	0.51338199513382	0.261558784676354
8609.405517578125	-9.576923076923077	-30.60332111843321	12.81990207550656	-37.99410526068461	-24.14022680041478	27.07731429480678	3544.902564102564	3686.446886446886	0.3718104495747266	0.5158150851581509	0.2549537648612946
8628.936767578125	-10.07692307692308	-31.41791895054505	11.74210137340642	-35.02088009407516	-42.52722822504865	27.68003855950659	3550.728205128205	3686.446886446886	0.3657351154313487	0.5255474452554745	0.2457067371202114
8648.468017578125	-12.46153846153846	-30.05422799778284	11.3267845045267	-34.21688151488235	-49.14192840584031	26.7895250412945	3543.446153846154	3686.446886446886	0.3633049817739976	0.5231143552311436	0.2523117569352708
8667.999267578125	-14.42307692307692	-31.28560540740285	11.39565498552688	-32.80208587473945	-43.54156908009995	27.23954394345659	3531.794871794872	3682.051282051282	0.3778857837181044	0.5352798053527981	0.2443857331571995
8687.530517578125	-12.84615384615385	-31.09051856870111	11.60285151197881	-30.04907747167449	-31.45653648393084	25.29204785885703	3541.989743589743	3682.051282051282	0.370595382746051	0.5304136253041363	0.2272126816380449
8707.061767578125	-11.11538461538462	-31.56516751863029	10.52760670074521	-25.689302601114	-38.66454987005024	23.54371691506574	3537.620512820513	3679.120879120879	0.3572296476306197	0.5328467153284672	0.2126816380449141
8726.593017578125	-11.84615384615385	-31.49448789801072	9.647471823612737	-22.74745191144467	-48.21028039093375	20.15353498051123	3541.989743589743	3674.725274725275	0.3596597812879708	0.5401459854014599	0.2073976221928666
8746.124267578125	-13.38461538461539	-31.39625546591119	8.197388680174909	-23.32270796031985	-53.40724589202097	17.65833829415237	3534.707692307692	3665.934065934066	0.3645200486026731	0.5474452554744526	0.2100396301188904
8765.655517578125	-14.03846153846154	-31.48260916425448	7.399688981954795	-22.85834510985033	-48.28041483098502	16.48047318033967	3512.861538461538	3661.538461538461	0.3511543134872417	0.551094890510949	0.1849405548216645
8785.186767578125	-12.92307692307692	-32.83500646671183	8.519554104822319	-21.05965426563255	-41.80148588216961	14.48645923485504	3528.882051282051	3658.608058608058	0.3584447144592952	0.5437956204379563	0.1875825627476883
8804.718017578125	-10.92307692307692	-32.41426987744042	6.636570795097616	-17.13618900585329	-46.65659756263281	12.357857138922	3527.425641025641	3652.747252747252	0.3511543134872417	0.5583941605839417	0.1862615587846764
8824.249267578125	-10.03846153846154	-31.3363075075445	5.699990761840242	-16.47284201810906	-64.5532386179527	10.53960419726687	3492.471794871794	3642.490842490842	0.3535844471445929	0.5547445255474452	0.1730515191545575
8843.780517578125	-12.38461538461539	-30.0187996551087	5.632290447742809	-19.71722851694531	-70.12282794167849	8.883699107793483	3525.969230769231	3641.025641025641	0.3584447144592952	0.5559610705596108	0.1624834874504623
8863.311767578125	-14.65384615384616	-31.27487374514996	5.320610334421383	-21.35688191823203	-58.77894620289069	10.2380242551126	3512.861538461538	3648.351648351648	0.3645200486026731	0.5547445255474452	0.1638044914134743
8882.843017578125	-13.88461538461539	-30.59802457350496	5.324305598324814	-21.62306331048276	-44.6590867147752	11.60637445983462	3512.861538461538	3651.282051282051	0.3633049817739976	0.5535279805352799	0.1519154557463673
8902.374267578125	-13.38461538461539	-32.05909342858903	4.800825275605099	-21.52278642521199	-40.86467132250038	13.68413217143528	3525.969230769231	3655.677655677655	0.3718104495747266	0.5486618004866181	0.1492734478203435
8921.905517578125	-11.34615384615385	-31.01169397056107	4.238544681899366	-18.37725342425286	-46.08421324981049	15.6412977486832	3498.297435897436	3651.282051282051	0.3438639125151883	0.5583941605839417	0.142668428005284
8941.436767578125	-11.73076923076923	-31.87938812588532	5.700175525035412	-19.40237124128887	-54.99971538150793	14.33790410961822	3540.533333333333	3658.608058608058	0.347509113001215	0.5571776155717761	0.1281373844121533
8960.968017578125	-13.19230769230769	-31.95666533226581	5.256343536367556	-18.53240609801012	-58.77444855476442	14.69962039175899	3517.230769230769	3657.142857142857	0.3608748481166464	0.551094890510949	0.130779392338177
8980.499267578125	-13.69230769230769	-31.98524973825214	5.262486912607009	-17.66338987966048	-57.8860378221802	13.47532454098296	3509.948717948718	3655.677655677655	0.3523693803159174	0.5571776155717761	0.1122853368560106
9000.030517578125	-13.38461538461539	-33.29546714294512	5.081049454948574	-16.77987257900213	-55.58933265917026	12.26496662368811	3531.794871794872	3649.81684981685	0.3499392466585662	0.5547445255474452	0.1136063408190225
9019.561767578125	-13.38461538461539	-32.30159512225165	5.387448420274681	-14.98241242567443	-55.17404933106001	12.25114485543594	3502.666666666666	3648.351648351648	0.3426488456865127	0.5717761557177615	0.1017173051519155
9039.093017578125	-13.38461538461539	-32.33700806799286	5.235018784258176	-13.68457436893017	-56.17690154288466	11.00364815683188	3524.51282051282	3655.677655677655	0.3487241798298906	0.5717761557177615	0.08982826948480846
9058.624267578125	-13.34615384615385	-31.53482016382337	5.47177742193755	-11.90910307029777	-56.7082738839528	10.57241645512876	3507.035897435897	3645.421245421245	0.3547995139732685	0.5632603406326034	0.09907529722589167
9078.155517578125	-14.34615384615385	-32.47577292603314	5.442492455502864	-10.97895398196509	-53.44932762064197	10.59570442687854	3496.841025641026	3645.421245421245	0.3438639125151883	0.5669099756690997	0.07529722589167767
9097.686767578125	-15.03846153846154	-31.91623298638911	5.080880088686334	-11.39204404716093	-44.08612462510222	8.65265103095528	3524.51282051282	3645.421245421245	0.3511543134872417	0.5669099756690997	0.07529722589167767
9117.218017578125	-16.07692307692308	-32.20128410420644	4.987282133399027	-10.86920240499209	-35.65768779528376	8.323543717525652	3512.861538461538	3642.490842490842	0.3535844471445929	0.5669099756690997	0.06472919418758256
9136.749267578125	-15.46153846153846	-32.92404692985158	5.894654184886371	-9.447867917391671	-25.85582332495001	7.591022486740743	3492.471794871794	3636.630036630037	0.3462940461725395	0.5669099756690997	0.06869220607661823
9156.280517578125	-13.53846153846154	-32.84898688181314	5.98780562911868	-5.018241713571441	-25.09129432088494	5.513555188212578	3507.035897435897	3638.095238095238	0.3377885783718104	0.5620437956204379	0.05812417437252312
9175.811767578125	-12.34615384615385	-33.48541140604792	5.84749337931884	-0.1909754517931551	-30.43511883694464	3.779191219209709	3505.579487179487	3632.234432234432	0.3402187120291616	0.5717761557177615	0.05680317040951123
9195.343017578125	-14.57692307692308	-33.50895331649936	5.409204286506128	3.323951670932179	-36.1843855716054	3.278386015329726	3502.666666666666	3632.234432234432	0.3499392466585662	0.559610705596107	0.05416116248348745
9214.874267578125	-15.19230769230769	-33.01791433146517	4.54956272710476	4.684627751014105	-31.08462858491862	2.091287028477407	3498.297435897436	3627.838827838828	0.3560145808019441	0.559610705596107	0.05019815059445178
9234.405517578125	-15.26923076923077	-33.24041540925048	4.213078154831558	6.510615606494649	-25.52118444303659	1.312335060729177	3480.820512820513	3623.443223443223	0.3487241798298906	0.5620437956204379	0.05019815059445178
9253.936767578125	-15.73076923076923	-32.31746166163701	4.680775389542403	6.065869298397699	-18.04350007029237	-1.057420224299146	3491.015384615384	3621.978021978022	0.3487241798298906	0.5608272506082725	0.05019815059445178
9273.468017578125	-15.69230769230769	-33.74167025928435	4.698897579602144	6.980568379492596	-11.52970433156654	-2.634082318947326	3473.538461538461	3617.582417582417	0.339003645200486	0.5656934306569343	0.0488771466314399
9292.999267578125	-14.92307692307692	-32.43739607070272	4.100572765905032	7.447110845781293	-5.002371555666127	-4.206127477075698	3463.343589743589	3613.186813186813	0.3499392466585662	0.572992700729927	0.04491413474240423
9312.530517578125	-15.5	-32.53990115169059	4.0335191229907	7.879342990885158	0.5705128354946427	-6.603700546451863	3492.471794871794	3608.791208791209	0.3499392466585662	0.5742092457420924	0.05416116248348745
9332.061767578125	-15.38461538461539	-32.52371127671368	3.108640758760855	8.782195067955087	4.744943905738869	-7.795474552438487	3467.71282051282	3602.930402930403	0.3535844471445929	0.5656934306569343	0.0488771466314399
9351.593017578125	-15.5	-32.23196249307138	2.098124653569009	7.879624756846139	11.29730236204053	-10.16990485660112	3476.451282051281	3597.069597069597	0.3523693803159174	0.5608272506082725	0.06472919418758256
9371.124267578125	-15.07692307692308	-32.10331341996675	2.934901767567901	7.418197750621322	15.96619058949457	-12.15941803079494	3566.748717948718	3701.098901098901	0.347509113001215	0.5669099756690997	0.047556142668428
9390.655517578125	-14.5	-32.87920336269016	2.690937365276837	7.819722577753177	14.99041245201909	-13.39768085635938	3543.446153846154	3690.84249084249	0.3584447144592952	0.5583941605839417	0.06340819022457067
9410.186767578125	-14.26923076923077	-32.20708104945495	1.546360165055121	7.723804924120758	13.99700048947319	-16.26379865659137	3556.553846153846	3690.84249084249	0.3535844471445929	0.5644768856447688	0.05416116248348745
9429.718017578125	-14.88461538461539	-31.31572180821581	1.824551949251709	7.66532613242144	10.69539472069069	-17.11255645697445	3540.533333333333	3686.446886446886	0.3535844471445929	0.5620437956204379	0.0488771466314399
9449.249267578125	-14.92307692307692	-31.61750939212909	1.567777298762087	7.209681745228618	11.17057051911259	-17.51141152042442	3533.251282051282	3686.446886446886	0.3584447144592952	0.5547445255474452	0.05812417437252312
9468.780517578125	-13.73076923076923	-31.35629272648889	0.7761747859826323	6.298392970842972	12.12092211595639	-18.30912164732438	3546.358974358974	3679.120879120879	0.3560145808019441	0.5583941605839417	0.07529722589167767
9488.311767578125	-13.26923076923077	-31.84197357886309	1.521755866231447	6.254889723916896	7.896038824679247	-18.35093544776789	3546.358974358974	3683.516483516483	0.3535844471445929	0.5620437956204379	0.0607661822985469
9507.843017578125	-14.38461538461539	-31.49345630350434	2.518969021370943	6.201719088785024	2.732292579784961	-18.40204120386551	3549.271794871795	3683.516483516483	0.3584447144592952	0.5547445255474452	0.0607661822985469
9527.374267578125	-13.42307692307692	-30.81117971300117	2.058985650058508	6.645990934417426	-2.413819840038904	-16.82529198529558	3530.338461538461	3683.516483516483	0.3633049817739976	0.5535279805352799	0.06340819022457067
9546.905517578125	-13.73076923076923	-31.18923600418797	2.038723286321365	4.831850082961851	-5.637899313439323	-16.43122810620891	3547.815384615385	3689.377289377289	0.3754556500607533	0.5523114355231144	0.06605019815059446
9566.436767578125	-13.69230769230769	-31.7696926772187	2.176941553242594	3.485200622724069	-6.997789916780041	-16.02319725233382	3547.815384615385	3690.84249084249	0.3681652490886999	0.559610705596107	0.07661822985468957
9585.968017578125	-15.23076923076923	-30.81308123421815	2.038677095522572	1.312563728598168	-2.689636008507483	-15.14206281369759	3553.641025641025	3689.377289377289	0.3815309842041312	0.551094890510949	0.06737120211360634
9605.499267578125	-13.73076923076923	-32.34631551394963	2.200391082096446	0.5116936901536334	0.6624219813079383	-13.05971720688437	3544.902564102564	3696.703296703297	0.3730255164034022	0.5571776155717761	0.07397622192866579
9625.030517578125	-13.61538461538462	-31.65727966988976	2.248598879103283	-1.665776898075165	4.501144412771924	-12.1832287460752	3566.748717948718	3699.6336996337	0.3803159173754556	0.5523114355231144	0.07133421400264201
9644.561767578125	-14.19230769230769	-31.43952854591365	1.553350372605777	-2.895468774914312	9.744465346996215	-10.07768229143395	3482.276923076923	3597.069597069597	0.3851761846901579	0.5462287104622872	0.06605019815059446
9664.093017578125	-13.84615384615385	-31.61883352836115	2.480137956519061	-2.802679662030164	14.00051950051836	-8.403396579803085	3485.189743589744	3602.930402930403	0.3815309842041312	0.5523114355231144	0.0726552179656539
9683.624267578125	-12	-31.66388495411714	2.886555398164686	-2.778036729051129	14.01610493164087	-7.587160624209406	3479.364102564102	3604.395604395604	0.3791008505467801	0.5450121654501217	0.07133421400264201
9703.155517578125	-13.30769230769231	-31.55867771139989	2.780039416148303	-1.88342865279335	10.25695718950688	-6.409208386474956	3469.169230769231	3602.930402930403	0.3742405832320777	0.5486618004866181	0.06869220607661823
9722.686767578125	-13.11538461538462	-31.93047514935025	3.869911313666318	-1.897929735102043	8.848662759081169	-6.423146319956127	3488.102564102564	3608.791208791209	0.3839611178614824	0.5498783454987835	0.06605019815059446
9742.218017578125	-13.5	-32.25619726550471	3.232940198312496	-1.865799029736387	8.402609428956351	-5.203438364392664	3480.820512820513	3610.25641025641	0.3839611178614824	0.5437956204379563	0.07926023778071334
9761.749267578125	-13.34615384615385	-32.1160543819671	3.76425755989407	-0.4962117898741955	6.046011795634751	-3.608047151900012	3463.343589743589	3610.25641025641	0.3851761846901579	0.5474452554744526	0.06869220607661823
9781.280517578125	-13.84615384615385	-31.62037322165425	4.480199544250786	-0.9492020987832954	5.590117356000762	-3.608076193207261	3489.558974358974	3613.186813186813	0.3827460510328068	0.5437956204379563	0.059445178335535
9800.811767578125	-13.92307692307692	-32.28707581449775	3.276867647964526	-0.9122376993147423	5.613495502684517	-2.383722259816742	3486.646153846154	3619.047619047619	0.3912515188335358	0.5547445255474452	0.0607661822985469
9820.343017578125	-12.88461538461539	-31.99278653692185	2.908557615323028	-1.333571765322735	7.043119685846064	-1.957049412018924	3509.948717948718	3620.51282051282	0.3839611178614824	0.5535279805352799	0.06737120211360634
9839.874267578125	-13.96153846153846	-32.24012286752479	2.890758760854838	0.04037470617780557	7.487525482253391	-1.150018288157611	3488.102564102564	3620.51282051282	0.3754556500607533	0.5401459854014599	0.07661822985468957
9859.405517578125	-14.11538461538462	-31.69433238898811	2.67815791094414	0.06018394505394356	7.033679436567322	-0.3384283103909886	3474.994871794872	3620.51282051282	0.3754556500607533	0.5413625304136254	0.07397622192866579
9878.936767578125	-14.34615384615385	-31.88530054813081	2.841950483463694	-0.3954604421388793	7.508855234989224	-0.7372833738409638	3496.841025641026	3623.443223443223	0.3803159173754556	0.5425790754257908	0.07793923381770146
9898.468017578125	-13.73076923076923	-31.32010993410113	2.81318901274866	0.484172089345659	4.672985015349882	-0.3662751360460801	3488.102564102564	3620.51282051282	0.3778857837181044	0.5523114355231144	0.07793923381770146
9917.999267578125	-14.07692307692308	-31.55344275420336	3.28752232555275	0.9226613159460667	3.720585024558157	-0.3801840282200015	3476.451282051281	3620.51282051282	0.393681652490887	0.5425790754257908	0.06869220607661823
9937.530517578125	-14.69230769230769	-32.34419843567162	3.056075629734557	0.910339849456549	3.712792308996906	-0.7883020060168412	3488.102564102564	3620.51282051282	0.3657351154313487	0.5498783454987835	0.06737120211360634
9957.061767578125	-14	-32.66893514811849	3.215988175155509	1.353662770159854	3.229823795013752	-0.7975649203637059	3491.015384615384	3621.978021978022	0.3742405832320777	0.5498783454987835	0.07661822985468957
9976.593017578125	-14.96153846153846	-31.98781332758515	2.813743302334175	1.326840221361644	1.813736649026786	-1.219620831641716	3504.123076923077	3623.443223443223	0.3778857837181044	0.537712895377129	0.07529722589167767
9996.124267578125	-14.38461538461539	-31.53117878918519	2.482016382336639	2.208652368665357	0.3783681442519066	-1.242792638162502	3498.297435897436	3620.51282051282	0.3791008505467801	0.5547445255474452	0.0726552179656539
10015.65551757813	-14.11538461538462	-31.32634569193817	3.509592289215989	2.654629367652385	-1.035670607787139	-0.8532295303666401	3480.820512820513	3623.443223443223	0.3693803159173754	0.5474452554744526	0.07397622192866579
10035.18676757813	-13.84615384615385	-30.85052657510624	2.526328755311942	1.745994671550462	-1.016389248999226	-1.252113635123864	3488.102564102564	3619.047619047619	0.3815309842041312	0.5486618004866181	0.06737120211360634
10054.71801757813	-14.80769230769231	-31.56513672476443	2.67991316129827	1.765329447962052	0.8613366582350603	-1.233529723815637	3493.928205128205	3621.978021978022	0.3827460510328068	0.5462287104622872	0.07133421400264201
10074.24926757813	-14.61538461538462	-31.86456857793928	2.074582743117571	2.228461607541495	-0.07547790143416243	-0.431202660395879	3476.451282051281	3620.51282051282	0.3791008505467801	0.5401459854014599	0.07661822985468957
10093.78051757813	-14.84615384615385	-31.90772618094476	2.540155201083944	1.329494299645367	0.8826664109708938	-0.8207948094989895	3501.210256410256	3623.443223443223	0.3851761846901579	0.5486618004866181	0.07001321003963013
10113.31176757813	-14.88461538461539	-31.90234495288539	2.309555336576954	1.317172833155849	0.8748736954096426	-1.228912787295829	3501.210256410256	3623.443223443223	0.3803159173754556	0.551094890510949	0.07001321003963013
10132.84301757813	-14.69230769230769	-31.75526575106239	2.455595245427111	0.8395395912677141	0.4033938246531508	-2.045177784196758	3508.492307692307	3617.582417582417	0.3851761846901579	0.5523114355231144	0.08058124174372523
10152.37426757813	-14.76923076923077	-31.68522510315945	2.876639773357147	1.265707351378604	-0.5567988816998258	-2.467204654167519	3496.841025641026	3619.047619047619	0.3827460510328068	0.5437956204379563	0.06737120211360634
10171.90551757813	-15.07692307692308	-31.82308924062327	2.385231261932623	1.295183978460537	-0.07178197376875174	-1.646322720746783	3470.625641025641	3620.51282051282	0.3803159173754556	0.5498783454987835	0.0845442536327609
10191.43676757813	-15.38461538461539	-31.66148303257991	2.304920859764735	-0.05459402252551655	1.830969613866779	-2.430123955472811	3508.492307692307	3620.51282051282	0.3839611178614824	0.5437956204379563	0.07529722589167767
10210.96801757813	-14.69230769230769	-32.29415840364599	2.477150951530455	-0.03260516783020402	2.777625283045173	-2.012714022021858	3479.364102564102	3616.117216117216	0.3754556500607533	0.5450121654501217	0.08850726552179657
10230.49926757813	-14.42307692307692	-31.56352004680668	4.137540801872268	-0.06208179491213683	2.292608375114099	-2.833595955442594	3480.820512820513	3617.582417582417	0.3742405832320777	0.537712895377129	0.07397622192866579
10250.03051757813	-14.57692307692308	-31.43498645069902	3.633937919566423	0.3834207416103429	3.210141575995408	-3.237038914105129	3492.471794871794	3619.047619047619	0.3839611178614824	0.5450121654501217	0.07397622192866579
10269.56176757813	-14.92307692307692	-31.46046067623329	3.330726119357024	1.277079892939025	4.114137739702136	-3.64509880928747	3482.276923076923	3613.186813186813	0.3851761846901579	0.5474452554744526	0.07133421400264201
10289.09301757813	-13.76923076923077	-31.30010161975734	3.774311757097986	1.72040281364233	3.631169225718982	-3.654361723634335	3493.928205128205	3614.652014652014	0.3827460510328068	0.5437956204379563	0.07529722589167767
10308.62426757813	-13.30769230769231	-31.73497259345938	3.902475826815298	2.604869039229766	1.264730482888211	-3.278707508012395	3486.646153846154	3620.51282051282	0.3888213851761846	0.5474452554744526	0.0726552179656539
10328.15551757813	-14.26923076923077	-31.89529315760301	3.264657880150274	3.038524571727276	-0.1571009847120857	-3.297262378013373	3479.364102564102	3616.117216117216	0.3851761846901579	0.5401459854014599	0.06737120211360634
10347.68676757813	-14.19230769230769	-31.93684947958367	3.342473979183347	3.041178650010999	-1.088171222767978	-2.898436355870647	3491.015384615384	3619.047619047619	0.393681652490887	0.5425790754257908	0.06737120211360634
10367.21801757813	-14.42307692307692	-31.64666348463386	2.525481924000739	3.937491879623404	-1.115245297117142	-2.907670228910262	3477.907692307692	3616.117216117216	0.3863912515188335	0.5437956204379563	0.07793923381770146
10386.74926757813	-14	-31.72433331280409	2.139742563281394	4.390956650997053	-2.990922810403509	-2.114635121144617	3472.082051282051	3614.652014652014	0.3851761846901579	0.5535279805352799	0.07529722589167767
10406.28051757813	-15.07692307692308	-31.9470345507175	2.813265997413315	3.905835636722297	-3.00076391991268	-3.334372118015329	3479.364102564102	3616.117216117216	0.3742405832320777	0.5450121654501217	0.06869220607661823
10425.81176757813	-15.03846153846154	-31.13791802672908	2.703593644146086	2.617664968183832	-1.059048754470893	-2.077583463757159	3496.841025641026	3619.047619047619	0.3851761846901579	0.5425790754257908	0.07529722589167767
10445.34301757813	-14.5	-31.42496304736097	3.055844675740593	1.265707351378604	-0.5567988816998258	-2.467204654167519	3499.753846153846	3620.51282051282	0.3851761846901579	0.5413625304136254	0.08058124174372523
10464.87426757813	-14.61538461538462	-31.65209090349203	2.989160559216604	0.8320518188810937	0.8650325859004712	-2.448649784166541	3495.384615384615	3619.047619047619	0.3900364520048603	0.5462287104622872	0.08058124174372523
10484.40551757813	-13.80769230769231	-30.8605268830449	2.987882613783334	1.735852820880119	0.3763197503039863	-2.054411657236373	3472.082051282051	3614.652014652014	0.3863912515188335	0.5450121654501217	0.08190224570673713
10503.93676757813	-13.96153846153846	-31.83903276467328	2.067022849048469	0.8052292700828837	-0.5510545600864949	-2.870705695444551	3507.035897435897	3619.047619047619	0.3827460510328068	0.5486618004866181	0.07926023778071334
10523.46801757813	-14.69230769230769	-32.32649196280102	2.170751986204348	0.3474052670708864	-1.476380476529056	-2.875380714578856	3493.928205128205	3620.51282051282	0.3766707168894289	0.5474452554744526	0.07397622192866579
10542.99926757813	-14.88461538461539	-31.25721346307816	2.745288538523126	0.3795359724365421	-1.922433806653874	-1.655672759015394	3477.907692307692	3620.51282051282	0.3803159173754556	0.5474452554744526	0.07133421400264201
10562.53051757813	-14.26923076923077	-31.54963201330295	1.366216049762887	-0.5049302531508937	0.4440049361768975	-2.031326974637334	3496.841025641026	3617.582417582417	0.3803159173754556	0.5450121654501217	0.06869220607661823
10582.06176757813	-14.5	-31.94537938042742	2.153584405986328	-0.9284439349780608	0.4731274044739823	-1.210474082523847	3488.102564102564	3619.047619047619	0.3900364520048603	0.5474452554744526	0.08058124174372523
10601.59301757813	-14.65384615384616	-31.65209860195849	3.028007021001417	-0.9284439349780608	0.4731274044739823	-1.210474082523847	3495.384615384615	3620.51282051282	0.3863912515188335	0.5498783454987835	0.07001321003963013
10621.12426757813	-13.80769230769231	-31.77895393237667	2.755388926525836	-1.381434243887161	0.01723296483999291	-1.210503123831096	3495.384615384615	3620.51282051282	0.3876063183475091	0.5486618004866181	0.07397622192866579
10640.65551757813	-14.65384615384616	-32.45042957442878	2.559940259900228	-0.04397770939062508	-1.893311338356789	-0.8348198669019065	3479.364102564102	3623.443223443223	0.3851761846901579	0.5523114355231144	0.07793923381770146
10660.18676757813	-14.46153846153846	-32.42575598940691	3.057030239576276	-0.9429450172867531	-0.9351670259517325	-1.224412016005017	3509.948717948718	3623.443223443223	0.3888213851761846	0.5498783454987835	0.08190224570673713
10679.71801757813	-14.92307692307692	-32.00089302211	3.429266490115169	-0.05146548177724536	-1.431672577109469	-1.238291866871689	3485.189743589744	3620.51282051282	0.3815309842041312	0.5425790754257908	0.06605019815059446
10699.24926757813	-14.07692307692308	-31.35867155262672	3.164346862105069	0.4138462936213723	-0.9679854219142279	-0.8301448477676008	3479.364102564102	3620.51282051282	0.3803159173754556	0.5523114355231144	0.06605019815059446
10718.78051757813	-14.57692307692308	-32.08396717373899	3.390666379257252	0.4111922153376494	-0.03691518385833602	-1.228970869910327	3488.102564102564	3620.51282051282	0.3791008505467801	0.551094890510949	0.07661822985468957
10738.31176757813	-15.61538461538462	-31.78239514688674	2.8120650366447	0.8373599754485395	-0.9971078902113126	-1.650997739881088	3493.928205128205	3620.51282051282	0.3803159173754556	0.5401459854014599	0.06737120211360634
10757.84301757813	-14.34615384615385	-31.6204733017183	3.062126624376425	0.832526281345642	-1.466539367019884	-1.655643717708145	3493.928205128205	3620.51282051282	0.3815309842041312	0.5425790754257908	0.08058124174372523
10777.37426757813	-14	-31.09305906263472	3.268337747120774	1.736327283344668	-1.955252202616369	-1.261405590777978	3485.189743589744	3621.978021978022	0.3912515188335358	0.551094890510949	0.06605019815059446
10796.90551757813	-14.61538461538462	-32.07088747921414	2.775143191476258	2.174816509945075	-2.907652193408095	-1.275314482951899	3470.625641025641	3621.978021978022	0.393681652490887	0.5486618004866181	0.06340819022457067
10816.43676757813	-15.30769230769231	-31.31888587793312	2.405832358194248	2.647616057730313	-2.905603799460174	-0.4636954638780273	3458.974358974359	3617.582417582417	0.3803159173754556	0.5523114355231144	0.06605019815059446
10835.96801757813	-14.76923076923077	-33.01244072180822	1.929728398103098	2.194151286356665	-1.029926286173808	-1.256730571643672	3476.451282051281	3620.51282051282	0.3876063183475091	0.5450121654501217	0.059445178335535
10855.49926757813	-14.88461538461539	-32.10019554104822	2.586700129334237	1.745994671550462	-1.016389248999226	-1.252113635123864	3477.907692307692	3620.51282051282	0.3791008505467801	0.5389294403892945	0.07133421400264201
10875.03051757813	-14.53846153846154	-31.41342304612921	2.517306152614399	1.251206269069912	-1.965093312125541	-2.481142587648689	3493.928205128205	3621.978021978022	0.3791008505467801	0.5462287104622872	0.06605019815059446
10894.56176757813	-14.76923076923077	-31.67059801687504	2.14528545913654	1.256039963172809	-1.495661835316969	-2.476496609821632	3493.928205128205	3620.51282051282	0.3791008505467801	0.5523114355231144	0.07133421400264201
10914.09301757813	-15.11538461538462	-31.90393083697727	2.61961877194063	1.280208433687296	0.8514955487258888	-2.453266720686348	3496.841025641026	3619.047619047619	0.3863912515188335	0.5425790754257908	0.07133421400264201
10933.62426757813	-14.11538461538462	-31.73975334113445	3.02612859518384	1.302197288382609	1.798151217904283	-2.035856787235395	3488.102564102564	3616.117216117216	0.3912515188335358	0.5474452554744526	0.07793923381770146
10953.15551757813	-13.92307692307692	-32.16005111781733	2.694863583174232	1.755662059756257	-0.07752629538208272	-1.24282167946975	3466.25641025641	3616.117216117216	0.3888213851761846	0.5486618004866181	0.06208718626155878
10972.68676757813	-14.73076923076923	-31.9500446511055	2.617617170659605	0.8127170424695041	-1.012693321333815	-2.467233695474767	3507.035897435897	3620.51282051282	0.3791008505467801	0.551094890510949	0.07529722589167767
10992.21801757813	-14.84615384615385	-32.59288969637248	2.182946357085669	1.711684350365632	-1.970837633738871	-2.077641546371657	3477.907692307692	3614.652014652014	0.3827460510328068	0.5450121654501217	0.07397622192866579
11011.74926757813	-14.88461538461539	-31.63443831988668	2.375762148180083	2.18448389815087	-1.968789239790951	-1.266022527297785	3477.907692307692	3620.51282051282	0.393681652490887	0.5401459854014599	0.06737120211360634
11031.28051757813	-14.34615384615385	-31.29636786352159	2.241470099156248	1.270541045481501	-0.08736740489125427	-2.462558676340462	3493.928205128205	3619.047619047619	0.3851761846901579	0.5498783454987835	0.06869220607661823
11050.81176757813	-14.34615384615385	-32.2201838393792	2.278422738190553	1.738506899163842	-0.5547504877519056	-1.655585635093647	3486.646153846154	3619.047619047619	0.3827460510328068	0.5486618004866181	0.06737120211360634
11070.34301757813	-15	-31.55362751739854	2.296760485311326	0.8298722030619191	-0.5354691289639924	-2.054469739850871	3508.492307692307	3617.582417582417	0.393681652490887	0.5450121654501217	0.06472919418758256
11089.87426757813	-14.84615384615385	-31.52049331773111	2.409281271170783	1.263527735559429	-1.957300596564289	-2.073024609851849	3480.820512820513	3614.652014652014	0.3851761846901579	0.5413625304136254	0.07001321003963013
11109.40551757813	-14.80769230769231	-31.56975580464372	2.910867155262672	1.694529189773217	-2.448061826108694	-2.490405501995554	3472.082051282051	3614.652014652014	0.3754556500607533	0.5498783454987835	0.07001321003963013
11128.93676757813	-14.84615384615385	-31.82458274311757	2.229137155878549	0.7977414976962635	-0.08941579883917455	-3.274177695414334	3505.579487179487	3619.047619047619	0.3803159173754556	0.5425790754257908	0.07001321003963013
11148.46801757813	-15.07692307692308	-30.91005111781733	2.887171275481924	1.285042127790194	1.320927025534461	-2.448620742859291	3482.276923076923	3617.582417582417	0.3851761846901579	0.5437956204379563	0.06869220607661823
11167.99926757813	-14.19230769230769	-32.22862135862536	2.546452546652707	2.171687969196804	0.3549899975681528	-2.467146571553021	3476.451282051281	3617.582417582417	0.3839611178614824	0.5389294403892945	0.07661822985468957
11187.53051757813	-14.65384615384616	-32.17713401490423	2.356700745211554	1.726185432674324	-0.5625432033131568	-2.063703612890487	3476.451282051281	3613.186813186813	0.3803159173754556	0.5352798053527981	0.07133421400264201
11207.06176757813	-14.23076923076923	-30.9068023649689	1.878579786906448	1.260873657275706	-1.026230358508397	-2.471850631994575	3492.471794871794	3619.047619047619	0.3815309842041312	0.5389294403892945	0.06340819022457067
11226.59301757813	-15.07692307692308	-31.61061156617602	3.299809078031656	1.251206269069912	-1.965093312125541	-2.481142587648689	3493.928205128205	3617.582417582417	0.3839611178614824	0.5401459854014599	0.07529722589167767
11246.12426757813	-15.42307692307692	-31.24731323520355	2.788738683254296	1.248552190786189	-1.034023074069649	-2.879968609791415	3492.471794871794	3619.047619047619	0.3778857837181044	0.5389294403892945	0.07661822985468957
11265.65551757813	-14.30769230769231	-31.60506867032087	2.253433516043604	1.726185432674324	-0.5625432033131568	-2.063703612890487	3477.907692307692	3614.652014652014	0.3961117861482381	0.5437956204379563	0.06869220607661823
11285.18676757813	-15.26923076923077	-31.71073012255959	2.728813820286999	1.282862511971019	-0.079574689330003	-2.054440698543622	3477.907692307692	3616.117216117216	0.3876063183475091	0.5437956204379563	0.06737120211360634
11304.71801757813	-14.88461538461539	-31.2980153353452	2.862305228798423	1.290350284357639	-0.5412134505773234	-1.650968698573839	3486.646153846154	3623.443223443223	0.3888213851761846	0.5486618004866181	0.07133421400264201
11324.24926757813	-14.92307692307692	-32.02552811479954	2.737944201515058	2.194151286356665	-1.029926286173808	-1.256730571643672	3473.538461538461	3620.51282051282	0.3961117861482381	0.5474452554744526	0.07001321003963013
11343.78051757813	-15	-31.06169551025436	2.700160128102482	0.3742278158690964	-0.0602933305420898	-2.453324803300846	3495.384615384615	3620.51282051282	0.3924665856622114	0.551094890510949	0.06208718626155878
11363.31176757813	-14.19230769230769	-31.19625700560448	2.851311818685718	1.290350284357639	-0.5412134505773234	-1.650968698573839	3489.558974358974	3623.443223443223	0.3876063183475091	0.5462287104622872	0.06869220607661823
11382.84301757813	-14.96153846153846	-31.54669119911313	1.91148303257991	0.3913829764615114	0.416930861827733	-2.04056084767695	3488.102564102564	3614.652014652014	0.3961117861482381	0.5486618004866181	0.06869220607661823
11402.37426757813	-14.38461538461539	-31.75828354991685	2.298792880458213	0.3988707488481317	-0.04470789941958728	-1.637088847707167	3495.384615384615	3620.51282051282	0.3851761846901579	0.5462287104622872	0.07529722589167767
11421.90551757813	-15.5	-31.57605315021248	1.994965202931576	1.29783805674426	-1.002852211824644	-1.247496698604056	3476.451282051281	3617.582417582417	0.3863912515188335	0.5498783454987835	0.0726552179656539
11441.43676757813	-14.57692307692308	-31.36800979244934	2.208181930159513	0.3817155882557166	-0.5219320917894101	-2.049852803331063	3495.384615384615	3619.047619047619	0.3827460510328068	0.5450121654501217	0.07397622192866579
11460.96801757813	-14.65384615384616	-31.52199451869188	2.292033626901521	0.8448477478351597	-1.458746651458633	-1.247525739911305	3477.907692307692	3619.047619047619	0.3827460510328068	0.5474452554744526	0.06340819022457067
11480.49926757813	-15.11538461538462	-31.88776405739977	1.811279793065221	0.8545151360409545	-0.5198836978414898	-1.238233784257192	3479.364102564102	3619.047619047619	0.3742405832320777	0.537712895377129	0.06208718626155878
11500.03051757813	-14.46153846153846	-31.70133029500524	3.374207057954056	0.433181070032962	0.9097404853200584	-0.8115609364593738	3488.102564102564	3617.582417582417	0.3827460510328068	0.5486618004866181	0.07133421400264201
11519.56176757813	-15.61538461538462	-32.43984418303874	2.992209151936934	-0.0567736383446911	0.4304678990023153	-2.035943911157142	3489.558974358974	3614.652014652014	0.3718104495747266	0.5474452554744526	0.07397622192866579
11539.09301757813	-14.96153846153846	-31.87541571718914	2.963093551764488	-0.07876249304000363	-0.5161877701760791	-2.453353844608095	3496.841025641026	3620.51282051282	0.3815309842041312	0.551094890510949	0.06869220607661823
11558.62426757813	-14.69230769230769	-31.76450391082096	2.917503233355916	0.8175507365724014	-0.5432618445252436	-2.462587717647711	3488.102564102564	3619.047619047619	0.3839611178614824	0.5450121654501217	0.06208718626155878
11578.15551757813	-14.88461538461539	-32.07863983494488	3.431991747243949	2.179175741583424	-0.1066487636791675	-2.063674571583238	3469.169230769231	3613.186813186813	0.3803159173754556	0.5413625304136254	0.06737120211360634
11597.68676757813	-15.11538461538462	-31.47897548808277	2.525697481061773	1.285042127790194	1.320927025534461	-2.448620742859291	3495.384615384615	3619.047619047619	0.3851761846901579	0.5474452554744526	0.05680317040951123
11617.21801757813	-14.69230769230769	-31.57204224918396	2.909804766890436	1.738506899163842	-0.5547504877519056	-1.655585635093647	3493.928205128205	3620.51282051282	0.3997569866342648	0.5462287104622872	0.06737120211360634
11636.74926757813	-14.19230769230769	-31.77287214386894	2.835914885754757	1.280682896151845	-1.480076404194467	-1.660260654227953	3480.820512820513	3620.51282051282	0.3851761846901579	0.5413625304136254	0.06208718626155878
11656.28051757813	-14.69230769230769	-32.29646794358564	2.592627948512656	1.709030272081909	-1.03976739568298	-2.476467568514383	3488.102564102564	3620.51282051282	0.3791008505467801	0.5340632603406327	0.06472919418758256
11675.81176757813	-14.53846153846154	-32.78375007698466	1.802888464617848	1.721351738571427	-1.031974680121728	-2.068349590717543	3477.907692307692	3616.117216117216	0.3900364520048603	0.5474452554744526	0.06472919418758256
11695.34301757813	-15.07692307692308	-32.32579910081912	2.520724271725072	1.738506899163842	-0.5547504877519056	-1.655585635093647	3485.189743589744	3621.978021978022	0.393681652490887	0.5413625304136254	0.06472919418758256
11714.87426757813	-14.69230769230769	-31.7521863644762	2.301625916117509	1.295183978460537	-0.07178197376875174	-1.646322720746783	3493.928205128205	3620.51282051282	0.393681652490887	0.5450121654501217	0.06472919418758256
11734.40551757813	-14.88461538461539	-32.33422892159882	2.749907618402414	1.293004362641362	-1.472283688633215	-1.252142676431113	3479.364102564102	3620.51282051282	0.3876063183475091	0.5486618004866181	0.06472919418758256
11753.93676757813	-15.53846153846154	-31.49830633737759	1.992239945802796	0.8400140537322623	-1.928178128267204	-1.252171717738362	3493.928205128205	3621.978021978022	0.3791008505467801	0.5486618004866181	0.06737120211360634
11773.46801757813	-15.30769230769231	-31.24267105992486	2.441245303935456	0.4015248271318546	-0.9757781374754792	-1.238262825564441	3499.753846153846	3620.51282051282	0.3888213851761846	0.5437956204379563	0.05812417437252312
11792.99926757813	-14.73076923076923	-31.95389388433824	2.810078832296607	1.33963615031571	-0.5100425883323183	-0.01849678738648029	3480.820512820513	3624.908424908425	0.3912515188335358	0.5401459854014599	0.05548216644649934
11812.53051757813	-14.61538461538462	-31.90383075691323	4.03769169181499	0.8716702966333697	-0.04265950547166699	-0.8254698286332951	3485.189743589744	3614.652014652014	0.3827460510328068	0.5389294403892945	0.07529722589167767
11832.06176757813	-14.92307692307692	-31.69526390343043	1.609349017675679	3.55094259726479	-1.062744682136304	-0.8624634034062557	3473.538461538461	3621.978021978022	0.3778857837181044	0.5486618004866181	0.05019815059445178
11851.59301757813	-14.80769230769231	-31.37729414300672	2.903168688797192	0.8448477478351597	-1.458746651458633	-1.247525739911305	3489.558974358974	3621.978021978022	0.3803159173754556	0.5450121654501217	0.05548216644649934
11871.12426757813	-14.96153846153846	-32.40737974995381	2.638218266921229	0.8448477478351597	-1.458746651458633	-1.247525739911305	3493.928205128205	3621.978021978022	0.3912515188335358	0.5425790754257908	0.06208718626155878
11890.65551757813	-15.07692307692308	-32.17875839132845	2.860996489499292	1.753482443937083	-1.478028010246546	-0.8486416351540811	3477.907692307692	3621.978021978022	0.3754556500607533	0.5413625304136254	0.05812417437252312
11910.18676757813	-15.46153846153846	-31.72231631459014	1.577354191045144	0.8668366025304722	-0.5120909822802385	-0.8301158064603519	3496.841025641026	3623.443223443223	0.3815309842041312	0.5401459854014599	0.06605019815059446
11929.71801757813	-15.03846153846154	-31.55286536921845	2.297114614768738	1.322480989723295	-0.9872667807021411	-0.4312607430103768	3477.907692307692	3620.51282051282	0.3839611178614824	0.551094890510949	0.05416116248348745
11949.24926757813	-14.65384615384616	-32.39346092258423	3.557661513826446	1.319826911439572	-0.05619654264624922	-0.830086765153103	3485.189743589744	3623.443223443223	0.3900364520048603	0.5413625304136254	0.0488771466314399
11968.78051757813	-14.88461538461539	-31.30340426187103	3.131751555090226	2.652449751833211	-2.436172322651602	-0.4590494860509705	3460.430769230769	3619.047619047619	0.3839611178614824	0.5364963503649636	0.05548216644649934
11988.31176757813	-16.03846153846154	-31.53689874976905	2.498783642298454	1.285516590254742	-1.010644927385895	-1.655614676400896	3496.841025641026	3620.51282051282	0.3876063183475091	0.5425790754257908	0.05416116248348745
12007.84301757813	-15.65384615384616	-31.96100726735235	2.165747983001786	1.290350284357639	-0.5412134505773234	-1.650968698573839	3495.384615384615	3620.51282051282	0.3766707168894289	0.5340632603406327	0.05812417437252312
12027.37426757813	-14.42307692307692	-31.961530763072	2.884230461292111	1.743340593266739	-0.08531901094333398	-1.65093965726659	3496.841025641026	3620.51282051282	0.3827460510328068	0.5425790754257908	0.06472919418758256
12046.90551757813	-14.69230769230769	-32.28799963047361	2.169212292911252	2.206472752846183	-1.022133570612557	-0.8486125938468322	3479.364102564102	3621.978021978022	0.3839611178614824	0.5437956204379563	0.06737120211360634
12066.43676757813	-15.26923076923077	-31.92243795036029	1.775743671860566	2.664771218322728	-2.428379607090351	-0.0509315082541308	3464.8	3620.51282051282	0.3851761846901579	0.5486618004866181	0.05548216644649934
12085.96801757813	-15.80769230769231	-31.51529685286691	3.110996489499292	1.745994671550462	-1.016389248999226	-1.252113635123864	3493.928205128205	3619.047619047619	0.3912515188335358	0.5474452554744526	0.0607661822985469
12105.49926757813	-14.88461538461539	-31.5705410482232	3.027052411159697	1.782959071019015	-0.9930111023154721	-0.02775970173334488	3476.451282051281	3624.908424908425	0.3791008505467801	0.5364963503649636	0.0607661822985469
12125.03051757813	-14.53846153846154	-31.49117755743056	2.558877871527992	2.657283445936108	-1.966740845843031	-0.4544035082239138	3467.71282051282	3619.047619047619	0.3827460510328068	0.5450121654501217	0.06340819022457067
12144.56176757813	-15.73076923076923	-32.00875315637125	2.706888587793312	1.767983526245775	-0.06973357982083145	-0.8347037016729109	3499.753846153846	3624.908424908425	0.3730255164034022	0.5401459854014599	0.05680317040951123
12164.09301757813	-14.30769230769231	-31.98922214694833	2.230338116647164	1.32466060554247	0.4132349341623223	-0.8254407873260463	3489.558974358974	3623.443223443223	0.3888213851761846	0.5389294403892945	0.05680317040951123
12183.62426757813	-14.23076923076923	-32.56736158157295	2.21423292480138	0.8470273636543343	-0.05824493659416952	-1.641705784226975	3501.210256410256	3623.443223443223	0.3924665856622114	0.5437956204379563	0.06472919418758256
12203.15551757813	-15.38461538461539	-31.74231693046745	2.500461907987929	2.194151286356665	-1.029926286173808	-1.256730571643672	3470.625641025641	3617.582417582417	0.3766707168894289	0.5401459854014599	0.05416116248348745
12222.68676757813	-15.73076923076923	-31.85709336700129	2.816206811603129	2.659463061755282	-0.5662391309785675	-0.8485835525395833	3466.25641025641	3617.582417582417	0.3900364520048603	0.5352798053527981	0.06605019815059446
12242.21801757813	-14.61538461538462	-32.13016567099833	1.892898934532241	2.181355357402599	1.293852951185296	-2.457854615898907	3491.015384615384	3619.047619047619	0.3876063183475091	0.5474452554744526	0.06340819022457067
12261.74926757813	-14.26923076923077	-32.02154800763688	1.885092689536245	1.760495753859155	0.3919051814264888	-1.238175701642694	3479.364102564102	3619.047619047619	0.3851761846901579	0.5425790754257908	0.05416116248348745
12281.28051757813	-14.92307692307692	-32.89622467204533	2.042002833035659	1.278028817868122	-0.5490061661385746	-2.059086676370679	3489.558974358974	3616.117216117216	0.3815309842041312	0.5450121654501217	0.05416116248348745
12300.81176757813	-14.73076923076923	-32.7229706842397	2.802380365831127	2.18448389815087	-1.968789239790951	-1.266022527297785	3470.625641025641	3619.047619047619	0.3791008505467801	0.5413625304136254	0.05812417437252312
