Time Stamp	Accelerometer X	Accelerometer Y	Accelerometer Z	Gyroscope X	Gyroscope Y	Gyroscope Z	VSenseReg	VSenseBatt	Magnetometer X	Magnetometer Y	Magnetometer Z
1574.249267578125	-4.983068083466605	-33.08402431262181	5.693191653339538	-59.26661531135268	129.605175648624	2.150354416983491	3493.928205128205	3638.095238095238	0.1987179487179487	0.5799492385786802	0.102257636122178
1593.780517578125	-4.737366313205368	-32.39987540827796	6.263368679463172	1.080965771192399	0.7368122578491482	0.9433827122173778	3493.928205128205	3629.304029304029	0.2115384615384615	0.5926395939086294	0.099601593625498
1613.311767578125	-4.462086935966996	-32.66713834851949	5.79130640330045	5.255988668652415	0.4518779321752292	0.8329684364576639	3466.25641025641	3624.908424908425	0.2012820512820513	0.5799492385786802	0.09561752988047809
1632.843017578125	-4.590970424239738	-32.42619679459479	4.902957576026188	3.509242540558738	1.923231239619474	0.1896556890418281	3498.297435897436	3632.234432234432	0.208974358974359	0.583756345177665	0.102257636122178
1652.374267578125	-4.708342720802509	-32.96611231352793	5.165727919749141	2.80948657022776	2.663020293374951	-0.1533359566340072	3488.102564102564	3626.373626373626	0.1987179487179487	0.5913705583756345	0.08632138114209827
1671.905517578125	-5.424749431519489	-32.77023384339609	5.525056848051038	4.209561021045837	2.684894294581819	0.05091363701575125	3480.820512820513	3629.304029304029	0.2064102564102564	0.5862944162436548	0.08764940239043824
1691.436767578125	-5.553586751911043	-32.644723534416	4.64132480889575	4.186723108707329	1.205492583983935	-0.2172162040685295	3486.646153846154	3627.838827838828	0.2115384615384615	0.5875634517766497	0.09561752988047809
1710.968017578125	-4.743121909060355	-33.00944687184904	5.687809093964564	4.542169944418416	0.8300854575762118	0.1417455034659362	3486.646153846154	3630.769230769231	0.1923076923076923	0.5888324873096447	0.100929614873838
1730.499267578125	-5.506619243019108	-33.07523764147378	5.338075698089142	4.183798055895501	0.8328858565694712	-0.1905157219913257	3480.820512820513	3624.908424908425	0.2115384615384615	0.583756345177665	0.09428950863213811
1750.030517578125	-5.191005142486393	-32.18939249839643	4.899485751360721	4.536882348950879	1.586324111465108	-0.286587230081568	3479.364102564102	3623.443223443223	0.1961538461538462	0.5951776649746192	0.09030544488711818
1769.561767578125	-4.829300722804348	-33.54086780842915	5.069927719565208	4.545094997230244	1.202692184990675	0.1150450213887323	3472.082051282051	3626.373626373626	0.2038461538461538	0.5951776649746192	0.09694555112881806
1789.093017578125	-4.828008022131035	-32.77294266687842	5.199197786896447	4.195498267142815	2.323312766227325	-0.2973176503001413	3492.471794871794	3626.373626373626	0.2025641025641026	0.5951776649746192	0.09827357237715803
1808.624267578125	-5.777127939201209	-32.73587001217601	6.287206079879052	4.178510460427965	1.589124510458367	-0.6188484555388298	3492.471794871794	3629.304029304029	0.2217948717948718	0.58248730964467	0.08764940239043824
1828.155517578125	-5.060644282015579	-33.12413389054888	5.93557179844211	4.536882348950879	1.586324111465108	-0.286587230081568	3474.994871794872	3626.373626373626	0.2102564102564103	0.5799492385786802	0.09561752988047809
1847.686767578125	-4.826869214395022	-32.62024670884563	5.313078560497775	4.178510460427965	1.589124510458367	-0.6188484555388298	3488.102564102564	3632.234432234432	0.2	0.5862944162436548	0.1035856573705179
1867.218017578125	-5.629500906737187	-32.84035793034929	5.049909326281343	4.17322286496043	2.345363164347263	-1.047181189086334	3492.471794871794	3629.304029304029	0.2128205128205128	0.5964467005076142	0.08897742363877821
1886.749267578125	-4.952505561690755	-32.49796938269233	4.7494438309246	4.189648161519158	1.578099311398398	-0.2439166861457334	3480.820512820513	3624.908424908425	0.2102564102564103	0.5862944162436548	0.09428950863213811
1906.280517578125	-5.384553211868716	-32.27083202524336	5.544678813128421	3.47290438447333	1.583700109384917	-0.9084391370602574	3495.384615384615	3630.769230769231	0.2128205128205128	0.5913705583756345	0.09561752988047809
1925.811767578125	-5.379997980924663	-32.66004819311224	6.000201907533736	3.825426167372587	0.8356862555627309	-0.5227769474485876	3474.994871794872	3629.304029304029	0.2012820512820513	0.5913705583756345	0.09428950863213811
1945.343017578125	-4.900044074937243	-32.66480163815954	5.995592506275753	3.809000870813858	1.602950108511596	-1.326041450389188	3486.646153846154	3627.838827838828	0.2115384615384615	0.5964467005076142	0.099601593625498
1964.874267578125	-5.547769598881137	-33.18906039743774	5.22304011188632	3.478754490096987	2.328913564213844	-0.9618401012146651	3495.384615384615	3632.234432234432	0.2038461538461538	0.5964467005076142	0.08897742363877821
1984.405517578125	-5.063183515481014	-32.77541541859494	5.681648451898607	3.834201325808073	1.953506437806121	-0.6028783936801994	3464.8	3627.838827838828	0.2051282051282051	0.5850253807106599	0.08764940239043824
2003.936767578125	-5.027357855249535	-33.34852241235181	5.264214475046567	4.178510460427965	1.589124510458367	-0.6188484555388298	3463.343589743589	3626.373626373626	0.2064102564102564	0.5875634517766497	0.099601593625498
2023.468017578125	-4.908369682845124	-32.84870046648027	5.163031715487661	3.820138571905051	1.591924909451627	-0.9511096809960917	3485.189743589744	3629.304029304029	0.2076923076923077	0.5939086294416244	0.09163346613545816
2042.999267578125	-4.661621440610253	-32.78099311421441	5.837855938974678	3.806075818002029	1.230343381097132	-1.299340968311984	3498.297435897436	3632.234432234432	0.2141025641025641	0.5799492385786802	0.09561752988047809
2062.530517578125	-4.945010975644289	-33.2363081453685	5.498902435571182	4.172660354804308	0.8439110556294402	-0.5654474913844221	3476.451282051281	3629.304029304029	0.2102564102564103	0.5799492385786802	0.09428950863213811
2082.061767578125	-5.542906582062486	-33.34781819827073	5.709341793751453	4.175585407616136	1.216517783043904	-0.592147973461626	3477.907692307692	3630.769230769231	0.2064102564102564	0.58248730964467	0.100929614873838
2101.593017578125	-5.501340715269749	-33.27287664680832	5.865928473025029	3.475829437285158	1.956306836799381	-0.9351396191374612	3496.841025641026	3630.769230769231	0.1974358974358974	0.5850253807106599	0.09561752988047809
2121.124267578125	-5.826157613452952	-33.14942696425867	5.384238654704876	4.167372759336772	1.600149709518336	-0.9937802249319263	3480.820512820513	3627.838827838828	0.2012820512820513	0.5799492385786802	0.09827357237715803
2140.655517578125	-5.14725399598401	-32.57819654097922	5.274600401599009	4.178510460427965	1.589124510458367	-0.6188484555388298	3480.820512820513	3632.234432234432	0.217948717948718	0.5850253807106599	0.099601593625498
2160.186767578125	-4.904753198818595	-32.8908146538086	5.52468011814053	4.181435513239793	1.961731237872831	-0.6455489376160337	3488.102564102564	3632.234432234432	0.2102564102564103	0.5786802030456852	0.09428950863213811
2179.718017578125	-5.065137955784713	-32.88882604927282	5.486204421528759	3.825426167372587	0.8356862555627309	-0.5227769474485876	3486.646153846154	3630.769230769231	0.208974358974359	0.5913705583756345	0.08764940239043824
2199.249267578125	-5.545353479765542	-33.22996221620603	5.464652023445897	3.816651008937102	-0.2821339266806595	-0.4426755012169758	3488.102564102564	3629.304029304029	0.2115384615384615	0.58248730964467	0.08632138114209827
2218.780517578125	-5.545045693890943	-32.99950384917015	5.495430610905714	3.822501114560759	0.4630795281482674	-0.4960764653713837	3498.297435897436	3632.234432234432	0.2115384615384615	0.5850253807106599	0.09428950863213811
2238.311767578125	-5.832067102245236	-32.37422761134769	4.793289775476359	3.492254733843888	1.189042983850516	-0.1318751161968605	3472.082051282051	3624.908424908425	0.2051282051282051	0.5977157360406091	0.09428950863213811
2257.843017578125	-5.343449023887877	-33.04157802433478	5.65509761121227	3.825988677528708	2.337138364280553	-1.0045106451505	3486.646153846154	3630.769230769231	0.208974358974359	0.5799492385786802	0.1062416998671979
2277.374267578125	-4.868819813531006	-32.73326121910291	5.118018646899426	4.176147917772258	2.717969891761726	-1.073881671163538	3482.276923076923	3630.769230769231	0.1987179487179487	0.583756345177665	0.09827357237715803
2296.905517578125	-5.10805808042568	-32.57778441569314	5.194191957431982	4.172660354804308	0.8439110556294402	-0.5654474913844221	3473.538461538461	3629.304029304029	0.1961538461538462	0.5850253807106599	0.09694555112881806
2316.436767578125	-5.948392926834374	-33.53058468235882	5.160707316562696	4.166810249180651	0.09869760080051343	-0.5120465272300142	3480.820512820513	3629.304029304029	0.1974358974358974	0.5939086294416244	0.09694555112881806
2335.968017578125	-4.71489855993145	-32.57487553139231	4.510144006855006	4.158597600901286	0.4823295272749459	-0.9136787787003144	3480.820512820513	3627.838827838828	0.2064102564102564	0.5862944162436548	0.09296148738379813
2355.499267578125	-5.460805931156918	-33.61997062491613	5.919406884308213	3.806075818002029	1.230343381097132	-1.299340968311984	3508.492307692307	3632.234432234432	0.2	0.5850253807106599	0.08897742363877821
2375.030517578125	-5.026834619262718	-32.65674318839081	5.316538073728259	4.175022897460016	-0.284934325673919	-0.1104142757597139	3474.994871794872	3629.304029304029	0.2076923076923077	0.5786802030456852	0.08632138114209827
2394.561767578125	-5.668450593595838	-33.45640336200666	5.154940640416224	3.830713762840123	0.07944760167383495	-0.09444421390108332	3472.082051282051	3624.908424908425	0.2141025641025641	0.5926395939086294	0.09561752988047809
2414.093017578125	-5.540244234247211	-33.00435332341031	5.975576575278883	3.469979331661501	1.211093381970454	-0.8817386549830533	3507.035897435897	3630.769230769231	0.1987179487179487	0.5850253807106599	0.099601593625498
2433.624267578125	-5.860644405129929	-32.92382607389569	5.935559487007126	3.489329681032059	0.8164362564360523	-0.1051746341196566	3474.994871794872	3623.443223443223	0.2115384615384615	0.5913705583756345	0.099601593625498
2453.155517578125	-4.902583308402678	-32.3160831662056	5.74166915973225	3.492254733843888	1.189042983850516	-0.1318751161968605	3473.538461538461	3627.838827838828	0.2064102564102564	0.5926395939086294	0.09296148738379813
2472.686767578125	-5.11315193665028	-32.84187039013707	4.684806334971984	3.850626622366802	1.186242584857256	0.2003861092604014	3479.364102564102	3627.838827838828	0.2076923076923077	0.5850253807106599	0.09428950863213811
2492.218017578125	-5.344249267161832	-33.04076977862808	5.575073283816741	3.492254733843888	1.189042983850516	-0.1318751161968605	3489.558974358974	3623.443223443223	0.208974358974359	0.5901015228426395	0.100929614873838
2511.749267578125	-5.509281590834382	-32.4187025163342	5.071840916561711	3.492254733843888	1.189042983850516	-0.1318751161968605	3491.015384615384	3626.373626373626	0.2128205128205128	0.5888324873096447	0.09561752988047809
2531.280517578125	-4.702510178478874	-32.54892625819787	5.748982152112703	3.841851463931317	0.06842240261386592	0.2804875554920131	3472.082051282051	3626.373626373626	0.2064102564102564	0.583756345177665	0.1049136786188579
2550.811767578125	-5.428473640602127	-32.45878008453031	5.152635939787233	4.183798055895501	0.8328858565694712	-0.1905157219913257	3470.625641025641	3623.443223443223	0.2153846153846154	0.5901015228426395	0.09030544488711818
2570.343017578125	-5.30900840009209	-34.15174766975314	5.099159990791046	3.47290438447333	1.583700109384917	-0.9084391370602574	3493.928205128205	3630.769230769231	0.1935897435897436	0.5875634517766497	0.09827357237715803
2589.874267578125	-5.497247163137594	-32.50778036523103	6.275283686240616	3.834201325808073	1.953506437806121	-0.6028783936801994	3493.928205128205	3630.769230769231	0.2076923076923077	0.5951776649746192	0.08764940239043824
2609.405517578125	-5.110027910023108	-32.65271796472281	4.997208997689143	4.192573214330986	1.950706038812862	-0.2706171682229373	3470.625641025641	3623.443223443223	0.2051282051282051	0.58248730964467	0.09030544488711818
2628.936767578125	-5.759569370627132	-33.63668108951275	4.043062937286781	4.531594753483343	2.342562765354003	-0.7149199636290723	3495.384615384615	3632.234432234432	0.2064102564102564	0.5786802030456852	0.09030544488711818
2648.468017578125	-5.386707712990903	-32.88404059449456	5.329228700909692	3.145583056568288	2.682270292501629	-0.5709382699629381	3483.733333333333	3630.769230769231	0.2115384615384615	0.5862944162436548	0.09827357237715803
2667.999267578125	-5.744718702177769	-32.76706488003122	5.528129782223026	4.870616292635699	2.734419491895145	-1.159222759035207	3493.928205128205	3629.304029304029	0.2141025641025641	0.5761421319796954	0.09561752988047809
2687.530517578125	-5.347404072376464	-33.15296804074592	5.259592762353601	5.58499752702582	3.857664075211986	-0.9497335237453914	3474.994871794872	3630.769230769231	0.2076923076923077	0.5875634517766497	0.08499335989375829
2707.061767578125	-4.889148454976467	-33.90657544508915	7.08515450235333	7.31295581590506	4.282420002019966	-1.564718494894864	3464.8	3627.838827838828	0.1897435897435897	0.5901015228426395	0.09827357237715803
2726.593017578125	-5.100501937204295	-34.47003150496212	5.949806279570526	7.940597984221343	4.365020796513199	-3.899650199125112	3482.276923076923	3617.582417582417	0.1961538461538462	0.5888324873096447	0.09296148738379813
2746.124267578125	-6.336289308872974	-33.69265549034599	6.371069112702568	9.974164708979359	5.214709047042227	-6.083733273860009	3457.517948717949	3614.652014652014	0.2076923076923077	0.5862944162436548	0.09561752988047809
2765.655517578125	-5.819924949492338	-32.73264503178197	6.007505050766202	11.65757219349383	5.683565770090083	-8.198445322581867	3466.25641025641	3613.186813186813	0.2038461538461538	0.5926395939086294	0.08897742363877821
2785.186767578125	-6.228689213828695	-33.71979312480225	5.131078617130376	13.32342936113732	3.916782128651159	-10.1529544788405	3474.994871794872	3607.326007326007	0.2025641025641026	0.581218274111675	0.099601593625498
2804.718017578125	-5.859351704456617	-33.15590093234496	6.064829554338364	14.62798958744607	1.78019215879103	-12.4130243784792	3469.169230769231	3600	0.2076923076923077	0.5850253807106599	0.09694555112881806
2824.249267578125	-5.968721568279833	-33.70389890834505	7.1278431720166	16.99124018276484	0.4024648448999871	-14.4795751046867	3568.205128205128	3702.564102564103	0.217948717948718	0.5710659898477157	0.1035856573705179
2843.780517578125	-6.411664838418572	-33.23498774396647	6.833516158142844	18.69636055930558	-0.6521809388899178	-15.36268991692046	3540.533333333333	3698.168498168498	0.2256410256410256	0.5786802030456852	0.1102257636122178
2863.311767578125	-6.169641109358784	-32.35481632570147	7.035889064121646	20.77740314124019	0.5260132428136982	-16.07374639616018	3528.882051282051	3693.772893772893	0.2294871794871795	0.5888324873096447	0.1088977423638778
2882.843017578125	-6.334227143513167	-32.84858443120555	6.577285648683352	23.20331736795082	2.841277605887383	-17.28250663496043	3507.035897435897	3692.307692307692	0.2166666666666667	0.5913705583756345	0.1102257636122178
2902.374267578125	-6.007255744207778	-33.35882554450399	7.274425579222235	23.50127566570636	5.151293964800687	-19.73497068771807	3536.164102564102	3684.981684981685	0.2282051282051282	0.583756345177665	0.1208499335989376
2921.905517578125	-7.402950804736948	-32.77225045644644	7.704919526305226	25.52550472187276	3.381709924368503	-21.35721861851944	3528.882051282051	3684.981684981685	0.2307692307692308	0.5799492385786802	0.1142098273572377
2941.436767578125	-8.069466040753312	-33.31753160653146	9.053395924668791	27.86119231954161	2.782271662486295	-24.60196561706065	3534.707692307692	3679.120879120879	0.2333333333333333	0.565989847715736	0.1274900398406375
2960.968017578125	-7.271820479579639	-32.63084593100917	8.817952042036161	29.19207802115682	3.999142239356337	-27.10233985539417	3527.425641025641	3674.725274725275	0.2320512820512821	0.5697969543147208	0.1301460823373174
2980.499267578125	-7.271958983223208	-32.28455219617532	8.804101677679244	31.90548785671914	3.002246452946467	-29.23826160761472	3517.230769230769	3664.468864468864	0.2294871794871795	0.5710659898477157	0.1407702523240372
3000.030517578125	-7.685186142741239	-32.11334661121596	7.48138572587605	33.24109864364576	1.961426267209791	-30.82856941469883	3520.14358974359	3661.538461538461	0.2474358974358975	0.5710659898477157	0.1460823373173971
3019.561767578125	-7.826195778901401	-31.55400380177112	9.380422109859858	35.34677917041847	1.98872466949011	-30.33472913952765	3499.753846153846	3665.934065934066	0.2397435897435898	0.5596446700507614	0.1460823373173971
3039.093017578125	-7.344518272016232	-31.86819039141745	9.548172798376859	35.68872576238265	2.753188123445715	-30.80573241701099	3523.05641025641	3667.399267399267	0.2474358974358975	0.5621827411167513	0.1460823373173971
3058.624267578125	-6.700209171280378	-31.80201950623759	9.979082871962305	38.15806577314582	2.021447472843878	-29.55129818283503	3508.492307692307	3668.864468864469	0.2474358974358975	0.5609137055837563	0.150066401062417
3078.155517578125	-8.738889853284629	-31.5906443251056	10.11101467153707	38.83262128848259	0.9311020897938755	-29.93146959386819	3509.948717948718	3667.399267399267	0.2602564102564103	0.565989847715736	0.1699867197875166
3097.686767578125	-9.449679471790194	-31.43890065656882	11.03205282098065	39.88894911483688	2.818810127066321	-30.19298363606171	3524.51282051282	3667.399267399267	0.2743589743589744	0.5406091370558376	0.1606905710491368
3117.218017578125	-9.057997323494034	-30.74219193404025	10.20026765059655	39.55577768130819	3.172166855354106	-29.80208180480998	3524.51282051282	3673.260073260073	0.2679487179487179	0.5482233502538071	0.1752988047808765
3136.749267578125	-9.134357767838345	-30.82199096217558	10.56422321616541	39.89423671030442	2.062571473177425	-29.76465090251421	3527.425641025641	3671.794871794872	0.2743589743589744	0.5431472081218274	0.1872509960159363
3156.280517578125	-8.45620822576217	-30.36538353813405	10.37917742378298	40.93481425228735	-0.9156583440580918	-28.92919513891789	3514.317948717948	3673.260073260073	0.2743589743589744	0.5393401015228426	0.1912350597609562
3175.811767578125	-10.07601387744952	-30.44630290685291	12.39861225504861	41.94782879662034	-3.115599109284775	-29.27193564765526	3501.210256410256	3668.864468864469	0.2743589743589744	0.5279187817258882	0.2084993359893758
3195.343017578125	-12.35410210857947	-29.65620302418089	12.58978914205303	46.08415099533924	-2.611219183889891	-30.93547796514177	3518.687179487179	3665.934065934066	0.2871794871794872	0.5355329949238579	0.197875166002656
3214.874267578125	-10.59290147281697	-30.09809258937794	12.70985271830329	47.42032429242199	-2.150587260908745	-33.00751946992779	3502.666666666666	3661.538461538461	0.2833333333333333	0.5190355329949238	0.2124833997343957
3234.405517578125	-12.78625748381354	-29.15972609519448	13.37425161864591	48.76527274794022	-0.5721351556842079	-35.15966242094543	3505.579487179487	3658.608058608058	0.2846153846153846	0.5291878172588832	0.2164674634794156
3253.936767578125	-11.4941766912526	-29.68472769568102	14.58233087473977	49.77648725977363	-0.1417784308897091	-36.43916984300942	3514.317948717948	3654.212454212454	0.2961538461538462	0.5215736040609137	0.2310756972111554
3273.468017578125	-11.88902903405712	-28.45515759867923	15.09709659428774	53.58728816308707	-1.169125812399296	-36.82844438007199	3515.774358974359	3654.212454212454	0.2923076923076923	0.5063451776649746	0.2403718459495352
3292.999267578125	-11.08248846110756	-29.00822511581982	15.75115388924387	53.90583433255663	-3.385516177759398	-37.0858438009377	3512.861538461538	3657.142857142857	0.3064102564102564	0.5076142131979695	0.248339973439575
3312.530517578125	-12.47699854601953	-28.38438531467412	16.30014539804716	54.91648633423392	-4.456611561682722	-37.88361752529978	3508.492307692307	3651.282051282051	0.3179487179487179	0.498730964467005	0.2549800796812749
3332.061767578125	-13.63062370960772	-28.0330700532962	16.93762903922792	56.63566946467768	-5.149675817118133	-38.41850105021765	3485.189743589744	3648.351648351648	0.3243589743589744	0.4936548223350253	0.2549800796812749
3351.593017578125	-13.71287825345059	-27.37614681016875	16.71217465494125	56.93891535790075	-3.595898112093725	-40.44263236942778	3520.14358974359	3648.351648351648	0.3269230769230769	0.483502538071066	0.2735723771580345
3371.124267578125	-12.78022426509967	-26.24428118455703	17.97757349003328	60.05401036400729	-0.5079454949977242	-42.16506642964721	3485.189743589744	3642.490842490842	0.3346153846153846	0.4771573604060914	0.2762284196547145
3390.655517578125	-14.10719197097456	-26.49327457085416	17.28080290254391	61.05937477021704	-0.8228022250321523	-43.3911728875568	3492.471794871794	3641.025641025641	0.3371794871794872	0.4733502538071066	0.2921646746347941
3410.186767578125	-14.93569245050495	-26.03495062499	18.43075494950465	62.04010123158869	0.01323682435671736	-45.82217609987729	3502.666666666666	3638.095238095238	0.3448717948717949	0.4441624365482233	0.2948207171314741
3429.718017578125	-15.08525853397895	-25.0823504191428	19.4741466021055	63.78155976421485	-0.7018778291986314	-45.60719608600896	3473.538461538461	3633.699633699634	0.3384615384615385	0.4390862944162436	0.300132802124834
3449.249267578125	-14.16202279339073	-24.40251082482921	19.79772066092707	63.42847547115946	-1.455316084094267	-45.51112457791871	3499.753846153846	3638.095238095238	0.3525641025641026	0.4302030456852792	0.3227091633466135
3468.780517578125	-15.08059557797878	-22.74090615854912	19.94044220212175	64.81684971073022	-2.923868992545254	-45.20007305596014	3492.471794871794	3636.630036630037	0.3641025641025641	0.4263959390862944	0.3213811420982736
3488.311767578125	-15.52159979710755	-22.12010728184445	19.84002028924485	65.50839303278185	-3.280026119826298	-45.25871366175461	3482.276923076923	3636.630036630037	0.3705128205128205	0.4200507614213198	0.3333333333333333
3507.843017578125	-16.68067277067613	-21.14790511700172	19.93272293238683	65.14878362191546	0.8545238779059672	-47.00947549824041	3491.015384615384	3633.699633699634	0.358974358974359	0.4086294416243654	0.349269588313413
3527.374267578125	-17.27222798807761	-21.11197280896469	20.77720119223936	66.88900463219814	4.271158823089623	-48.21299609540061	3483.733333333333	3632.234432234432	0.3769230769230769	0.3908629441624365	0.3545816733067729
3546.905517578125	-16.50419081246853	-20.39692112556063	21.58091875314711	65.48713014888047	6.879582311903937	-49.35401260237698	3483.733333333333	3629.304029304029	0.3846153846153846	0.3807106598984771	0.350597609561753
3566.436767578125	-16.90798433493013	-19.81216659095134	21.20156650698735	66.1587606114054	5.416630201439471	-49.70748353133293	3486.646153846154	3629.304029304029	0.382051282051282	0.381979695431472	0.3625498007968127
3585.968017578125	-16.38475635054595	-19.01293454748705	21.52436494540494	67.88908144294035	4.712540746944091	-49.86743528685769	3474.994871794872	3626.373626373626	0.3961538461538461	0.350253807106599	0.3877822045152722
3605.499267578125	-15.93642682760175	-16.94882428873762	22.35731723982552	66.89721728047749	3.887526896615191	-47.8113638439303	3485.189743589744	3630.769230769231	0.3858974358974359	0.350253807106599	0.3811420982735724
3625.030517578125	-16.0132181721705	-16.95126503072319	22.67818278295063	65.87722761020861	2.339349989577302	-46.45175497563469	3492.471794871794	3633.699633699634	0.3935897435897436	0.3312182741116751	0.3957503320053121
3644.561767578125	-16.2647678740491	-16.01412290874887	21.52321259509044	65.88431523817573	-1.047186154332777	-45.08665532876057	3483.733333333333	3635.164835164835	0.4	0.3236040609137056	0.397078353253652
3664.093017578125	-17.0118756101855	-15.05800563371265	22.81243898145036	64.14465673804918	-2.962368990798611	-44.36486842930228	3517.230769230769	3641.025641025641	0.417948717948718	0.3083756345177665	0.4037184594953519
3683.624267578125	-17.80273449282428	-14.71308431609363	23.72655071757199	64.89188856555676	-3.373652113379499	-42.54885018813126	3507.035897435897	3649.81684981685	0.4025641025641026	0.2944162436548223	0.4223107569721115
3703.155517578125	-18.12210358102709	-14.21052153700879	23.78964189729062	65.26432320798268	-3.014870984018264	-41.86835767535811	3489.558974358974	3641.025641025641	0.4128205128205128	0.2982233502538071	0.4143426294820717
3722.686767578125	-18.3684055337438	-13.39406425707261	23.15944662562034	63.88821168981536	1.445560942808397	-42.76794482332741	3502.666666666666	3645.421245421245	0.4051282051282051	0.2715736040609137	0.4262948207171314
3742.218017578125	-18.12804384840684	-12.3583680208014	23.19561515931612	62.91153530156777	3.985032838269636	-41.32710948848795	3496.841025641026	3643.956043956044	0.4141025641025641	0.2576142131979695	0.4196547144754316
3761.749267578125	-18.248755621709	-11.54875682207391	23.12443782910004	61.87917040786422	6.579630729030721	-41.76093300061397	3523.05641025641	3648.351648351648	0.4192307692307692	0.2385786802030457	0.4382470119521912
3781.280517578125	-17.67966815758144	-10.40968900699659	24.03318424185568	60.85738070509572	7.661751312014014	-41.33809104564498	3512.861538461538	3649.81684981685	0.4346153846153846	0.2309644670050761	0.4329349269588313
3800.811767578125	-18.15860637018269	-9.944422950730866	24.13936298173106	60.53185940969026	6.130024005109544	-40.06382326522104	3495.384615384615	3649.81684981685	0.4256410256410256	0.2144670050761421	0.450199203187251
3820.343017578125	-18.07684428373918	-9.370079581115734	24.31557162608202	59.15991046667823	6.831313060611664	-39.57161028423901	3521.6	3649.81684981685	0.4230769230769231	0.199238578680203	0.4448871181938911
3839.874267578125	-18.15489755039378	-8.217399627948433	24.51024496062187	58.50999289617957	6.770762664238369	-37.98654211879496	3499.753846153846	3652.747252747252	0.4307692307692308	0.2043147208121827	0.4581673306772908
3859.405517578125	-18.63671356092252	-7.556919303468253	24.32864390774795	58.22193477717176	8.581470705004101	-36.57764690767276	3507.035897435897	3660.07326007326	0.4141025641025641	0.182741116751269	0.4555112881806109
3878.936767578125	-18.21979297090931	-6.962624483996981	26.02070290906897	57.19665751143533	7.789532451855108	-35.64637077292466	3508.492307692307	3658.608058608058	0.4243589743589744	0.1802030456852792	0.4648074369189907
3898.468017578125	-18.75116189167661	-6.407480335560471	24.88381083233918	55.81537089983168	5.871549216396014	-34.5923226480091	3518.687179487179	3661.538461538461	0.4243589743589744	0.1598984771573604	0.4714475431606905
3917.999267578125	-17.74391722776031	-5.770951292269773	25.60827722396839	56.55787764202785	7.717956856421844	-33.68637083808751	3525.969230769231	3670.32967032967	0.4153846153846154	0.1548223350253807	0.4674634794156706
3937.530517578125	-17.74582550018283	-4.999793167892269	25.41744998171751	56.58071555436636	9.197358567019728	-33.41824099700322	3523.05641025641	3664.468864468864	0.4282051282051282	0.1357868020304568	0.4794156706507304
3957.061767578125	-18.86342494272105	-4.721786961697894	25.65750572789512	57.64998111431144	8.443743915211021	-32.36805635647703	3511.405128205128	3671.794871794872	0.4256410256410256	0.1230964467005076	0.4780876494023904
3976.593017578125	-18.29824635920089	-3.809540407976332	26.17536407991106	56.26509443770863	11.78635565979429	-33.18754205821472	3520.14358974359	3667.399267399267	0.4371794871794872	0.1091370558375635	0.4767596281540504
3996.124267578125	-18.01397963442425	-2.547419030769969	26.60203655757504	56.28736983989102	11.76430526167436	-32.43767851942853	3518.687179487179	3671.794871794872	0.4333333333333334	0.09771573604060913	0.4873837981407702
4015.655517578125	-17.70216668944282	-2.157734720585827	25.78333105571786	57.36833561108342	12.5011175195235	-31.49429580721115	3505.579487179487	3667.399267399267	0.4358974358974359	0.08248730964467005	0.4913678618857901
4035.186767578125	-17.40394187525315	-0.7943263983020068	27.60581247468461	57.36192299530364	10.25445195597675	-30.95916114535483	3530.338461538461	3674.725274725275	0.4320512820512821	0.06979695431472081	0.4900398406374502
4054.718017578125	-17.25642256784524	-0.6294747449378457	26.35774321547596	57.36428553795934	9.125606574673395	-30.50412792973012	3520.14358974359	3670.32967032967	0.4333333333333334	0.06472081218274112	0.4926958831341301
4074.249267578125	-17.64587326855056	0.09463969354376045	27.41267314494375	58.44232625633992	9.489812105108079	-29.53404473543554	3534.707692307692	3676.190476190476	0.4282051282051282	0.0532994923857868	0.4926958831341301
4093.780517578125	-17.49820006820535	0.8747205304258647	26.17999317946502	59.48987892425874	10.25969996013714	-29.71545733139745	3534.707692307692	3676.190476190476	0.4243589743589744	0.04060913705583756	0.4913678618857901
4113.311767578125	-18.248370273794	1.487777053455019	27.16297262059974	59.86467610934039	9.48963570819501	-28.57993160299959	3512.861538461538	3673.260073260073	0.4217948717948718	0.0266497461928934	0.49933598937583
4132.843017578125	-17.33526068848007	1.485536372287945	26.47393115199328	59.8763763205877	10.98006261785286	-28.6867335313084	3525.969230769231	3674.725274725275	0.4217948717948718	0.02791878172588832	0.5086321381142098
4152.374267578125	-17.41973129062004	2.68315937275701	26.02687093799592	59.22589623993291	9.418060112761747	-26.61993166816244	3524.51282051282	3684.981684981685	0.4141025641025641	0.01015228426395939	0.49933598937583
4171.905517578125	-17.38216664019708	2.762142152752898	25.78333598029185	60.28987420441045	9.420684114841937	-25.99807976118375	3528.882051282051	3686.446886446886	0.4192307692307692	-0.002538071065989848	0.5139442231075697
4191.436767578125	-17.25937731224138	3.758124931517642	26.0622687758617	57.8815102945708	9.341060116255033	-24.94952241484672	3539.076923076923	3687.912087912088	0.4166666666666667	-0.01269035532994924	0.5112881806108898
4210.968017578125	-16.74224348817425	5.794281307671378	25.77565118257488	57.20695477923403	10.43140549930504	-24.56935100381356	3544.902564102564	3689.377289377289	0.417948717948718	-0.03553299492385786	0.5152722443559097
4230.499267578125	-17.54035072815983	5.261908081595267	25.96492718401778	56.91540909725828	10.36805470393848	-22.65202161291224	3550.728205128205	3693.772893772893	0.4205128205128205	-0.04314720812182741	0.5112881806108898
4250.030517578125	-16.8205275942348	6.524117485561764	25.94724057651987	56.249628740357	12.57622026923187	-22.3519516481107	3547.815384615385	3690.84249084249	0.4051282051282051	-0.06091370558375634	0.5152722443559097
4269.561767578125	-16.54557139216476	7.064873259932558	25.44286078352434	55.56922311939658	12.92135219745295	-21.91837927292314	3534.707692307692	3695.238095238095	0.4115384615384615	-0.07233502538071066	0.5033200531208499
4289.093017578125	-17.93144808329425	7.103070256434878	26.85519167057554	53.49166810042991	13.61721685188162	-21.71575697346254	3540.533333333333	3696.703296703297	0.4166666666666667	-0.07106598984771573	0.5099601593625498
4308.624267578125	-16.46776435420983	8.527826613136547	25.22356457901663	53.14150886018637	13.23638532440045	-21.6463859474495	3539.076923076923	3695.238095238095	0.4102564102564102	-0.08502538071065989	0.5099601593625498
4328.155517578125	-15.78822977569797	9.521496688839562	25.17702243020339	52.13670696413274	15.0526941631527	-20.90201318724182	3533.251282051282	3695.238095238095	0.4141025641025641	-0.09644670050761421	0.5112881806108898
4347.686767578125	-15.18339359780758	10.27984291840104	25.66064021924203	50.40289856962983	13.88272478151579	-20.23362725193794	3553.641025641025	3696.703296703297	0.4153846153846154	-0.1078680203045685	0.5059760956175299
4367.218017578125	-15.66307049650786	9.59200889378063	25.69295034921385	50.09729013375105	13.45779245779474	-18.66452914835252	3466.25641025641	3595.604395604395	0.4051282051282051	-0.1104060913705584	0.5179282868525896
4386.749267578125	-15.79435471460247	10.83537518482542	24.56452853975301	49.09485078035313	14.14525591524363	-17.46512317252013	3482.276923076923	3600	0.3948717948717949	-0.133248730964467	0.5139442231075697
4406.280517578125	-16.2625819787677	11.52059241393999	25.74180212323007	49.83499497989359	17.12050893657282	-17.01420457822324	3473.538461538461	3604.395604395604	0.3987179487179487	-0.1294416243654822	0.5046480743691899
4425.811767578125	-16.10759886390078	12.0240594679244	25.24011360992203	49.51003619464425	17.09023373838617	-16.22167049550122	3450.235897435897	3604.395604395604	0.3935897435897436	-0.1408629441624365	0.5099601593625498
4445.343017578125	-14.74511328366901	11.46948749342877	25.48867163309954	48.45483338860219	18.20542991854937	-16.92362384871151	3473.538461538461	3602.930402930403	0.3846153846153846	-0.1560913705583756	0.4940239043824701
4464.874267578125	-13.76075249952909	12.3214369476013	23.92475004709123	50.2068671121634	15.97783795721623	-15.85197836774818	3457.517948717949	3602.930402930403	0.3974358974358974	-0.1560913705583756	0.5059760956175299
4484.405517578125	-14.03623193758595	14.0889019492695	24.37680624140508	48.80803018368879	11.82421435727036	-14.6377273503694	3469.169230769231	3608.791208791209	0.3807692307692308	-0.1763959390862944	0.5033200531208499
4503.936767578125	-14.7979748920595	13.63672387174932	24.20251079405062	48.40870755580028	6.610520572461129	-14.59618182674581	3477.907692307692	3608.791208791209	0.3666666666666666	-0.1852791878172589	0.5086321381142098
4523.468017578125	-13.99278857695817	14.46963953965082	24.72114230418355	48.05854831555674	6.229689044979957	-14.52681080073277	3469.169230769231	3610.25641025641	0.3743589743589744	-0.1928934010152284	0.5086321381142098
4542.999267578125	-15.40094896540856	15.22265076275495	23.90510345914388	47.37285509912877	7.331059627089928	-14.52157115909271	3480.820512820513	3605.860805860806	0.3730769230769231	-0.184010152284264	0.5046480743691899
4562.530517578125	-15.52633908400462	15.72929478253697	23.36609159953856	47.70310147984564	6.605096171387681	-14.88577250826724	3453.148717948718	3600	0.3705128205128205	-0.2055837563451776	0.49933598937583
4582.061767578125	-14.3605563783698	15.98108501907657	23.94436216302063	46.67309912879779	8.070848680845407	-14.86456280476855	3456.061538461538	3601.465201465201	0.3871794871794872	-0.2131979695431472	0.49800796812749
4601.593017578125	-14.2764858978668	15.78386614146085	24.35141021332023	47.00334550951467	7.344885225143157	-15.22876415394307	3464.8	3604.395604395604	0.3756410256410256	-0.217005076142132	0.4860557768924302
4621.124267578125	-13.84908581439527	17.17680744176999	23.09141856047315	46.67366163895392	9.572300789563228	-15.34629650247046	3476.451282051281	3607.326007326007	0.3717948717948718	-0.2246192893401015	0.4900398406374502
4640.655517578125	-13.44712361788753	17.17082562329717	23.28763821124699	48.09016138633073	8.826910937821232	-14.3387824058801	3476.451282051281	3611.721611721612	0.3756410256410256	-0.2423857868020304	0.49535192563081
4660.186767578125	-12.49260205871816	17.62829731007457	22.7397941281842	49.48382322136902	6.602119375481351	-13.59939815037402	3476.451282051281	3607.326007326007	0.3615384615384615	-0.2614213197969543	0.4833997343957503
4679.718017578125	-13.17966200186395	18.44992016034413	22.03379981360487	51.27624517413971	8.089569489232876	-12.41982572078963	3476.451282051281	3611.721611721612	0.3653846153846154	-0.2639593908629441	0.4767596281540504
4699.249267578125	-13.17061309715076	18.82539615119919	22.93869028492354	50.95072387873425	6.557842182328406	-11.14555794036568	3477.907692307692	3619.047619047619	0.3641025641025641	-0.2690355329949238	0.4847277556440903
4718.780517578125	-12.94242434315417	18.29646397120109	21.75756568458349	50.30193132854783	9.500196003390757	-10.52395717032546	3464.8	3619.047619047619	0.3743589743589744	-0.2779187817258883	0.4767596281540504
4738.311767578125	-13.65853865729028	20.76127789001702	22.14613427097222	49.60690044352827	7.982294294539515	-9.956882384751875	3458.974358974359	3620.51282051282	0.3641025641025641	-0.2753807106598984	0.4687915006640106
4757.843017578125	-13.5468757887013	19.57619070043447	21.31242112986963	48.21908871411362	10.95229931170832	-10.74966760441236	3488.102564102564	3614.652014652014	0.3743589743589744	-0.2931472081218274	0.4674634794156706
4777.374267578125	-13.90105484374942	21.11237308449461	21.89451562505771	48.58679827122814	13.56877120367628	-10.97924152288862	3479.364102564102	3620.51282051282	0.3576923076923077	-0.2918781725888325	0.4687915006640106
4796.905517578125	-13.11556682462238	21.19595326209937	20.44331753776225	49.67833923335562	12.79310615374763	-9.179193343576236	3477.907692307692	3626.373626373626	0.3666666666666666	-0.3071065989847716	0.4621513944223107
4816.436767578125	-12.66619082970454	21.64362196877081	21.38091702954621	48.63371161824862	12.39582502613304	-9.024481229691528	3488.102564102564	3624.908424908425	0.3602564102564103	-0.3172588832487309	0.451527224435591
4835.968017578125	-12.36538122973999	22.54441965742201	19.46187702600052	48.6806249652691	11.22287884858981	-7.069720936494434	3473.538461538461	3623.443223443223	0.3474358974358974	-0.3210659898477157	0.4541832669322709
4855.499267578125	-12.04498105885728	22.46389240790738	19.50189411427227	47.30575096944524	11.55156117667746	-6.550807473435204	3493.928205128205	3632.234432234432	0.358974358974359	-0.3223350253807106	0.4395750332005312
4875.030517578125	-11.88190317548843	23.72841451493562	19.80968245115745	48.74160106619261	10.41151419940107	-4.766729355981449	3477.907692307692	3626.373626373626	0.3487179487179487	-0.3350253807106599	0.4355909694555112
4894.561767578125	-11.84726249087415	24.11804280809058	19.27375091258512	48.79200197618103	11.11262685799012	-3.32040324256347	3476.451282051281	3633.699633699634	0.3538461538461539	-0.3413705583756345	0.4409030544488711
4914.093017578125	-12.7341647245378	23.59535252562933	18.5835275462202	47.40835282192169	10.32348900383438	-2.721388333272628	3492.471794871794	3638.095238095238	0.3474358974358974	-0.3591370558375635	0.4276228419654714
4933.624267578125	-13.33416866419699	24.75520265853127	18.58313358030071	47.07810644120482	11.04945245953663	-2.357186984098105	3496.841025641026	3638.095238095238	0.35	-0.3540609137055837	0.4262948207171314
4953.155517578125	-12.89587296076469	23.9063701519108	18.41270392353122	46.04754158000085	11.01375286027653	-1.854243582897506	3499.753846153846	3641.025641025641	0.3487179487179487	-0.3578680203045685	0.4276228419654714
4972.686767578125	-11.98197852147053	24.94179830668523	17.80214785294729	47.11680713994593	10.26013820846783	-0.8040589423713112	3466.25641025641	3639.560439560439	0.3576923076923077	-0.383248730964467	0.4236387782204515
4992.218017578125	-12.14194776750594	25.90490570671946	17.80522324940628	45.36184836357289	12.11512344238651	-1.849003941257448	3496.841025641026	3649.81684981685	0.3551282051282051	-0.3769035532994924	0.4103585657370518
5011.749267578125	-11.98082432444079	27.05601718306981	17.91756755592162	45.04273968394722	12.83006169902878	-1.109870822689828	3495.384615384615	3642.490842490842	0.3602564102564103	-0.383248730964467	0.4249667994687915
5031.280517578125	-13.28216947182713	27.74422193577617	15.78305281728722	46.10143005295723	13.58892435499787	-0.916351649258643	3502.666666666666	3641.025641025641	0.3628205128205128	-0.3857868020304568	0.4090305444887118
5050.811767578125	-12.02220551970876	26.51935065182892	17.77944802912393	46.12078040232778	13.19426722946347	-0.1397876283952471	3483.733333333333	3641.025641025641	0.3435897435897436	-0.4048223350253807	0.4063745019920318
5070.343017578125	-11.59468232188739	27.60447529895242	16.53176781126077	45.09842818940319	12.77493570372894	0.7647880242756537	3474.994871794872	3641.025641025641	0.3538461538461539	-0.3946700507614213	0.3930942895086321
5089.874267578125	-11.87848736785213	28.18804147229988	16.15126321478653	45.10427829502685	13.52014915855786	0.711387060121246	3499.753846153846	3646.886446886447	0.3461538461538462	-0.4010152284263959	0.398406374501992
5109.405517578125	-11.52032248572797	27.68629494135448	15.9677514272031	44.40924741000728	12.00224744970662	1.278461845694827	3501.210256410256	3649.81684981685	0.3525641025641026	-0.4124365482233502	0.3957503320053121
5128.936767578125	-13.41613142703074	28.68260043360874	14.38685729692596	44.06201322257556	11.99402264963991	1.321132389630662	3511.405128205128	3649.81684981685	0.3525641025641026	-0.4098984771573604	0.3824701195219123
5148.468017578125	-11.92617817354937	28.42697841682333	15.38218264506256	43.35933219943276	12.36120497598093	1.00484122603203	3495.384615384615	3643.956043956044	0.3551282051282051	-0.4124365482233502	0.3811420982735724
5167.999267578125	-12.49054112450185	29.47544653574687	14.94588754981514	43.34346941303014	14.62992093764762	-0.280156974610482	3502.666666666666	3642.490842490842	0.3461538461538462	-0.4365482233502538	0.3784860557768924
5187.530517578125	-12.81915917823634	30.10273538540331	14.08408217636623	42.68826424706393	15.32560919516322	0.876578457286068	3495.384615384615	3645.421245421245	0.3384615384615385	-0.4352791878172588	0.3665338645418326
5207.061767578125	-12.65843585680816	29.25425098460701	14.1564143191838	42.71402721221427	17.17761763317556	1.118007816293145	3491.015384615384	3648.351648351648	0.3512820512820513	-0.4340101522842639	0.3652058432934927
5226.593017578125	-12.02659208399354	30.48685800483347	13.3407916006466	43.09343698057611	21.28451643480137	0.7816319695080676	3479.364102564102	3643.956043956044	0.3448717948717949	-0.4454314720812183	0.3625498007968127
5246.124267578125	-11.95237075147768	29.91497138206938	12.762924852232	41.39236667715944	25.71467316344139	0.6745789042607937	3499.753846153846	3646.886446886447	0.3525641025641026	-0.432741116751269	0.3545816733067729
5265.655517578125	-12.23428291431364	30.76585651268755	12.57170856863563	41.45683034105089	26.77736735038493	2.469136304994663	3498.297435897436	3649.81684981685	0.3435897435897436	-0.4454314720812183	0.3519256308100929
5285.186767578125	-11.52132340539216	31.18884433175377	11.86765946078377	41.45863037355048	24.14706986036375	3.405903218321283	3505.579487179487	3655.677655677655	0.3435897435897436	-0.4441624365482233	0.349269588313413
5304.718017578125	-10.60418182512099	30.10560825875681	11.58181748790094	40.76539952103051	19.99887066149132	4.909744917221485	3515.774358974359	3658.608058608058	0.3371794871794872	-0.449238578680203	0.3426294820717131
5324.249267578125	-10.5702028801371	31.14975106278462	10.97971198628998	41.12737147455259	14.7354752824557	7.115539969331987	3509.948717948718	3663.003663003663	0.3371794871794872	-0.4555837563451776	0.3386454183266932
5343.780517578125	-11.41329241012345	31.08434841114776	10.67075898765532	40.12324459068631	10.91858241375112	9.760147038270109	3512.861538461538	3665.934065934066	0.3384615384615385	-0.4631979695431472	0.3333333333333333
5363.311767578125	-12.60700606830631	31.66692228283552	11.29939316936964	41.88112841987118	9.43620390724691	10.77839155507904	3504.123076923077	3668.864468864469	0.341025641025641	-0.4606598984771573	0.3280212483399734
5382.843017578125	-13.61472780032822	32.2231827706392	10.52721996717771	41.53974433806311	10.17319256200913	10.76766113486047	3492.471794871794	3665.934065934066	0.3461538461538462	-0.4606598984771573	0.3280212483399734
5402.374267578125	-12.62322638389763	33.2217663400443	9.677361610237204	38.39877386477502	12.36788532307543	9.866697829640465	3515.774358974359	3665.934065934066	0.341025641025641	-0.4581218274111675	0.3160690571049137
5421.905517578125	-11.98282616376917	32.0611159638684	9.717383623082956	36.7347167296311	11.50437147449317	12.75797389922572	3512.861538461538	3674.725274725275	0.35	-0.465736040609137	0.3200531208499336
5441.436767578125	-12.31812317098244	32.38745824884611	8.187682901755979	37.34717112373212	8.222486523196267	11.03827830308341	3527.425641025641	3670.32967032967	0.3474358974358974	-0.482233502538071	0.296148738379814
5460.968017578125	-11.42331084034162	32.13292856412965	9.668915965838227	38.05165217937452	5.22500670683407	12.29133638000866	3518.687179487179	3673.260073260073	0.3576923076923077	-0.4708121827411167	0.300132802124834
5480.499267578125	-12.48297082313023	32.54780053136153	7.702917686976841	38.01182646032116	3.011416740467228	11.70167573368569	3527.425641025641	3673.260073260073	0.3538461538461539	-0.4746192893401015	0.3041168658698539
5500.030517578125	-12.87763849440999	33.31564564858486	8.236150559000706	39.0506039698045	2.663484413252892	11.60036458395539	3527.425641025641	3670.32967032967	0.3692307692307693	-0.4746192893401015	0.2934926958831341
5519.561767578125	-13.19648434662599	33.50998765163071	8.351565337401031	39.41190091113923	3.033290741674096	11.90592532733545	3502.666666666666	3668.864468864469	0.3641025641025641	-0.483502538071066	0.2828685258964143
5539.093017578125	-13.16547553533197	32.98020721376221	7.452446466802829	37.3237707012375	5.241632703880558	11.25188215970104	3523.05641025641	3668.864468864469	0.3692307692307693	-0.4720812182741117	0.2802124833997344
5558.624267578125	-13.36608729053632	33.55974816344169	7.391270946367694	39.09920484729334	5.994894561863125	12.10992378404675	3515.774358974359	3673.260073260073	0.367948717948718	-0.483502538071066	0.2841965471447543
5578.155517578125	-12.81606716134012	33.37192014064583	6.393283865987566	37.31207048999018	3.751205794222705	11.35868408800985	3524.51282051282	3671.794871794872	0.3666666666666666	-0.482233502538071	0.2709163346613546
5597.686767578125	-14.46602043944436	34.66760372076188	5.397956055563968	37.28338247202802	1.526590628795893	11.14395521107998	3514.317948717948	3668.864468864469	0.3730769230769231	-0.4809644670050761	0.2656042496679947
5617.218017578125	-13.10545852092882	33.92266695229196	5.454147907117608	36.22356708270576	-2.235176244608839	11.91390343305262	3517.230769230769	3668.864468864469	0.3833333333333334	-0.4847715736040609	0.2549800796812749
5636.749267578125	-12.91483441735518	34.31475199229796	4.516558264481633	33.46043134934236	-7.572594824244848	14.50373338058563	3549.271794871795	3676.190476190476	0.3730769230769231	-0.4873096446700507	0.2563081009296149
5656.280517578125	-14.33819881243898	34.08158080056337	6.180118756101853	34.11394898484021	-12.77263940791392	14.79219904179482	3527.425641025641	3674.725274725275	0.391025641025641	-0.4809644670050761	0.2443559096945551
5675.811767578125	-14.97898376491069	34.2041582179444	6.101623508931329	34.1163115274959	-13.90148478921728	15.24723225741952	3509.948717948718	3670.32967032967	0.4	-0.4936548223350253	0.2416998671978752
5695.343017578125	-14.78471239872306	34.47717490732567	5.528760127694203	33.73453921647837	-16.87953820953972	15.12857488857989	3530.338461538461	3673.260073260073	0.3923076923076923	-0.4847715736040609	0.2270916334661355
5714.874267578125	-16.31713948732723	34.9280031898928	4.286051267277559	33.7374642692902	-16.50693148212526	15.10187440650269	3530.338461538461	3679.120879120879	0.3961538461538461	-0.4885786802030456	0.2191235059760956
5734.405517578125	-18.1457286091895	34.85795512605063	5.427139081049869	32.04573163446514	-9.457502462524033	14.43298619732189	3515.774358974359	3670.32967032967	0.4051282051282051	-0.4847715736040609	0.2177954847277556
5753.936767578125	-18.04648490064056	35.72387282657004	3.351509935943603	30.27603509200173	-2.330897049503023	11.13957560238942	3525.969230769231	3664.468864468864	0.408974358974359	-0.4911167512690355	0.2138114209827357
5773.468017578125	-18.27039543098025	34.55617630836697	4.960456901975123	30.94282796718403	5.598495418813879	7.494070235751696	3486.646153846154	3649.81684981685	0.4102564102564102	-0.5012690355329948	0.199203187250996
5792.999267578125	-16.05698778582535	34.48371150983745	2.301221417464755	31.90240404668554	9.459489083758333	3.34973608924119	3521.6	3646.886446886447	0.4230769230769231	-0.4885786802030456	0.201859229747676
5812.530517578125	-15.65931920226826	35.21283547121401	2.068079773174122	30.17557077811854	12.037637374386	3.001253664986838	3508.492307692307	3646.886446886447	0.4128205128205128	-0.4885786802030456	0.1845949535192563
5832.061767578125	-16.50259340377937	35.60915779935561	1.740659622063569	29.14208086410275	11.62933104771144	3.530897548264642	3482.276923076923	3642.490842490842	0.4115384615384615	-0.4923857868020304	0.1912350597609562
5851.593017578125	-17.35008427177246	35.54820049910557	0.9915728227535015	26.43564615447633	16.37434450638588	4.649950940926956	3517.230769230769	3652.747252747252	0.4153846153846154	-0.4898477157360406	0.1872509960159363
5871.124267578125	-15.50762939625954	35.95039799791444	1.237060374046017	26.81393090252592	17.47833909057604	5.277042489545704	3502.666666666666	3655.677655677655	0.4076923076923077	-0.4949238578680203	0.1925630810092961
5890.655517578125	-16.15466240198559	35.69467056446698	0.5337598014411764	25.79157868960132	17.05900756484151	6.181618142216603	3507.035897435897	3657.142857142857	0.4102564102564102	-0.4885786802030456	0.1885790172642762
5910.186767578125	-16.3925310217383	36.42568710118646	0.7468978261699251	24.39622932409466	14.77944280102793	6.887434979816262	3511.405128205128	3654.212454212454	0.4141025641025641	-0.5012690355329948	0.1739707835325365
5929.718017578125	-18.14203579426608	35.62499461374719	1.796420573392772	23.66249774033398	14.05085534324548	5.90138172366305	3511.405128205128	3655.677655677655	0.4217948717948718	-0.5012690355329948	0.1752988047808765
5949.249267578125	-16.47024572393084	35.73187125809322	0.9754276069155792	25.42679418529863	14.81514240028802	6.384491578615662	3485.189743589744	3654.212454212454	0.4166666666666667	-0.5012690355329948	0.1699867197875166
5968.780517578125	-16.24596585054164	35.97611781673935	-0.5965850541641582	22.91650343516987	10.33038886708737	5.503864093520564	3515.774358974359	3654.212454212454	0.4269230769230769	-0.4898477157360406	0.1699867197875166
5988.311767578125	-15.92465771132886	35.62544274998061	-0.4657711328859358	23.5132075448995	2.182566061282501	4.881138303168092	3489.558974358974	3643.956043956044	0.4282051282051282	-0.4923857868020304	0.1673306772908366
6007.843017578125	-16.00304954244552	35.62461849940844	-0.3049542445518823	23.78787792219163	-5.622925215294552	5.024246113460444	3509.948717948718	3646.886446886447	0.4230769230769231	-0.4949238578680203	0.1646746347941567
6027.374267578125	-16.64852822950484	36.4827058194922	-0.8528229504846396	21.29108741580977	-11.24754932885853	4.973583613383151	3509.948717948718	3648.351648351648	0.4371794871794872	-0.4936548223350253	0.1620185922974768
6046.905517578125	-18.0831883661864	36.49171255754057	-0.3188366186397589	21.98668081098546	-8.228195511289467	3.924775130107657	3508.492307692307	3646.886446886447	0.4320512820512821	-0.498730964467005	0.1553784860557769
6066.436767578125	-18.09860843850377	36.04574836904265	-1.860843850376668	19.45051459367513	-7.430303666327817	0.4207502795731275	3495.384615384615	3632.234432234432	0.4333333333333334	-0.4999999999999999	0.1447543160690571
6085.968017578125	-18.41830070187491	35.35632986273981	-1.830070187490843	14.13591236675492	-8.199662330617665	-2.260176521772815	3488.102564102564	3629.304029304029	0.4371794871794872	-0.5076142131979695	0.1420982735723771
6105.499267578125	-17.46671849780795	36.16292414432449	-2.6718497807949	11.69402285161046	-1.111556915850011	-4.718382490047426	3501.210256410256	3623.443223443223	0.4256410256410256	-0.498730964467005	0.1420982735723771
6125.030517578125	-18.87032365531429	37.52671919955974	-3.032365531429246	10.64759520400388	1.121459446556579	-5.500437289489339	3483.733333333333	3619.047619047619	0.4320512820512821	-0.4911167512690355	0.1460823373173971
6144.561767578125	-17.86198635154318	37.43137544582783	-2.198635154317682	7.52890013289817	3.294101809502944	-5.651537055923147	3453.148717948718	3616.117216117216	0.4358974358974359	-0.498730964467005	0.1460823373173971
6164.093017578125	-18.06427553976409	37.20491829516173	-2.427553976408828	4.769139460471495	6.965395882173872	-5.952109294601607	3482.276923076923	3617.582417582417	0.4256410256410256	-0.4936548223350253	0.151394422310757
6183.624267578125	-17.57510344683245	35.15239294283924	-1.510344683245245	4.11449680466141	9.162536248407294	-5.277107560406969	3454.605128205128	3616.117216117216	0.4243589743589744	-0.4898477157360406	0.1447543160690571
6203.155517578125	-15.87458218067523	35.42409723325121	-3.458218067523296	3.381327731056852	9.93540089934268	-6.744894514262094	3476.451282051281	3614.652014652014	0.4256410256410256	-0.498730964467005	0.1447543160690571
6222.686767578125	-15.46974218624	36.22290114656394	-2.974218624000157	1.259896919912756	5.042164642554399	-6.141764983643435	3480.820512820513	3611.721611721612	0.4243589743589744	-0.4796954314720812	0.1407702523240372
6242.218017578125	-17.18703778256283	36.89121585269614	-2.703778256282217	-1.100316120562957	-0.3421551323147467	-1.719946733080775	3482.276923076923	3626.373626373626	0.4243589743589744	-0.4961928934010152	0.1434262948207171
6261.749267578125	-17.36590446572681	36.102640433461	-0.5904465726811718	-1.069828070101206	-0.7478374569091172	-0.5684509428242814	3464.8	3626.373626373626	0.4243589743589744	-0.4974619289340101	0.1447543160690571
6281.280517578125	-18.24449648077631	35.80232606096869	-0.4496480776309844	4.048458112332821	-3.539168080864369	-3.244495861602746	3479.364102564102	3620.51282051282	0.4294871794871795	-0.4999999999999999	0.148738379814077
6300.811767578125	-15.2008025824466	35.80665676211722	-0.08025824466022291	5.971435340397474	-15.34708336336713	-4.895694315105807	3460.430769230769	3614.652014652014	0.4192307692307692	-0.4974619289340101	0.1447543160690571
6320.343017578125	-16.77704237472807	35.80019741385996	-1.704237472807118	5.562775043917354	-23.18004943913757	-4.29231364754869	3473.538461538461	3614.652014652014	0.4166666666666667	-0.4873096446700507	0.1434262948207171
6339.874267578125	-18.29965109393255	36.70264760487188	-1.96510939325555	-0.3261433885188798	-22.95828951191713	-3.218683113323611	3482.276923076923	3620.51282051282	0.417948717948718	-0.4974619289340101	0.1407702523240372
6359.405517578125	-18.58419482599634	37.13311369733322	-2.419482599633365	-5.181121898814419	-13.69211733312967	-5.538398166510604	3491.015384615384	3614.652014652014	0.4307692307692308	-0.5038071065989848	0.1288180610889774
6378.936767578125	-18.56948266119054	36.3490236416486	-0.9482661190540385	-6.919205370503834	-3.968290027267382	-8.643780366590409	3477.907692307692	3607.326007326007	0.4076923076923077	-0.5063451776649746	0.1394422310756972
6398.468017578125	-17.25268727847111	37.03136799740967	-1.268727847111676	-5.878177820396017	1.689586080389574	-10.67202630712836	3460.430769230769	3595.604395604395	0.4269230769230769	-0.498730964467005	0.1420982735723771
6417.999267578125	-16.97363752426892	37.33722005335775	-1.363752426891621	-6.621359574779525	5.476380147820572	-13.4782124257804	3552.184615384615	3696.703296703297	0.4205128205128205	-0.4961928934010152	0.1420982735723771
6437.530517578125	-16.08838194503436	36.97695807217702	-0.8381945034367371	-9.07134923617213	5.813463672888007	-13.95608263909296	3546.358974358974	3690.84249084249	0.4166666666666667	-0.5088832487309645	0.1460823373173971
6457.061767578125	-15.37063636576288	36.43357349865128	-1.063636576288422	-10.11766438174749	0.9118262191199472	-12.35616943210251	3527.425641025641	3696.703296703297	0.4128205128205128	-0.5063451776649746	0.1540504648074369
6476.593017578125	-15.92604274776455	36.08838009831912	-0.6042747764551191	-11.89422354811557	-2.844339856298265	-12.2507436610444	3550.728205128205	3693.772893772893	0.4012820512820513	-0.5012690355329948	0.1447543160690571
6496.124267578125	-15.69140587969512	36.43755070772284	-1.140587969511962	-9.203651624891759	-5.320637353306021	-14.65479525434922	3544.902564102564	3684.981684981685	0.417948717948718	-0.5114213197969543	0.147410358565737
6515.655517578125	-15.95755940575166	35.8879042305784	0.2440594248343802	-10.00477192535572	-7.484525725446467	-17.4087054291591	3536.164102564102	3680.58608058608	0.4	-0.5025380710659898	0.147410358565737
6535.186767578125	-14.56286464931493	36.80233944965423	-0.2864649314930199	-12.16490343524093	-11.58844773116595	-18.35870394026724	3537.620512820513	3676.190476190476	0.4051282051282051	-0.5203045685279187	0.147410358565737
6554.718017578125	-15.61158284426158	34.86000636501188	-1.15828442615786	-11.05986222936656	-13.50398336145792	-15.72869077593705	3504.123076923077	3680.58608058608	0.4205128205128205	-0.5126903553299492	0.1593625498007968
6574.249267578125	-14.2528522516999	35.69384231267843	-1.285225169990139	-12.09920224900601	-14.65750314296141	-15.14564592850483	3539.076923076923	3682.051282051282	0.4	-0.515228426395939	0.1540504648074369
6593.780517578125	-12.92057523948819	35.66824253034461	-0.05752394881890255	-11.70617973486605	-18.82512873787358	-12.27008878383975	3525.969230769231	3689.377289377289	0.4038461538461539	-0.5139593908629442	0.1646746347941567
6613.311767578125	-13.47467353152281	36.05249718991497	0.5326468477186293	-14.48686578510042	-26.39818768199637	-9.520055943843516	3534.707692307692	3695.238095238095	0.3961538461538461	-0.5101522842639593	0.1699867197875166
6632.843017578125	-13.66896028700417	34.8179575821819	1.103971299582765	-16.50996982095459	-21.62569942412854	-8.861275408445968	3550.728205128205	3701.098901098901	0.3935897435897436	-0.5203045685279187	0.1620185922974768
6652.374267578125	-14.59221141688612	35.17659506951652	0.7788583113882004	-17.51308418653986	-15.30503425922282	-9.562103741344025	3547.815384615385	3698.168498168498	0.3987179487179487	-0.515228426395939	0.1567065073041169
6671.905517578125	-15.46453998938754	36.2161084662045	1.546001061245695	-21.30284721001439	-10.16798767709416	-9.841466276523796	3562.379487179487	3698.168498168498	0.3948717948717949	-0.5050761421319797	0.1620185922974768
6691.436767578125	-16.01491407233953	35.28890936690907	2.508592766047032	-22.9622917618781	-6.15453847210849	-8.422091782121482	3457.517948717949	3595.604395604395	0.3961538461538461	-0.5241116751269035	0.1766268260292165
6710.968017578125	-15.04660370598816	36.2709158968942	3.339629401184113	-21.59214285136566	-4.225530037589428	-9.851071676430129	3540.533333333333	3698.168498168498	0.3923076923076923	-0.5114213197969543	0.1633466135458167
6730.499267578125	-13.4131015828812	36.10723259871001	2.689841711880411	-22.32407440262675	-7.584414985393049	-9.900358019256721	3539.076923076923	3695.238095238095	0.3807692307692308	-0.5126903553299492	0.1872509960159363
6750.030517578125	-13.80524540998925	34.5648363256276	3.475459001074788	-25.12298578191944	-11.75991258654579	-8.890356595527706	3536.164102564102	3699.6336996337	0.3769230769230769	-0.5203045685279187	0.1872509960159363
6769.561767578125	-13.17720279272591	35.30128251296086	2.279720727408824	-25.48304520091071	-16.261468513706	-7.777416727879231	3530.338461538461	3701.098901098901	0.3794871794871795	-0.5101522842639593	0.1899070385126162
6789.093017578125	-12.89990741800892	34.99352187680439	2.009258199107913	-27.55756266503433	-22.32765094803752	-5.219526904063479	3432.758974358974	3592.673992673992	0.382051282051282	-0.516497461928934	0.197875166002656
6808.624267578125	-13.05449041123886	33.48965069996662	2.550958876113723	-32.6769738677806	-22.53922454151791	-1.58001458988119	3477.907692307692	3607.326007326007	0.3769230769230769	-0.5114213197969543	0.1912350597609562
6828.155517578125	-14.55786251328096	34.29574883072147	4.213748671903951	-36.12175274444789	-23.39976159419384	0.02488712181085173	3480.820512820513	3614.652014652014	0.382051282051282	-0.5063451776649746	0.1925630810092961
6847.686767578125	-15.4296832390893	35.06551853301865	5.031676091070146	-35.40095889427799	-20.02985144733025	-0.3007583047556528	3477.907692307692	3616.117216117216	0.3705128205128205	-0.5101522842639593	0.2031872509960159
6867.218017578125	-14.42667063094873	34.28324502956591	5.33293690512685	-35.73413032780668	-19.67649471904246	0.09014352649607371	3456.061538461538	3613.186813186813	0.3705128205128205	-0.515228426395939	0.2031872509960159
6886.749267578125	-14.38578189308011	34.05117817354937	5.421810691988826	-38.10154349828075	-14.53962453382688	0.7648941237522537	3476.451282051281	3616.117216117216	0.382051282051282	-0.5012690355329948	0.2111553784860558
6906.280517578125	-14.11308791718837	33.2480649502064	4.691208281163626	-39.74928783889715	-9.035748419183353	2.077466689845753	3466.25641025641	3619.047619047619	0.382051282051282	-0.5012690355329948	0.2244355909694555
6925.811767578125	-14.93721783729946	34.77889770798014	6.278216270053788	-40.71662655855313	-3.877004232760899	2.956466880751691	3472.082051282051	3624.908424908425	0.3692307692307693	-0.4885786802030456	0.2390438247011952
6945.343017578125	-13.04925743579895	33.40590385631077	7.074256420105557	-42.77606875049271	0.5559528948723743	2.517152590047155	3479.364102564102	3621.978021978022	0.3794871794871795	-0.4999999999999999	0.250996015936255
6964.874267578125	-12.65489755039378	32.40760037205156	6.510244960621874	-42.03412451845267	0.9009084261803805	3.904838097670669	3479.364102564102	3621.978021978022	0.3846153846153846	-0.4936548223350253	0.252324037184595
6984.405517578125	-12.84339793143269	32.70567806459317	7.660206856730598	-42.68167954629563	-0.2884873514962738	5.944939478739431	3493.928205128205	3632.234432234432	0.382051282051282	-0.4784263959390863	0.2443559096945551
7003.936767578125	-14.40629520605033	33.3395889273416	7.370479394966838	-44.30939852535413	-0.8124700698439749	9.934310374426772	3489.558974358974	3636.630036630037	0.3782051282051282	-0.4809644670050761	0.2642762284196547
7023.468017578125	-15.63281822289361	32.95376178973793	8.718177710639417	-42.89706135313262	2.20128294973857	9.550024342065802	3491.015384615384	3643.956043956044	0.3794871794871795	-0.4771573604060914	0.2589641434262948
7042.999267578125	-15.02747419831013	31.44236432490862	9.252580168986755	-46.69852458785446	5.84790262220937	9.377463735194846	3492.471794871794	3638.095238095238	0.3807692307692308	-0.4733502538071066	0.2868525896414342
7062.530517578125	-13.75881591080612	32.4794809929911	8.118408919388417	-47.3818552616267	5.820427823015982	9.837736592459612	3479.364102564102	3636.630036630037	0.382051282051282	-0.4784263959390863	0.2948207171314741
7082.061767578125	-12.38297242361678	31.52680214785295	9.702757638322048	-45.35987624608478	-1.954964652287494	10.14242345246589	3480.820512820513	3636.630036630037	0.3935897435897436	-0.4568527918781726	0.2921646746347941
7101.593017578125	-12.13574711327628	30.40171996902442	10.42528867237178	-48.53763488358318	-8.735908946348221	11.00706702527807	3502.666666666666	3641.025641025641	0.3782051282051282	-0.4416243654822335	0.3027888446215139
7121.124267578125	-13.00659831357964	30.74743352748466	11.34016864203641	-50.62677761176594	-16.66512501775205	13.69845925947984	3493.928205128205	3641.025641025641	0.3807692307692308	-0.449238578680203	0.3107569721115538
7140.655517578125	-11.96729836639569	28.23774058082888	11.2701633604308	-49.93163422471515	-22.28187712507546	15.51335248033861	3499.753846153846	3648.351648351648	0.3897435897435898	-0.4416243654822335	0.3320053120849933
7160.186767578125	-13.68263952241481	29.01946591763896	11.73604775851859	-47.94599336525863	-30.3968007306135	14.71994451424281	3509.948717948718	3648.351648351648	0.3884615384615385	-0.4428934010152284	0.3280212483399734
7179.718017578125	-16.75543395961603	29.77375752998142	12.4566040383969	-46.24143549887402	-32.95289862312123	14.31856339971096	3477.907692307692	3639.560439560439	0.3923076923076923	-0.4225888324873096	0.3240371845949535
7199.249267578125	-16.35094791893659	29.45753432120288	12.90520810634125	-50.32341921651164	-22.2460011289023	14.05629594670206	3505.579487179487	3642.490842490842	0.3935897435897436	-0.4200507614213198	0.3320053120849933
7218.780517578125	-16.47452210087251	28.42388270649662	12.54778991274886	-52.96595277240273	-17.93974559200213	17.45164043780016	3514.317948717948	3655.677655677655	0.3987179487179487	-0.4060913705583756	0.3532536520584329
7238.311767578125	-16.81857500064635	29.64214536603743	14.14249993536496	-51.15553049463617	-5.580549188871353	15.60730827078707	3493.928205128205	3651.282051282051	0.4012820512820513	-0.3984771573604061	0.350597609561753
7257.843017578125	-16.6844899310929	27.39595021501921	15.55100689071016	-51.17026826072654	-0.3089290097690203	13.35884267474073	3508.492307692307	3646.886446886447	0.408974358974359	-0.4010152284263959	0.3399734395750332
7277.374267578125	-15.45268838650027	26.58413834728834	14.73116134997347	-50.84587198563332	-1.780105920300196	13.04804228972061	3491.015384615384	3643.956043956044	0.3961538461538461	-0.3870558375634517	0.3665338645418326
7296.905517578125	-15.12377793618491	26.22578494631599	15.62220638150921	-48.82693052493445	-2.793451306843484	10.99746162537174	3496.841025641026	3639.560439560439	0.4102564102564102	-0.3781725888324873	0.3572377158034528
7316.436767578125	-15.63643347577664	25.9927978105344	16.35665242233639	-45.74333608757068	-9.43737439876341	11.46896717673199	3499.753846153846	3643.956043956044	0.3987179487179487	-0.3705583756345177	0.3691899070385126
7335.968017578125	-15.71531776429266	26.22324017270481	16.46822357073473	-46.07819505156774	-13.5883739966291	13.30507010108946	3486.646153846154	3642.490842490842	0.4051282051282051	-0.366751269035533	0.3824701195219123
7355.499267578125	-15.06274461282384	25.62721821279823	17.72553871761631	-46.41597906837664	-18.11198032190924	15.16787350752412	3528.882051282051	3652.747252747252	0.408974358974359	-0.3591370558375635	0.3784860557768924
7375.030517578125	-15.58084796239595	25.01511798048145	17.9152037604047	-44.28914815973378	-21.10963653518451	17.37504471688533	3493.928205128205	3652.747252747252	0.4141025641025641	-0.3401015228426396	0.3851261620185923
7394.561767578125	-16.93599284951856	24.21612200878298	18.40071504814386	-43.2222451424444	-20.73440580568985	17.97019614178681	3499.753846153846	3660.07326007326	0.4115384615384615	-0.3464467005076142	0.3904382470119522
7414.093017578125	-17.1216769898049	23.47289375970295	19.83230101950993	-42.893236284071	-17.32861966265309	16.18749418158376	3508.492307692307	3655.677655677655	0.4192307692307692	-0.3350253807106599	0.3944223107569721
7433.624267578125	-17.2175818371862	23.25898842478883	18.24181628138031	-42.4944761663386	-13.61637798656169	16.62768235566207	3511.405128205128	3654.212454212454	0.4217948717948718	-0.3286802030456852	0.4050464807436919
7453.155517578125	-17.80747501086484	23.13939591481964	19.25249891351586	-40.0240111352632	-11.34521441972788	16.9186491944342	3508.492307692307	3655.677655677655	0.4320512820512821	-0.3223350253807106	0.399734395750332
7472.686767578125	-18.52097314506687	22.06310595344061	19.90268549331304	-40.69159152466406	-6.506751364413305	16.28195224590913	3517.230769230769	3655.677655677655	0.4282051282051282	-0.3071065989847716	0.401062416998672
7492.218017578125	-18.0832622347963	21.67640254945195	19.67377652036988	-40.29868151255533	-3.539723143150826	16.77554138414185	3486.646153846154	3651.282051282051	0.4397435897435897	-0.3007614213197969	0.4050464807436919
7511.749267578125	-18.24064607948509	21.17536023258763	19.93539205149134	-40.66234099654578	-2.780684090268671	16.01494742513708	3512.861538461538	3652.747252747252	0.4269230769230769	-0.2956852791878172	0.4169986719787516
7531.280517578125	-16.91592521049476	20.04200753952278	20.40747895052403	-40.64355315733134	-4.676793324520896	17.27324514370239	3514.317948717948	3658.608058608058	0.4282051282051282	-0.2982233502538071	0.4143426294820717
7550.811767578125	-18.23325921849473	20.70636104144891	20.67407815052699	-39.21884076167518	-5.805815102737324	18.68239149176305	3493.928205128205	3658.608058608058	0.4320512820512821	-0.2753807106598984	0.4116865869853917
7570.343017578125	-19.02619565578705	20.24568838157569	21.38043442129484	-40.24591805991119	-3.967455865865135	18.67690071318454	3523.05641025641	3664.468864468864	0.441025641025641	-0.2639593908629441	0.4276228419654714
7589.874267578125	-18.43901099780487	20.13724726162907	20.09890021951289	-41.92291292864588	-2.189647025366242	20.25647810005007	3514.317948717948	3665.934065934066	0.4435897435897436	-0.2652284263959391	0.4342629482071713
7609.405517578125	-17.99437490535584	18.43585711594786	20.56250946441564	-43.60755793550381	1.473245850324908	20.9526895377434	3508.492307692307	3668.864468864469	0.4346153846153846	-0.2512690355329949	0.4289508632138114
7628.936767578125	-18.88289301486114	17.95326040654821	19.71069851388668	-42.20928351718532	4.125417341552959	20.22017221806654	3518.687179487179	3665.934065934066	0.4294871794871795	-0.2309644670050761	0.4329349269588313
7648.468017578125	-19.38888499026781	18.05969691709356	21.11150097321893	-43.1947350638684	5.547069054770808	21.74110899913762	3504.123076923077	3668.864468864469	0.4320512820512821	-0.2423857868020304	0.4329349269588313
7667.999267578125	-18.58960816395877	18.66781193790605	21.03918360412334	-46.62961376178796	8.807256401773914	22.30244186919422	3540.533333333333	3674.725274725275	0.4448717948717949	-0.2296954314720812	0.4355909694555112
7687.530517578125	-17.0678304666157	15.84312415589724	21.21695333843026	-48.76746986949078	4.681283997934498	22.10230689687228	3525.969230769231	3673.260073260073	0.4461538461538462	-0.2055837563451776	0.450199203187251
7707.061767578125	-18.02667641732317	15.19771241226563	21.3323582676826	-46.71331527301874	1.004565524190121	22.11328845402931	3511.405128205128	3671.794871794872	0.441025641025641	-0.1967005076142132	0.447543160690571
7726.593017578125	-18.73561932058115	15.73220628301773	22.4380679418851	-48.1402777092994	-3.872221132464741	22.6310768967763	3514.317948717948	3668.864468864469	0.4448717948717949	-0.199238578680203	0.4541832669322709
7746.124267578125	-18.25414187451447	15.91822175479807	22.58581254855322	-49.84652310615238	-5.820479566110482	24.47765910441387	3512.861538461538	3673.260073260073	0.45	-0.1802030456852792	0.4555112881806109
7765.655517578125	-17.65396865262424	14.33512372376587	22.60313473757561	-48.47806172610829	-8.395827457744888	24.49388030321097	3511.405128205128	3671.794871794872	0.4461538461538462	-0.1751269035532995	0.4594953519256308
7785.186767578125	-18.00710123569873	13.25486455574802	23.28987643012706	-48.8410461979114	-13.26999011231956	25.63352065293665	3536.164102564102	3677.655677655677	0.4384615384615385	-0.1624365482233502	0.4634794156706507
7804.718017578125	-19.51236622086961	12.79364372923215	24.76337791303941	-47.08079982607082	-15.88121400012713	27.10679838537028	3514.317948717948	3680.58608058608	0.4384615384615385	-0.1408629441624365	0.4541832669322709
7824.249267578125	-19.44587031380617	12.5372520938673	23.41296861938337	-50.14031882875261	-11.88963879634833	28.32192328612284	3536.164102564102	3679.120879120879	0.4551282051282051	-0.1421319796954315	0.4661354581673307
7843.780517578125	-18.84054167851642	12.0643317106862	23.94583214835771	-55.28324295602473	-7.947412392969778	29.79307145049041	3540.533333333333	3684.981684981685	0.4538461538461538	-0.1319796954314721	0.4754316069057105
7863.311767578125	-19.19893740004654	9.143234466354693	24.10625999534627	-55.93372303667952	-9.509414898060898	31.85987331363637	3515.774358974359	3683.516483516483	0.458974358974359	-0.1142131979695431	0.4621513944223107
7882.843017578125	-21.4082367193473	8.943857548079231	23.1763280652703	-53.96461997581295	-9.722420834475413	27.88123283816761	3540.533333333333	3683.516483516483	0.4576923076923077	-0.09517766497461928	0.4701195219123506
7902.374267578125	-21.75333609109477	8.778561759698023	24.66639089052302	-52.85620370900186	-2.629243812460448	27.62084381628633	3533.251282051282	3683.516483516483	0.4551282051282051	-0.09517766497461928	0.4701195219123506
7921.905517578125	-21.34994269027015	8.19421134794208	25.00573097298502	-51.74193733656711	5.209146664383444	27.30705383025063	3552.184615384615	3682.051282051282	0.4576923076923077	-0.07741116751269035	0.4648074369189907
7941.436767578125	-21.46931559501781	7.656316443275678	25.06844049821915	-50.66277159787429	8.576256412253773	27.31366962914139	3543.446153846154	3689.377289377289	0.4666666666666667	-0.06218274111675126	0.4727755644090305
7960.968017578125	-19.11679058125978	6.755650794764684	24.32094187402201	-48.7888981744973	11.8605889687178	30.60933026469835	3523.05641025641	3689.377289377289	0.4602564102564102	-0.04314720812182741	0.4847277556440903
7980.499267578125	-18.674647554395	7.287547876092793	24.53524456050023	-48.85741191151282	7.422383836924147	29.80494074144551	3552.184615384615	3684.981684981685	0.4666666666666667	-0.04314720812182741	0.4714475431606905
8000.06103515625	-19.78662990472181	5.5214192806921	25.33700952781953	-46.45658563776518	2.252438054528656	30.25498545236862	3537.620512820513	3687.912087912088	0.4576923076923077	-0.03299492385786802	0.4767596281540504
8019.561767578125	-20.62496414294561	4.56659839975968	25.50358570543907	-45.07462401397419	-1.462780417469078	31.10117163618351	3530.338461538461	3692.307692307692	0.4576923076923077	-0.005076142131979695	0.4767596281540504
8039.093017578125	-19.4935297253442	3.697695791828408	26.6470274655803	-46.84825812753044	-4.846339765472827	31.17989692516442	3540.533333333333	3690.84249084249	0.4743589743589743	-0.008883248730964466	0.4687915006640106
8058.624267578125	-21.42442564077942	3.420208358725668	25.55743592205877	-45.84109368882111	-7.791493985528438	30.89055738058145	3527.425641025641	3679.120879120879	0.4576923076923077	0.01776649746192893	0.4873837981407702
8078.155517578125	-23.4239411858128	2.708949828440153	25.60588141872052	-47.29629413493903	-6.256789882717637	28.3299152422643	3540.533333333333	3683.516483516483	0.4512820512820513	0.02030456852791878	0.4714475431606905
8097.686767578125	-23.09707751156352	1.46804828667915	26.29224884364846	-45.25631479440123	-3.16043606864186	25.61069750567308	3536.164102564102	3679.120879120879	0.4461538461538462	0.03045685279187817	0.4674634794156706
8117.218017578125	-21.57688491147463	1.606499914435527	26.31150885253732	-44.19121180961145	-0.1549078491260243	25.26908201724795	3507.035897435897	3674.725274725275	0.4564102564102564	0.03807106598984771	0.4820717131474103
8136.749267578125	-20.13100597966397	1.547700654845227	26.89940203360283	-45.25518977408899	-0.1575318512062145	24.64723011026926	3534.707692307692	3677.655677655677	0.4576923076923077	0.05076142131979695	0.4687915006640106
8156.280517578125	-20.22197086375797	-0.0173478891429148	25.80291362420329	-44.99525716288723	-2.691402948680935	22.54187232451528	3524.51282051282	3671.794871794872	0.4564102564102564	0.07233502538071066	0.4608233731739708
8175.811767578125	-21.58602615195019	-0.5381135865303052	25.39738480498071	-42.2115335578098	-1.880391093318332	22.14710700887419	3504.123076923077	3665.934065934066	0.4602564102564102	0.0748730964467005	0.4674634794156706
8195.343017578125	-21.9965140171843	-1.215828534951548	24.3485982815699	-41.48545211217237	0.7332803996563614	22.24979431585519	3528.882051282051	3673.260073260073	0.4564102564102564	0.09137055837563451	0.4608233731739708
8214.874267578125	-21.5049411944308	-1.270778624394124	25.50588055692007	-42.81757533613105	3.648159421525324	23.33166794316018	3527.425641025641	3676.190476190476	0.4525641025641026	0.09644670050761421	0.4594953519256308
8234.405517578125	-20.47245870436921	-2.735124400894795	24.75412956307948	-43.51148120083836	5.133161930109728	22.93527533332994	3534.707692307692	3676.190476190476	0.4564102564102564	0.1142131979695431	0.4648074369189907
8253.936767578125	-20.0391029642242	-3.232813698441249	24.08970357757989	-43.83295242311976	6.976945568055367	23.21937523627285	3528.882051282051	3674.725274725275	0.4474358974358975	0.1053299492385787	0.4608233731739708
8273.468017578125	-20.31513641685534	-3.080173757437645	24.48635831446606	-43.13960906856855	3.990490950753141	24.09750154380501	3504.123076923077	3674.725274725275	0.4512820512820513	0.1142131979695431	0.4528552456839309
8292.999267578125	-19.19733691349863	-3.858382025058694	24.26630865013733	-47.32633217727589	2.784998366769205	24.31471774787354	3537.620512820513	3676.190476190476	0.4423076923076923	0.1421319796954315	0.4435590969455511
8312.530517578125	-19.67856813086563	-5.660030803210329	24.14318691343707	-49.08882858974095	-0.609586180294513	24.76837480624755	3514.317948717948	3677.655677655677	0.4461538461538462	0.1357868020304568	0.4621513944223107
8332.061767578125	-20.71195858925729	-6.925537209465523	24.80414107427119	-47.39833347725936	-3.527265601156735	24.01876240439981	3518.687179487179	3676.190476190476	0.4423076923076923	0.1675126903553299	0.4435590969455511
8351.593017578125	-21.23774119640063	-6.337573699327672	24.22588035993711	-47.71395459391709	-0.9382685083821695	24.24946134318832	3507.035897435897	3670.32967032967	0.4461538461538462	0.1560913705583756	0.4594953519256308
8371.124267578125	-21.83375930898378	-6.143287713311	24.62406910162227	-47.32048207165223	3.530211821598132	24.26131678371913	3533.251282051282	3677.655677655677	0.4448717948717949	0.1776649746192893	0.4448871181938911
8390.655517578125	-20.72108444043913	-7.10862779207956	23.89155595608757	-48.63685501123952	11.31102869797506	24.24622060523429	3547.815384615385	3679.120879120879	0.4474358974358975	0.1814720812182741	0.4342629482071713
8410.186767578125	-19.60362350154447	-8.040340263440085	23.63764984555304	-48.22808221272818	12.00934095757085	26.02480794410952	3514.317948717948	3682.051282051282	0.4371794871794872	0.199238578680203	0.4422310756972112
8429.718017578125	-19.82958080795023	-9.090584922431804	25.04191920497677	-48.55067845532179	10.85022037808084	27.27237524245626	3521.6	3684.981684981685	0.4346153846153846	0.2017766497461929	0.4289508632138114
8449.249267578125	-18.34742992638993	-9.838326543576939	25.25700736100697	-48.86157448666812	11.18152670824869	28.41314061249418	3531.794871794872	3687.912087912088	0.4346153846153846	0.2208121827411168	0.4342629482071713
8468.780517578125	-18.51306243251795	-10.71565309700303	24.6937567482053	-48.18994402414318	9.718574597784222	28.05966968353823	3536.164102564102	3684.981684981685	0.4294871794871795	0.2284263959390863	0.4329349269588313
8488.311767578125	-19.60420829470621	-11.57821116080827	23.57917052937939	-47.89367325685601	7.524234630544058	27.05240672388633	3523.05641025641	3683.516483516483	0.4243589743589744	0.232233502538071	0.4276228419654714
8507.843017578125	-19.28351572724262	-11.3898029616388	23.64842727573798	-46.47661099932308	8.280296887519887	27.57818712277478	3509.948717948718	3682.051282051282	0.4243589743589744	0.2614213197969543	0.4196547144754316
8527.374267578125	-18.08644720302664	-12.3603806326354	23.35527969733568	-50.53564430259097	13.33194227616205	29.96601751728251	3546.358974358974	3689.377289377289	0.4141025641025641	0.2601522842639594	0.4156706507304117
8546.905517578125	-15.56785878291616	-13.46107801387006	23.21412170838396	-52.50418485330142	15.04640032129439	33.46292429504936	3568.205128205128	3699.6336996337	0.4102564102564102	0.2779187817258883	0.4090305444887118
8566.436767578125	-16.06084742069281	-13.86623641279257	21.91525793071863	-51.0448218320282	9.752553347159044	37.41536656231785	3537.620512820513	3705.494505494505	0.4269230769230769	0.2817258883248731	0.4183266932270916
8585.968017578125	-19.38009770354803	-13.91071670403187	21.99022964519675	-52.82430605120811	5.623780544326369	37.54749281545317	3525.969230769231	3704.029304029304	0.4115384615384615	0.2855329949238579	0.4130146082337317
8605.499267578125	-21.01452318427879	-14.43840850695534	22.547681572121	-56.37528684535101	11.25191064453589	33.4494415603294	3559.466666666666	3693.772893772893	0.4102564102564102	0.3032994923857868	0.399734395750332
8625.030517578125	-19.4233256140636	-16.83013343748807	21.66743859364016	-56.41173750346765	18.04703333047598	29.96937872779495	3525.969230769231	3682.051282051282	0.4025641025641026	0.3109137055837563	0.3957503320053121
8644.561767578125	-16.1813129652953	-17.67225852043636	21.8687034704704	-55.4427112533433	17.39264547020699	27.64517744378328	3524.51282051282	3686.446886446886	0.3961538461538461	0.3324873096446701	0.399734395750332
8664.093017578125	-15.13082500156971	-19.15478982533767	22.9174998430292	-54.84600714361367	9.244822664402125	27.02245165343081	3539.076923076923	3684.981684981685	0.4	0.3388324873096447	0.4023904382470119
8683.624267578125	-14.60125662816881	-18.20811542093412	23.87433718311905	-51.07840702029031	-3.004827335781241	28.93391865625674	3536.164102564102	3686.446886446886	0.391025641025641	0.3553299492385786	0.3784860557768924
8703.155517578125	-14.96810107195665	-19.00529484040071	23.18989280433559	-49.00130200944854	-12.33679791510238	31.59499806093041	3543.446153846154	3689.377289377289	0.3782051282051282	0.3540609137055837	0.3837981407702523
8722.686767578125	-16.57622686527474	-19.28878009684175	22.37731347252641	-45.80993062617201	-13.83037801757964	33.94228747956839	3536.164102564102	3692.307692307692	0.3871794871794872	0.3565989847715736	0.3598937583001328
8742.218017578125	-17.53798139249717	-19.66202340896248	22.20186075028347	-43.62111109832464	-7.501840846433346	35.1070148676064	3540.533333333333	3702.564102564103	0.3858974358974359	0.3807106598984771	0.3532536520584329
8761.749267578125	-17.46885391620591	-21.49799600617049	21.11460837940888	-45.65715286776959	-0.08802989948436446	34.45409672028423	3541.989743589743	3696.703296703297	0.3897435897435898	0.383248730964467	0.349269588313413
8781.280517578125	-17.0232482982519	-22.62344229568866	21.67517017481006	-43.88531878671292	5.925826938540567	33.4386045179767	3537.620512820513	3692.307692307692	0.3769230769230769	0.4035532994923858	0.350597609561753
8800.811767578125	-16.62342521357262	-22.28110976506088	21.65747864273816	-41.80551372712176	11.23577071898319	31.30904742770845	3539.076923076923	3696.703296703297	0.3846153846153846	0.3883248730964466	0.349269588313413
8820.343017578125	-16.6458474145371	-22.22000180362522	19.41525854629037	-38.99197708376993	17.27430195720825	30.16554359359342	3550.728205128205	3693.772893772893	0.3692307692307693	0.416243654822335	0.3306772908366534
8839.874267578125	-14.695900169036	-21.57560236773518	18.40998309639977	-38.96801415111919	21.75660788524178	29.47020603927387	3541.989743589743	3692.307692307692	0.3641025641025641	0.4187817258883249	0.3200531208499336
8859.405517578125	-14.78378719438402	-21.83606724136445	17.62128056159841	-40.34581319975488	21.71268348591497	30.01581998441031	3549.271794871795	3695.238095238095	0.3641025641025641	0.4175126903553299	0.3293492695883134
8878.936767578125	-12.29960861948186	-23.90354914047716	18.0391380518139	-39.32863608026658	15.75359984936375	31.06487960462426	3540.533333333333	3692.307692307692	0.3551282051282051	0.4302030456852792	0.3173970783532537
8898.468017578125	-12.22500255462276	-25.43736280444639	17.49974453772408	-38.32372168218173	6.802637194436845	32.70247485084894	3530.338461538461	3696.703296703297	0.3538461538461539	0.4416243654822335	0.3147410358565737
8917.999267578125	-12.88753196356308	-25.94820810141668	19.24680364369229	-37.97176240943859	4.553171231896835	33.56987073816252	3547.815384615385	3704.029304029304	0.3397435897435898	0.4352791878172588	0.3227091633466135
8937.530517578125	-12.42841516128596	-24.85499299479349	17.1584838714046	-33.74926365480197	4.596742837397503	34.93248305789799	3550.728205128205	3706.959706959707	0.3282051282051282	0.449238578680203	0.3041168658698539
8957.061767578125	-11.96372743467861	-23.69048144482076	15.62725653213962	-34.79096621709714	4.572068437197375	35.06049468970549	3543.446153846154	3706.959706959707	0.3384615384615385	0.4631979695431472	0.2934926958831341
8976.593017578125	-12.87185088882405	-25.15481521767233	16.81491111759513	-36.24020405556017	-0.282667821337549	34.82841959366629	3521.6	3698.168498168498	0.332051282051282	0.4670050761421319	0.2881806108897742
8996.124267578125	-13.51949946629929	-26.87145938519156	16.05005337007065	-35.59264902771722	0.9067279563391053	32.78831821259752	3543.446153846154	3698.168498168498	0.3282051282051282	0.4720812182741117	0.2934926958831341
9015.655517578125	-13.42948871841655	-26.92083177901466	17.05112815834475	-35.30234086808493	5.101828350444665	29.45248821066767	3553.641025641025	3692.307692307692	0.3243589743589744	0.482233502538071	0.2788844621513944
9035.186767578125	-12.72408535271646	-26.60559687067945	15.59146472835434	-34.27706360234849	5.893766603593658	28.52121207591957	3537.620512820513	3689.377289377289	0.3243589743589744	0.4809644670050761	0.2762284196547145
9054.718017578125	-11.36678596447166	-27.19339232972978	15.32140355283391	-34.29112635625152	5.532185075239164	28.17298078860368	3518.687179487179	3683.516483516483	0.3115384615384615	0.5012690355329948	0.2656042496679947
9074.249267578125	-9.408697782587446	-26.90336908574053	15.13022174125549	-34.99785745251839	2.523856456730068	28.84685750248608	3531.794871794872	3690.84249084249	0.3051282051282052	0.4898477157360406	0.2602921646746348
9093.780517578125	-9.858520067023454	-29.23520242461401	14.14799329765479	-32.91141477308501	-4.188841831629862	30.94610176322622	3531.794871794872	3696.703296703297	0.3038461538461538	0.4949238578680203	0.2416998671978752
9113.311767578125	-10.65217980112108	-28.88745224702155	14.78201988789207	-29.06776327665411	-6.750716919037178	32.16335623204486	3540.533333333333	3696.703296703297	0.2961538461538462	0.5012690355329948	0.2363877822045153
9132.843017578125	-10.95268223078277	-29.55625248537094	12.73177692172266	-26.28572720204505	-10.44406138982804	33.2137920095095	3537.620512820513	3701.098901098901	0.2871794871794872	0.5190355329949238	0.2350597609561753
9152.374267578125	-9.868369215010596	-28.60987016976238	13.1630784989406	-28.01019792795633	-8.994758480503737	33.32034280087986	3556.553846153846	3701.098901098901	0.2910256410256411	0.5139593908629442	0.2270916334661355
9171.905517578125	-10.47046609861706	-28.21713693270446	12.95339013829435	-29.03491268353665	-8.285244624934908	33.76988523792605	3536.164102564102	3702.564102564103	0.2871794871794872	0.5266497461928934	0.2244355909694555
9191.436767578125	-11.90568024987289	-28.82295525532069	13.43197501271155	-30.46783772747218	-6.772590920244046	31.9591066383951	3555.097435897435	3701.098901098901	0.2833333333333333	0.5177664974619289	0.2138114209827357
9210.968017578125	-10.86796539994312	-28.36950879221129	13.20346000568788	-30.15401664331404	-6.73129052299743	30.79164078627997	3521.6	3690.84249084249	0.2782051282051282	0.5317258883248731	0.2177954847277556
9230.499267578125	-10.91448661931689	-30.05483005295148	12.55133806831123	-29.13402697304515	-5.183113615959542	29.43203191798436	3517.230769230769	3687.912087912088	0.2782051282051282	0.5291878172588832	0.201859229747676
9250.030517578125	-9.984248750081562	-29.88206260857147	13.57512499184367	-28.46183400036409	-5.144613617706185	28.5968272913265	3527.425641025641	3689.377289377289	0.2705128205128205	0.5418781725888324	0.1938911022576361
9269.561767578125	-9.517129515064887	-30.79692995901523	12.28704849351126	-28.1608381477655	-9.596644347553067	28.49963076292402	3525.969230769231	3684.981684981685	0.2769230769230769	0.5456852791878172	0.1925630810092961
9289.093017578125	-9.715756051378081	-31.18093254195429	12.42439486219195	-28.54553551159487	-12.94730449528998	28.40767387616159	3544.902564102564	3690.84249084249	0.2679487179487179	0.5482233502538071	0.1885790172642762
9308.624267578125	-9.255192655490347	-31.70456311026244	10.4807344509654	-27.86276734797875	-14.42128180481441	28.42913471659874	3540.533333333333	3687.912087912088	0.2628205128205128	0.5406091370558376	0.1726427622841965
9328.155517578125	-9.803104451445549	-30.78809527327076	11.68955485544529	-27.55130880647631	-13.25113602626444	26.80663564885891	3541.989743589743	3687.912087912088	0.2487179487179487	0.5482233502538071	0.1593625498007968
9347.686767578125	-10.37597768183066	-30.46180100288949	10.40223181693389	-27.54725873335224	-9.875625081414329	25.81646777137788	3531.794871794872	3684.981684981685	0.2628205128205128	0.5532994923857868	0.1567065073041169
9367.218017578125	-9.337431810039483	-31.08611694878319	10.25681899605172	-26.51500634167991	-5.335569156000763	23.86832327707154	3514.317948717948	3679.120879120879	0.2461538461538462	0.5723350253807106	0.1606905710491368
9386.749267578125	-8.263337285303962	-31.59095241876607	9.666271469603682	-26.57013233697976	-3.778991051983094	21.51193073240415	3539.076923076923	3674.725274725275	0.2628205128205128	0.5621827411167513	0.1593625498007968
9406.280517578125	-7.902879398414041	-31.82578411529412	9.712060158595904	-24.48436466973373	-4.858487632886197	21.71094068441385	3509.948717948718	3671.794871794872	0.2384615384615385	0.5647208121827411	0.1434262948207171
9425.811767578125	-8.024068239821828	-32.82338338547226	9.593176017817108	-23.45143726587405	-5.951633414929459	21.66303049883796	3520.14358974359	3673.260073260073	0.2487179487179487	0.5685279187817258	0.1394422310756972
9445.343017578125	-7.866545891489475	-32.66863480344178	9.345410851052565	-22.09118853410933	-8.143349380089433	21.27761944616475	3523.05641025641	3673.260073260073	0.2358974358974359	0.5609137055837563	0.1288180610889774
9464.874267578125	-7.75309786482783	-33.3170634642162	8.690213517216925	-22.80264471568762	-8.89398723599181	21.04142972879772	3525.969230769231	3673.260073260073	0.2333333333333333	0.583756345177665	0.1235059760956175
9484.405517578125	-7.917099105820477	-33.27296067235209	8.290089417952286	-21.36510708847189	-5.529677887114739	21.38030675314575	3520.14358974359	3673.260073260073	0.2333333333333333	0.5723350253807106	0.1195219123505976
9503.936767578125	-7.390208469528584	-32.63127406116074	8.979153047141715	-21.37804482206267	-2.888355198033588	20.06860807042603	3523.05641025641	3671.794871794872	0.2320512820512821	0.5685279187817258	0.1155378486055777
9523.468017578125	-6.962038921370558	-32.16218684326189	7.796107862944179	-20.26310343744057	-0.6831664286465242	21.65505239312078	3514.317948717948	3677.655677655677	0.2230769230769231	0.5786802030456852	0.1128818061088977
9542.999267578125	-6.972657534044196	-32.61300050599997	6.734246595580441	-18.86246647646637	0.8401596812781675	21.37756828906863	3527.425641025641	3674.725274725275	0.2346153846153846	0.5799492385786802	0.09428950863213811
9562.530517578125	-7.378159268109814	-32.75728990843985	6.184073189018691	-18.8630289866225	-0.6612924274396554	21.85930198677054	3530.338461538461	3680.58608058608	0.217948717948718	0.5888324873096447	0.09561752988047809
9582.061767578125	-6.374177134464262	-31.96361955572955	6.582286553573824	-18.17148566457088	-1.0174495547207	21.80066138097608	3517.230769230769	3676.190476190476	0.2333333333333333	0.5774111675126903	0.1062416998671979
9601.593017578125	-6.853238461415348	-32.19053684627819	6.67615385846528	-16.80426180687027	0.5389521523838988	20.39838196874463	3498.297435897436	3670.32967032967	0.2205128205128205	0.5862944162436548	0.08764940239043824
9621.124267578125	-6.747377356562549	-32.86976425448721	5.262264343745113	-15.13199202344699	1.018834074491724	17.90873815062968	3514.317948717948	3668.864468864469	0.2128205128205128	0.5875634517766497	0.09163346613545816
9640.655517578125	-5.82460329478623	-33.03561221072744	5.53967052137696	-15.16248007390874	1.424516399086094	16.75724236037319	3524.51282051282	3667.399267399267	0.1974358974358974	0.581218274111675	0.08233731739707835
9660.186767578125	-6.253788536330429	-33.96521203984473	6.621146366957093	-13.45972224002372	1.498715996599548	15.41909433251472	3518.687179487179	3660.07326007326	0.1987179487179487	0.5799492385786802	0.07171314741035856
9679.718017578125	-6.18224494092358	-33.84208645582103	5.775505907642076	-11.054845893152	-0.2957188409458335	14.87897116595681	3498.297435897436	3661.538461538461	0.2064102564102564	0.5888324873096447	0.07835325365205843
9699.249267578125	-4.74229088719894	-35.08720928085214	5.770911280106074	-9.016554083082575	-1.703721353023523	13.60495452247133	3511.405128205128	3657.142857142857	0.2102564102564103	0.6002538071065989	0.07968127490039841
9718.780517578125	-3.609517601043025	-35.30361799217732	7.048239895697522	-7.636955001947298	-4.290094443717899	13.99610749066151	3501.210256410256	3661.538461538461	0.1948717948717949	0.5862944162436548	0.0743691899070385
9738.311767578125	-5.060336496140981	-34.89367552351299	5.966350385901929	-5.892571416509328	-4.632602369858784	14.18438702245264	3507.035897435897	3661.538461538461	0.2076923076923077	0.5926395939086294	0.07171314741035856
9757.843017578125	-5.797888096442858	-34.83028686874656	4.21119035571429	-4.079674094055838	-0.536905164206015	15.17705607749661	3517.230769230769	3667.399267399267	0.2064102564102564	0.598984771573604	0.05710491367861886
9777.374267578125	-5.712878869022337	-33.37460772690282	4.712113097766336	-3.011083546298096	4.342681891442107	14.32700640929236	3523.05641025641	3664.468864468864	0.191025641025641	0.5862944162436548	0.06772908366533864
9796.905517578125	-5.197761042433823	-32.29795365483414	4.223895756617703	-1.304275639289001	7.792392433805671	11.99869050395287	3530.338461538461	3658.608058608058	0.1974358974358974	0.5926395939086294	0.05843293492695883
9816.436767578125	-5.8824972022264	-32.28637013344364	3.750279777360009	0.01603487139113619	10.52174031845351	8.641650798524331	3504.123076923077	3651.282051282051	0.1871794871794872	0.5901015228426395	0.06640106241699867
9835.968017578125	-5.44164687603493	-32.52239819366626	3.835312396506999	0.007822223111771443	10.90537224492794	8.240018547054032	3491.015384615384	3649.81684981685	0.2	0.5926395939086294	0.07171314741035856
9855.499267578125	-4.845798045682811	-32.29343628155267	3.420195431718935	1.649041445917173	10.28948438291231	5.080612636384495	3498.297435897436	3642.490842490842	0.182051282051282	0.5939086294416244	0.06905710491367861
9875.030517578125	-4.597941774299387	-32.99607880795762	4.205822570061298	1.194592822728815	6.632368702120749	2.765765615340694	3496.841025641026	3630.769230769231	0.1923076923076923	0.6078680203045684	0.06374501992031872
9894.561767578125	-2.793897960364566	-34.55662459849332	4.610203963543378	3.874702057048775	-1.466105303283864	1.887016561373214	3477.907692307692	3629.304029304029	0.1782051282051282	0.5875634517766497	0.07038512616201859
9914.093017578125	-2.517356661040341	-33.97900823388771	4.264333895965912	5.524246430164766	-9.600278907948574	1.511210908606335	3467.71282051282	3629.304029304029	0.1794871794871795	0.5913705583756345	0.06374501992031872
9933.624267578125	-3.281638848979321	-34.08246783945396	3.836115102067951	5.825804792919473	-12.55085752907763	0.9322806825019391	3482.276923076923	3629.304029304029	0.1846153846153846	0.5977157360406091	0.05046480743691899
9953.155517578125	-4.472182312653816	-33.42617278729657	4.7817687346184	5.787104094178357	-11.76154327800883	-0.6208473592248545	3507.035897435897	3630.769230769231	0.1807692307692308	0.5926395939086294	0.06108897742363877
9972.686767578125	-5.54723097360059	-33.53575825512494	5.276902639941003	6.146601003013513	-8.761439459566445	-1.252053529171417	3470.625641025641	3627.838827838828	0.191025641025641	0.5875634517766497	0.06108897742363877
9992.218017578125	-6.429285579739318	-33.17872925677099	5.071442026068231	5.837392502135563	-3.92577680324513	-1.556489252239233	3467.71282051282	3623.443223443223	0.1833333333333333	0.5939086294416244	0.05710491367861886
10011.74926757813	-5.667804243259181	-33.0724407912313	5.219575674081844	5.119411202746268	0.211573593480394	-3.639512314182289	3486.646153846154	3620.51282051282	0.182051282051282	0.5862944162436548	0.0597609561752988
10031.28051757813	-4.355656427246191	-33.77001777771211	4.434357275380946	6.144125958326581	-0.4979402620884355	-4.089054751228481	3463.343589743589	3619.047619047619	0.1769230769230769	0.5951776649746192	0.06772908366533864
10050.81176757813	-4.437880192501598	-33.19004869788108	4.211980749840258	7.507862253059249	-0.815597391116123	-4.982899983680809	3467.71282051282	3616.117216117216	0.1858974358974359	0.5951776649746192	0.06374501992031872
10070.34301757813	-4.278880471971172	-33.72909995407834	4.111952802882845	7.84159619674407	0.3324979893139148	-5.855535512634448	3476.451282051281	3617.582417582417	0.191025641025641	0.598984771573604	0.06905710491367861
10089.87426757813	-4.994871671757445	-33.57210268844806	4.512832824255496	6.478422412167521	2.151607227059425	-5.443423977884033	3476.451282051281	3616.117216117216	0.1923076923076923	0.5850253807106599	0.06374501992031872
10109.40551757813	-4.682304651383251	-33.06779537902599	3.769534861674871	6.156951189886136	3.995390865005064	-5.159324074941122	3480.820512820513	3619.047619047619	0.1935897435897436	0.5926395939086294	0.06241699867197875
10128.93676757813	-4.436910666996613	-33.61410484171804	4.308933300338687	6.534673427779608	3.597933340477403	-4.050498828620462	3470.625641025641	3623.443223443223	0.1858974358974359	0.598984771573604	0.06905710491367861
10148.46801757813	-4.711574472485791	-32.88592516740474	4.842552751421047	6.209714642530274	3.567658142290755	-3.257964745898435	3467.71282051282	3624.908424908425	0.1846153846153846	0.5939086294416244	0.06241699867197875
10167.99926757813	-4.909785497868275	-33.30880895484535	5.021450213172496	5.848417701195531	3.197851813869551	-3.563525489278493	3474.994871794872	3619.047619047619	0.1871794871794872	0.5888324873096447	0.06640106241699867
10187.53051757813	-4.947965720040432	-32.84870846891301	5.203427995956924	5.819729683233367	0.9732366484427398	-3.778254366208366	3473.538461538461	3620.51282051282	0.1794871794871795	0.6040609137055837	0.06374501992031872
10207.06176757813	-5.151409105291086	-33.18938449596369	4.859089470891458	6.52826081199983	1.351267776930653	-3.515364166764142	3466.25641025641	3619.047619047619	0.1884615384615385	0.5939086294416244	0.0650730411686587
10226.59301757813	-4.591324377995527	-32.54122391668606	4.867562200447397	5.139886572429067	2.819820685381638	-3.826415688722717	3492.471794871794	3624.908424908425	0.1897435897435897	0.598984771573604	0.0743691899070385
10246.12426757813	-4.746661446618234	-33.15971809276173	5.333855338176651	4.815490297335853	4.290997595912813	-3.515615303702601	3480.820512820513	3621.978021978022	0.1974358974358974	0.5951776649746192	0.06772908366533864
10265.65551757813	-4.034656073908006	-33.35115121150675	4.534392609199349	4.831915593894583	3.523733742963949	-2.712350800762001	3486.646153846154	3623.443223443223	0.1948717948717949	0.5913705583756345	0.06374501992031872
10285.18676757813	-4.551959180206167	-33.96405968953023	4.80408197938327	4.48704394911857	2.386663561593879	-2.214647041201458	3489.558974358974	3624.908424908425	0.2025641025641026	0.5888324873096447	0.07304116865869853
10304.71801757813	-4.592971032424626	-33.42417618032805	4.702896757537368	4.83371562639417	0.8934362529427663	-1.77558388743538	3457.517948717949	3621.978021978022	0.1935897435897436	0.5926395939086294	0.0650730411686587
10324.24926757813	-4.31498313948979	-33.46340549065377	4.501686051021048	4.128672060595656	2.389463960587139	-2.54690826665872	3488.102564102564	3626.373626373626	0.2	0.5875634517766497	0.07038512616201859
10343.78051757813	-4.954613894931752	-33.22660919688816	4.538610506824844	4.825502978114804	1.277068179417199	-2.177216138905681	3473.538461538461	3626.373626373626	0.1884615384615385	0.5977157360406091	0.07702523240371846
10363.31176757813	-4.436125813016388	-33.57643600577652	4.387418698361224	4.495256597397935	2.003031635119447	-1.813014789731158	3476.451282051281	3624.908424908425	0.1858974358974359	0.5926395939086294	0.0650730411686587
10382.84301757813	-4.87849967928712	-34.53117686238154	4.150032071288132	4.1363221987189	0.504379925394884	-1.663542317486507	3488.102564102564	3623.443223443223	0.191025641025641	0.5901015228426395	0.07038512616201859
10402.37426757813	-4.116433549645246	-33.88701749947369	4.356645035475399	4.1363221987189	0.504379925394884	-1.663542317486507	3485.189743589744	3627.838827838828	0.1935897435897436	0.5913705583756345	0.06772908366533864
10421.90551757813	-4.55836112639781	-32.95759372387667	4.163887360219045	5.172174655390406	-0.2161591292339146	-1.738152985139603	3502.666666666666	3626.373626373626	0.2025641025641026	0.5862944162436548	0.07304116865869853
10441.43676757813	-4.395591028903557	-33.92352998388433	4.440897109644408	4.482993875994501	-0.9888473832562292	-1.22447916372043	3488.102564102564	3630.769230769231	0.2	0.58248730964467	0.07968127490039841
10460.96801757813	-5.308300492580514	-32.9216934255706	5.169950741948629	5.199737653040328	-0.9944481812427484	-0.5599567128059061	3476.451282051281	3629.304029304029	0.182051282051282	0.5901015228426395	0.0650730411686587
10480.49926757813	-4.871497550640011	-33.03824901231512	4.850244935999005	4.519332032079908	-0.649316253021673	-0.1263843376183445	3486.646153846154	3624.908424908425	0.2064102564102564	0.5939086294416244	0.07569721115537847
10500.03051757813	-4.434556105055937	-32.5010983338935	4.544389494406299	5.208512811475814	0.1233720010006418	-0.6400581590375178	3486.646153846154	3632.234432234432	0.1935897435897436	0.5913705583756345	0.07569721115537847
10519.56176757813	-4.556960700668388	-34.45900815386338	4.303929933161219	5.222575565378834	0.4849535293551363	-0.2918268717216253	3476.451282051281	3626.373626373626	0.1948717948717949	0.5939086294416244	0.06241699867197875
10539.09301757813	-4.829808569497435	-33.27112411403835	5.019143050256508	4.172660354804308	0.8439110556294402	-0.5654474913844221	3492.471794871794	3630.769230769231	0.2038461538461538	0.6002538071065989	0.06772908366533864
10558.62426757813	-4.955244855974678	-33.64904884931173	4.475514402532215	4.542169944418416	0.8300854575762118	0.1417455034659362	3492.471794871794	3630.769230769231	0.1935897435897436	0.5964467005076142	0.07038512616201859
10578.15551757813	-4.583491227487002	-33.12605847562274	5.650877251299779	4.886479079038307	0.4657035302284577	0.1257754416073057	3486.646153846154	3629.304029304029	0.191025641025641	0.5951776649746192	0.06640106241699867
10597.68676757813	-5.124355342485655	-32.83055495024334	3.564465751434589	4.564445346600802	0.8080350594562737	0.891609042252129	3476.451282051281	3624.908424908425	0.2102564102564103	0.583756345177665	0.0743691899070385
10617.21801757813	-4.835641111821071	-33.68831016936841	4.435888817892947	4.223061264792738	1.545023714218491	0.8808786220335558	3469.169230769231	3629.304029304029	0.1884615384615385	0.583756345177665	0.07304116865869853
10636.74926757813	-4.588538915830412	-34.50557569501129	5.146108416958755	3.850626622366802	1.186242584857256	0.2003861092604014	3492.471794871794	3629.304029304029	0.1769230769230769	0.5799492385786802	0.07968127490039841
10656.28051757813	-5.309346964554147	-33.30525187349262	5.065303544585246	4.55038259269778	0.4464535311017792	0.5433777549362365	3482.276923076923	3630.769230769231	0.1961538461538462	0.5939086294416244	0.06772908366533864
10675.81176757813	-4.756356701668077	-32.91915665439216	4.364329833192366	4.544532487074124	-0.2987599237271477	0.5967787190906443	3474.994871794872	3627.838827838828	0.1935897435897436	0.5977157360406091	0.07304116865869853
10695.34301757813	-4.470381765287417	-32.92799134013662	4.961823471258339	3.480554522596574	-0.3013839258073379	-0.02507318788804486	3488.102564102564	3626.373626373626	0.1935897435897436	0.5926395939086294	0.06772908366533864
10714.87426757813	-4.676225880359938	-33.26624263006723	4.377411964006289	3.830713762840123	0.07944760167383495	-0.09444421390108332	3473.538461538461	3621.978021978022	0.1833333333333333	0.5888324873096447	0.08100929614873838
10734.40551757813	-5.520869729013005	-33.44546003523533	3.913027098699542	3.478191979940866	0.8274614554960214	-0.480106403512753	3491.015384615384	3629.304029304029	0.1961538461538462	0.5888324873096447	0.07304116865869853
10753.93676757813	-4.076468169400422	-33.81045945659788	4.353183059957919	3.825426167372587	0.8356862555627309	-0.5227769474485876	3486.646153846154	3629.304029304029	0.2012820512820513	0.6027918781725888	0.0650730411686587
10773.46801757813	-4.08171591856232	-32.68977461455974	3.828408143768012	3.828351220184416	1.208292982977194	-0.5494774295257915	3479.364102564102	3630.769230769231	0.1884615384615385	0.58248730964467	0.07038512616201859
10792.99926757813	-5.119184539792404	-33.75885438404044	4.081546020759541	4.555670188165317	-0.3097851227871167	0.9717104884837408	3451.692307692307	3626.373626373626	0.1961538461538462	0.5875634517766497	0.06905710491367861
10812.53051757813	-5.515098743864288	-32.87436565331245	4.490125613571141	4.172097844648187	-0.6575410530883825	-0.08371379368250997	3477.907692307692	3626.373626373626	0.1961538461538462	0.5926395939086294	0.06241699867197875
10832.06176757813	-5.833082795631411	-33.83474022256613	4.691720436858958	4.522257084891737	-0.2767095256072096	-0.1530848196955485	3473.538461538461	3624.908424908425	0.1871794871794872	0.5888324873096447	0.06772908366533864
10851.59301757813	-4.914017553643999	-33.72761150158879	4.598244635599992	3.464129226037844	0.465879927141527	-0.8283376908286455	3476.451282051281	3627.838827838828	0.2012820512820513	0.5875634517766497	0.06374501992031872
10871.12426757813	-4.912740242264418	-33.92120927838986	4.725975773558238	3.805513307845908	-0.2711087276206904	-0.8176072706100722	3485.189743589744	3638.095238095238	0.2012820512820513	0.5901015228426395	0.0597609561752988
10890.65551757813	-5.232186276935881	-33.22626109106399	4.781372306411917	4.152184985121509	-1.764336036271804	-0.3785441168439946	3472.082051282051	3627.838827838828	0.2051282051282051	0.5888324873096447	0.06374501992031872
10910.18676757813	-4.916556787109435	-32.37889302963485	4.344321289056488	4.852503465608607	-1.002672981309458	-0.5172861688700715	3493.928205128205	3630.769230769231	0.2	0.5964467005076142	0.07569721115537847
10929.71801757813	-5.144160747944298	-33.31208995226857	5.583925205570185	4.53395729613905	1.213717384050644	-0.2598867480043641	3466.25641025641	3626.373626373626	0.191025641025641	0.5799492385786802	0.07835325365205843
10949.24926757813	-4.505976586112948	-32.93204057110285	5.402341388705242	3.842976484243558	3.071326620049511	-0.682979839911811	3493.928205128205	3630.769230769231	0.1961538461538462	0.5875634517766497	0.06905710491367861
10968.78051757813	-4.150089319460808	-33.73917901811381	4.99106805391916	3.845339026899266	1.942481238746152	-0.2279466242871029	3476.451282051281	3624.908424908425	0.1923076923076923	0.5977157360406091	0.06108897742363877
10988.31176757813	-4.508700491103141	-33.12159711937044	5.129950889685848	4.527544680359274	-1.032948179496105	0.2752479138519558	3482.276923076923	3630.769230769231	0.1987179487179487	0.5951776649746192	0.0743691899070385
11007.84301757813	-5.669851019325259	-32.95498893201994	5.01489806747405	4.860716113887971	-1.386304907783891	-0.1156539173997712	3485.189743589744	3627.838827838828	0.1987179487179487	0.5939086294416244	0.0650730411686587
11027.37426757813	-5.07077043728986	-33.80621416602954	4.92295627101408	4.177947950271844	0.0876724017405444	-0.1371147578369178	3477.907692307692	3623.443223443223	0.1935897435897436	0.5964467005076142	0.05577689243027888
11046.90551757813	-5.745534334745455	-32.72777955267632	5.446566525454507	4.537444859107001	3.08777622018293	-0.7683209277834801	3505.579487179487	3632.234432234432	0.191025641025641	0.5926395939086294	0.06640106241699867
11066.43676757813	-4.59073958483379	-33.00335301931787	4.926041516621052	4.551507613010021	3.449357748537425	-0.4200896404675876	3480.820512820513	3626.373626373626	0.1897435897435897	0.5862944162436548	0.07038512616201859
11085.96801757813	-4.467303906541435	-33.62340766977776	5.269609345856525	5.609635471863913	2.706768295788688	0.2551632306655095	3474.994871794872	3629.304029304029	0.1884615384615385	0.5977157360406091	0.0650730411686587
11105.49926757813	-4.712390105053475	-33.84663984004984	4.760989494652527	4.20371091542218	1.939680839752893	0.1043146011701591	3492.471794871794	3632.234432234432	0.191025641025641	0.5926395939086294	0.06905710491367861
11125.03051757813	-5.238434330190224	-33.60456594189249	4.156566980977601	5.239563372093685	1.219141785124094	0.02970393351706324	3485.189743589744	3630.769230769231	0.1935897435897436	0.5862944162436548	0.07038512616201859
11144.56176757813	-4.427800205108507	-33.39253717745579	5.219979489149316	5.245413477717342	1.964355239953021	-0.02369703063734463	3485.189743589744	3633.699633699634	0.191025641025641	0.5888324873096447	0.07038512616201859
11164.09301757813	-4.841412096969787	-33.25940455129128	3.858790303021348	5.570372262966677	1.994630438139668	-0.8162311133593718	3485.189743589744	3632.234432234432	0.1948717948717949	0.5964467005076142	0.07569721115537847
11183.62426757813	-5.397834172357627	-33.06511056284187	4.21658276423725	4.548020050042073	1.575298912405139	0.08834453931152841	3491.015384615384	3630.769230769231	0.191025641025641	0.5875634517766497	0.05843293492695883
11203.15551757813	-4.433140290032785	-33.04098984552842	4.685970996721464	5.578584911246042	1.610998511665236	-0.4145988618890715	3479.364102564102	3626.373626373626	0.1974358974358974	0.5926395939086294	0.08100929614873838
11222.68676757813	-5.510528123626505	-33.30205890282954	4.947187637349446	5.223138075534956	1.986405638072959	-0.7735605694235375	3495.384615384615	3632.234432234432	0.1897435897435897	0.6015228426395939	0.07038512616201859
11242.21801757813	-4.95344430860828	-33.15086740215179	4.655569139172154	5.575659858434213	1.238391784250772	-0.3878983798118676	3469.169230769231	3623.443223443223	0.1961538461538462	0.5862944162436548	0.06772908366533864
11261.74926757813	-4.559746162833502	-32.49465637553816	4.025383716649861	4.872978835291407	1.605574110591786	-0.7041895434104989	3491.015384615384	3629.304029304029	0.1974358974358974	0.583756345177665	0.07171314741035856
11281.28051757813	-4.026038069419258	-32.89831693450194	5.396193058074269	4.528669700671514	1.96995603793954	-0.6882194815518683	3482.276923076923	3630.769230769231	0.1961538461538462	0.5951776649746192	0.07569721115537847
11300.81176757813	-3.671920571546058	-33.28059099196925	4.80794284539423	4.18728561886345	2.706944692701757	-0.6989499017704416	3476.451282051281	3633.699633699634	0.1987179487179487	0.5951776649746192	0.07968127490039841
11320.34301757813	-4.158953552649237	-32.57637998874734	4.104644735076386	4.165010216681064	2.728995090821695	-1.448813440556634	3493.928205128205	3630.769230769231	0.2025641025641026	0.5964467005076142	0.0650730411686587
11339.87426757813	-3.679769111348312	-32.65727935138436	4.023088865168857	4.175585407616136	1.216517783043904	-0.592147973461626	3483.733333333333	3629.304029304029	0.1935897435897436	0.5926395939086294	0.07304116865869853
11359.40551757813	-4.43224771099645	-33.27266058112435	4.775228900354938	4.505831788333008	0.4905543273416553	-0.956349322636149	3493.928205128205	3629.304029304029	0.191025641025641	0.5913705583756345	0.0650730411686587
11378.93676757813	-5.024403110853392	-32.73612208880731	5.559688914660825	3.811363413469565	0.4741047272082364	-0.8710082347644801	3492.471794871794	3630.769230769231	0.2025641025641026	0.5926395939086294	0.07304116865869853
11398.46801757813	-4.902891094277276	-33.54654153324149	5.710890572272431	4.169735301992479	0.4713043282149769	-0.5387470093072181	3479.364102564102	3630.769230769231	0.2012820512820513	0.5913705583756345	0.07569721115537847
11417.99926757813	-4.148365718563059	-33.04861216271284	5.163428143694143	4.167372759336772	1.600149709518336	-0.9937802249319263	3493.928205128205	3630.769230769231	0.1987179487179487	0.6015228426395939	0.06905710491367861
11437.53051757813	-4.513301889928385	-33.61694970655695	4.669811007161561	3.503392434935081	1.178017784790547	0.2430566531962359	3476.451282051281	3627.838827838828	0.1948717948717949	0.5901015228426395	0.07968127490039841
11457.06176757813	-4.754663879357786	-33.15163563569478	4.533612064221369	3.851189132522923	2.687694693575079	-0.2813475884415107	3482.276923076923	3626.373626373626	0.1974358974358974	0.5875634517766497	0.0743691899070385
11476.59301757813	-4.00007694646865	-33.80761459175897	3.992305353135045	3.831276272996244	1.580899710391658	-0.5761779116029954	3485.189743589744	3629.304029304029	0.1987179487179487	0.5939086294416244	0.06374501992031872
11496.12426757813	-4.557253097249256	-32.72794360254748	4.274690275074391	3.825426167372587	0.8356862555627309	-0.5227769474485876	3486.646153846154	3626.373626373626	0.2	0.5913705583756345	0.0650730411686587
11515.65551757813	-5.236018211074629	-33.64546776066078	4.398178892537177	3.833638815651952	0.4520543290882984	-0.1211446959782873	3482.276923076923	3624.908424908425	0.1961538461538462	0.5926395939086294	0.06241699867197875
11535.18676757813	-5.199823207793631	-33.14202471397458	4.01767922063692	4.542169944418416	0.8300854575762118	0.1417455034659362	3466.25641025641	3627.838827838828	0.1948717948717949	0.5926395939086294	0.07038512616201859
11554.71801757813	-4.315414039714227	-33.38604720450401	4.458596028577302	4.545094997230244	1.202692184990675	0.1150450213887323	3476.451282051281	3629.304029304029	0.1948717948717949	0.5761421319796954	0.07038512616201859
11574.24926757813	-4.551805287268868	-33.34883050601228	4.819471273113179	4.894129217161551	-1.419380504963798	1.009141390779518	3457.517948717949	3627.838827838828	0.1858974358974359	0.5875634517766497	0.07304116865869853
11593.78051757813	-4.666976914828261	-33.39096870063883	5.302308517173835	4.874216357634873	-2.526175488147219	0.7143110676180333	3485.189743589744	3630.769230769231	0.1974358974358974	0.5951776649746192	0.07569721115537847
11613.31176757813	-5.228492846440703	-33.46076068663335	5.15071535592974	4.538682381450466	-1.043973378556074	0.6501796832450522	3485.189743589744	3633.699633699634	0.2	0.5888324873096447	0.0650730411686587
11632.84301757813	-4.597787881362088	-33.38084962443967	4.221211863791207	4.878266430758942	0.8493354567028902	-0.2758568098629947	3489.558974358974	3626.373626373626	0.1935897435897436	0.5862944162436548	0.0743691899070385
11652.37426757813	-4.267984852010396	-33.97087376100796	5.201514798960422	4.855991028576557	0.8713858548228283	-1.025720348649188	3479.364102564102	3624.908424908425	0.1935897435897436	0.5901015228426395	0.06772908366533864
11671.90551757813	-4.235837232980365	-33.34795824084367	4.41627670196355	5.222575565378834	0.4849535293551363	-0.2918268717216253	3477.907692307692	3619.047619047619	0.1897435897435897	0.5913705583756345	0.07569721115537847
11691.43676757813	-4.783487410942158	-33.0856007918715	5.651258905784281	4.858353571232264	-0.2574595264805311	-0.5706871330244794	3496.841025641026	3632.234432234432	0.2051282051282051	0.5901015228426395	0.06640106241699867
11710.96801757813	-4.51242470018578	-32.81014336050467	4.757529981422044	6.257865511894221	-1.737037633991485	0.1152961583271911	3466.25641025641	3626.373626373626	0.1923076923076923	0.5913705583756345	0.07038512616201859
11730.49926757813	-4.464472276495132	-32.7031906930476	5.552772350486855	5.191525004760964	-0.610816254768316	-0.9615889642762063	3492.471794871794	3627.838827838828	0.1923076923076923	0.6015228426395939	0.07038512616201859
11750.03051757813	-5.269858652414949	-33.03590429952243	5.014134758505047	5.202662705852156	-0.621841453828285	-0.58665719488311	3479.364102564102	3632.234432234432	0.1923076923076923	0.5913705583756345	0.0743691899070385
11769.56176757813	-4.792028468962257	-32.73082047711736	4.797153103774316	4.858353571232264	-0.2574595264805311	-0.5706871330244794	3488.102564102564	3633.699633699634	0.1897435897435897	0.5901015228426395	0.08632138114209827
11789.09301757813	-5.300051831141283	-32.54540918900884	5.994816885871765	5.219650512567006	0.1123468019406728	-0.2651263896444214	3482.276923076923	3623.443223443223	0.1871794871794872	0.6015228426395939	0.0650730411686587
11808.62426757813	-4.55171295150649	-32.57969299590152	4.828704849351125	4.488843981618158	-0.2436339284273025	-1.277880127874838	3483.733333333333	3627.838827838828	0.1974358974358974	0.5926395939086294	0.07304116865869853
11828.15551757813	-5.23072429403154	-32.88158384764353	4.927570596846056	4.169735301992479	0.4713043282149769	-0.5387470093072181	3496.841025641026	3630.769230769231	0.1871794871794872	0.5913705583756345	0.0743691899070385
11847.68676757813	-4.515579505400411	-32.9223416226225	4.442049459958904	3.828351220184416	1.208292982977194	-0.5494774295257915	3493.928205128205	3630.769230769231	0.1948717948717949	0.5901015228426395	0.07171314741035856
11867.21801757813	-4.866126687128273	-33.4667505075389	5.387331287172838	4.183798055895501	0.8328858565694712	-0.1905157219913257	3472.082051282051	3624.908424908425	0.1961538461538462	0.5888324873096447	0.07702523240371846
11886.74926757813	-4.98726936065487	-32.57978102266166	5.273063934513014	3.13917044078851	0.4356047289548795	-0.0358036081066182	3480.820512820513	3623.443223443223	0.1974358974358974	0.5862944162436548	0.07038512616201859
11906.28051757813	-4.91235550992117	-32.883136319595	4.764449007883011	3.478191979940866	0.8274614554960214	-0.480106403512753	3488.102564102564	3633.699633699634	0.1897435897435897	0.5913705583756345	0.08100929614873838
11925.81176757813	-4.991270577024647	-33.57573979412818	4.872942297535373	3.83656386846378	0.8246610565027619	-0.1478451780554912	3483.733333333333	3629.304029304029	0.1935897435897436	0.5951776649746192	0.06772908366533864
11945.34301757813	-4.875621881359626	-32.72639113059601	4.437811864037435	3.472341874317209	0.08224800066709453	-0.4267054393583452	3496.841025641026	3630.769230769231	0.1974358974358974	0.5913705583756345	0.06640106241699867
11964.87426757813	-5.307808035181157	-33.15296003831318	5.219196481884338	4.175022897460016	-0.284934325673919	-0.1104142757597139	3467.71282051282	3623.443223443223	0.2012820512820513	0.5901015228426395	0.0597609561752988
11984.40551757813	-4.704880129713279	-32.6234556843742	5.511987028672101	3.467054278849673	0.8384866545559904	-0.8550381729058494	3492.471794871794	3630.769230769231	0.1948717948717949	0.5888324873096447	0.07038512616201859
12003.93676757813	-4.746338271449906	-32.96773680737405	5.366172855009461	4.511119383800544	-0.2656843265472406	-0.5280165890886449	3469.169230769231	3626.373626373626	0.1807692307692308	0.5888324873096447	0.07038512616201859
12023.46801757813	-4.789058335272385	-33.15689723522105	5.094166472761565	4.169735301992479	0.4713043282149769	-0.5387470093072181	3467.71282051282	3626.373626373626	0.191025641025641	0.5939086294416244	0.0650730411686587
12042.99926757813	-4.86986628550464	-33.11681966702492	5.013371449536043	3.461766683382137	1.594725308444886	-1.283370906453354	3486.646153846154	3626.373626373626	0.191025641025641	0.5862944162436548	0.0743691899070385
12062.53051757813	-5.108565927118767	-33.30804072130236	5.143407288123282	3.817213519093222	1.219318182037163	-0.9244091989188878	3488.102564102564	3629.304029304029	0.1923076923076923	0.598984771573604	0.06905710491367861
12082.06176757813	-4.596372066338937	-32.9207411360746	4.362793366106373	3.820138571905051	1.591924909451627	-0.9511096809960917	3505.579487179487	3635.164835164835	0.1897435897435897	0.5926395939086294	0.0650730411686587
12101.59301757813	-4.906492189010075	-32.54290442756136	5.350781098992555	3.469979331661501	1.211093381970454	-0.8817386549830533	3493.928205128205	3630.769230769231	0.2	0.5951776649746192	0.07702523240371846
12121.12426757813	-5.066307542108186	-32.96456784400919	5.369245789181449	3.822501114560759	0.4630795281482674	-0.4960764653713837	3486.646153846154	3632.234432234432	0.1948717948717949	0.5926395939086294	0.06772908366533864
