Time Stamp	Accelerometer X	Accelerometer Y	Accelerometer Z	Gyroscope X	Gyroscope Y	Gyroscope Z	VSenseReg	VSenseBatt	Magnetometer X	Magnetometer Y	Magnetometer Z
636.749267578125	-2.216270053788659	-34.77079801490422	2.372994621134055	7.762560187867396	7.521727442419635	-22.5008808178631	3525.969230769231	3674.725274725275	0.2051282051282051	0.5862944162436548	0.100929614873838
656.280517578125	-4.594463793916427	-33.6918992604521	4.553620608357248	1.439337659715314	0.7340118588558886	1.27564393767464	3469.169230769231	3627.838827838828	0.2153846153846154	0.583756345177665	0.09163346613545816
675.811767578125	-4.78476472232174	-32.89200301507043	5.523527767826034	5.261838774276072	1.197091387004156	0.7795674723032561	3476.451282051281	3626.373626373626	0.2128205128205128	0.5901015228426395	0.09163346613545816
695.343017578125	-4.594017504398261	-32.80773462825006	4.598249560173985	3.833638815651952	0.4520543290882984	-0.1211446959782873	3489.558974358974	3626.373626373626	0.217948717948718	0.58248730964467	0.08632138114209827
714.874267578125	-4.824222255873478	-33.23830475233702	5.577774412652214	3.823063624716879	1.96453163686609	-0.9778101630732958	3488.102564102564	3629.304029304029	0.2115384615384615	0.5862944162436548	0.099601593625498
734.405517578125	-4.754433039951837	-32.72879186041787	4.556696004816233	3.134445355477095	2.693295491561598	-0.9458700393560344	3495.384615384615	3629.304029304029	0.2128205128205128	0.5901015228426395	0.09428950863213811
753.936767578125	-4.912755631558148	-33.88273219674166	4.724436844185247	3.492817244000009	2.690495092568339	-0.6136088138987725	3489.558974358974	3633.699633699634	0.1961538461538462	0.58248730964467	0.09827357237715803
773.468017578125	-4.714206041713604	-33.30634420556157	4.579395828639598	4.189648161519158	1.578099311398398	-0.2439166861457334	3467.71282051282	3623.443223443223	0.2166666666666667	0.5901015228426395	0.100929614873838
792.999267578125	-4.668731294313472	-33.00458139274339	5.126870568652869	4.183798055895501	0.8328858565694712	-0.1905157219913257	3448.779487179487	3616.117216117216	0.2051282051282051	0.581218274111675	0.099601593625498
812.530517578125	-4.554236795678194	-33.26945160559578	4.576320432180613	4.169735301992479	0.4713043282149769	-0.5387470093072181	3480.820512820513	3630.769230769231	0.2051282051282051	0.5939086294416244	0.09428950863213811
832.061767578125	-4.837641720005959	-32.68628955510167	4.235827999404126	3.81957606174893	0.09047280073380398	-0.4693759832941797	3491.015384615384	3633.699633699634	0.2115384615384615	0.5901015228426395	0.08897742363877821
851.593017578125	-4.871836115102068	-33.1917532160546	4.816388489793204	3.803150765190201	0.8577366536826689	-1.27264048623478	3492.471794871794	3629.304029304029	0.2025641025641026	0.583756345177665	0.08897742363877821
871.124267578125	-4.913463539069723	-33.1127864409242	4.653646093027664	3.777950310195986	0.5071803243881435	-1.995803542943769	3483.733333333333	3624.908424908425	0.2012820512820513	0.5761421319796954	0.08764940239043824
890.655517578125	-5.350712770528395	-32.8803954863817	4.928722947160551	4.186723108707329	1.205492583983935	-0.2172162040685295	3448.779487179487	3621.978021978022	0.2128205128205128	0.5888324873096447	0.09163346613545816
910.186767578125	-5.630747439529309	-32.72371431684463	4.925256047069078	3.481679542908815	2.701520291628308	-0.988540583291869	3479.364102564102	3627.838827838828	0.2076923076923077	0.5888324873096447	0.1035856573705179
929.718017578125	-5.235171799919483	-32.76170725131209	4.482820008051678	4.170297812148601	1.9727564369328	-1.02048070700913	3472.082051282051	3627.838827838828	0.2141025641025641	0.58248730964467	0.09163346613545816
949.249267578125	-4.438665046481823	-33.22771753382259	4.133495351817722	3.823063624716879	1.96453163686609	-0.9778101630732958	3493.928205128205	3629.304029304029	0.208974358974359	0.5901015228426395	0.09428950863213811
968.780517578125	-4.196302752959977	-33.19404191181812	4.369724704002324	4.15331000543375	1.238568181163842	-1.342011512247819	3486.646153846154	3629.304029304029	0.1923076923076923	0.5799492385786802	0.09030544488711818
988.311767578125	-4.390435615504037	-32.81335233603323	4.956438449596369	4.502906735521179	0.1179475999271919	-0.9296488405589451	3488.102564102564	3633.699633699634	0.2115384615384615	0.581218274111675	0.08233731739707835
1007.843017578125	-4.826469092758045	-32.62065083169898	5.353090724195539	4.488843981618158	-0.2436339284273025	-1.277880127874838	3493.928205128205	3629.304029304029	0.2012820512820513	0.5850253807106599	0.09163346613545816
1027.374267578125	-5.347911919069551	-32.88322434635514	5.2088080930449	4.163885196368823	-0.27390912661395	-0.4853460451528103	3470.625641025641	3627.838827838828	0.2115384615384615	0.5901015228426395	0.09694555112881806
1046.905517578125	-5.107211669270535	-32.69402390634445	5.278833072946483	4.161522653713115	0.8549362546894093	-0.9403792607775185	3485.189743589744	3630.769230769231	0.2115384615384615	0.5774111675126903	0.09163346613545816
1066.436767578125	-4.071805213400259	-32.46901519600419	4.81947865997417	4.17322286496043	2.345363164347263	-1.047181189086334	3483.733333333333	3629.304029304029	0.217948717948718	0.5862944162436548	0.100929614873838
1085.968017578125	-4.78467238655936	-33.12286550495966	5.53276134406398	4.184360566051622	2.334337965287294	-0.6722494196932377	3464.8	3626.373626373626	0.2025641025641026	0.5875634517766497	0.09561752988047809
1105.499267578125	-4.317491594367765	-33.19164118199625	4.250840563223527	4.181998023395915	3.463183346590653	-1.127282635317946	3492.471794871794	3630.769230769231	0.2076923076923077	0.5875634517766497	0.08764940239043824
1125.030517578125	-4.114956177447175	-33.58081733770143	4.504382255282528	4.169735301992479	0.4713043282149769	-0.5387470093072181	3476.451282051281	3627.838827838828	0.2051282051282051	0.58248730964467	0.09296148738379813
1144.561767578125	-5.144776319693495	-33.77300668634034	5.522368030650547	4.505269278176887	-1.010897781376167	-0.474615624934237	3499.753846153846	3633.699633699634	0.2064102564102564	0.5850253807106599	0.08233731739707835
1164.093017578125	-5.22721553506112	-32.65435846343442	5.278446493887987	4.868928762167337	-1.769936834258323	0.2859783340705291	3469.169230769231	3629.304029304029	0.1948717948717949	0.5913705583756345	0.09030544488711818
1183.624267578125	-4.996903058529793	-33.49312791088492	4.309694147020694	4.519332032079908	-0.649316253021673	-0.1263843376183445	3476.451282051281	3626.373626373626	0.2012820512820513	0.5875634517766497	0.08100929614873838
1203.155517578125	-5.267042411662376	-34.07721024114407	5.295758833762386	3.478754490096987	2.328913564213844	-0.9618401012146651	3505.579487179487	3630.769230769231	0.2012820512820513	0.58248730964467	0.102257636122178
1222.686767578125	-5.266765404375237	-32.76979771081177	5.323459562476223	4.875903888103235	1.97818083800625	-0.7308900254877029	3464.8	3627.838827838828	0.217948717948718	0.5901015228426395	0.100929614873838
1242.218017578125	-5.232093941173502	-33.45712358095322	4.790605882649863	4.520457052392151	2.353587964413972	-1.089851733022169	3480.820512820513	3629.304029304029	0.1948717948717949	0.5913705583756345	0.08632138114209827
1261.749267578125	-4.668208058326655	-33.31280216878238	5.179194167334561	5.225500618190663	0.8575602567695997	-0.3185273537988293	3450.235897435897	3621.978021978022	0.2076923076923077	0.5901015228426395	0.1062416998671979
1281.280517578125	-4.985591927638311	-33.77378292231608	5.440807236169025	5.203225216008278	0.8796106548895377	-1.068390892585022	3486.646153846154	3632.234432234432	0.2064102564102564	0.5888324873096447	0.09030544488711818
1300.811767578125	-5.152009287746552	-32.68877831168367	4.799071225344812	5.189162462105255	0.5180291265350433	-1.416622179900914	3507.035897435897	3635.164835164835	0.2102564102564103	0.5913705583756345	0.09030544488711818
1320.343017578125	-5.068338928880534	-32.88559306644604	5.166107111946646	4.864203676855921	0.4877539283483958	-0.6240880971788871	3491.015384615384	3633.699633699634	0.2141025641025641	0.5799492385786802	0.09428950863213811
1339.874267578125	-5.157195479733531	-32.72200179623837	4.280452026646869	4.875341377947113	0.4767287292884267	-0.2491563277857907	3476.451282051281	3620.51282051282	0.2192307692307692	0.5888324873096447	0.09561752988047809
1359.405517578125	-4.947196255353936	-33.77256255132329	5.280374464606471	4.870053782479578	1.232967383177323	-0.677489061333295	3486.646153846154	3629.304029304029	0.2141025641025641	0.581218274111675	0.09561752988047809
1378.936767578125	-4.9089236974194	-32.46352552714487	5.107630258059988	4.887041589194427	1.967155638946281	-0.3559582560946065	3474.994871794872	3623.443223443223	0.2025641025641026	0.581218274111675	0.08632138114209827
1398.468017578125	-4.11732612868158	-32.65534676387776	4.267387131841925	4.887041589194427	1.967155638946281	-0.3559582560946065	3469.169230769231	3623.443223443223	0.2076923076923077	0.581218274111675	0.09428950863213811
1417.999267578125	-4.634706181448391	-33.0758698336602	4.529381855160891	4.534519806295172	2.715169492768467	-0.7416204457062762	3493.928205128205	3629.304029304029	0.2115384615384615	0.5850253807106599	0.099601593625498
1437.530517578125	-4.468904393089345	-33.62179117836438	5.109560691065468	4.525744647859686	1.597349310525077	-0.6615189994746644	3493.928205128205	3632.234432234432	0.2012820512820513	0.5901015228426395	0.09561752988047809
1457.061767578125	-4.710035543112799	-33.7336333322253	4.99644568872014	3.817213519093222	1.219318182037163	-0.9244091989188878	3511.405128205128	3635.164835164835	0.2076923076923077	0.5926395939086294	0.09428950863213811
1476.593017578125	-4.866634533821359	-33.19700681314811	5.336546617864138	3.814288466281394	0.8467114546226999	-0.897708716841684	3488.102564102564	3627.838827838828	0.2012820512820513	0.58248730964467	0.09428950863213811
1496.124267578125	-5.100778944491433	-32.77744403529442	5.92210555085669	4.878266430758942	0.8493354567028902	-0.2758568098629947	3461.887179487179	3616.117216117216	0.2102564102564103	0.5901015228426395	0.09561752988047809
1515.655517578125	-5.15734937267083	-33.3372309797563	4.26506273291696	4.167372759336772	1.600149709518336	-0.9937802249319263	3470.625641025641	3626.373626373626	0.208974358974359	0.5748730964467005	0.08897742363877821
1535.186767578125	-4.88000783007265	-32.76042286085739	3.999216992735022	3.811925923625686	1.975556835926059	-1.352741932466392	3477.907692307692	3627.838827838828	0.2038461538461538	0.5888324873096447	0.1049136786188579
1554.718017578125	-3.865976487621468	-33.0922868244254	5.40235123785323	4.853065975764728	0.4987791274083648	-0.9990198665719836	3474.994871794872	3626.373626373626	0.2038461538461538	0.5901015228426395	0.09030544488711818
1574.249267578125	-4.433632747432143	-33.80972323278584	4.636725256785755	4.8636411666998	-1.013698180369427	-0.1423543994769751	3456.061538461538	3621.978021978022	0.2102564102564103	0.5964467005076142	0.08897742363877821
1593.780517578125	-5.26970475947765	-33.42067511600449	5.029524052234956	3.805513307845908	-0.2711087276206904	-0.8176072706100722	3493.928205128205	3630.769230769231	0.2192307692307692	0.58248730964467	0.09561752988047809
1613.311767578125	-5.230555011800511	-33.30483174577379	4.944498819948956	3.814288466281394	0.8467114546226999	-0.897708716841684	3502.666666666666	3632.234432234432	0.1935897435897436	0.583756345177665	0.09030544488711818
1632.843017578125	-5.032082368424617	-33.53605834635268	4.791763157538352	3.823063624716879	1.96453163686609	-0.9778101630732958	3480.820512820513	3627.838827838828	0.2102564102564103	0.5786802030456852	0.09561752988047809
1652.374267578125	-5.347819583307171	-33.11408683624437	5.218041669282846	3.820138571905051	1.591924909451627	-0.9511096809960917	3474.994871794872	3621.978021978022	0.2141025641025641	0.5862944162436548	0.099601593625498
1671.905517578125	-4.702433232010224	-32.7413116664389	5.756676798977658	4.161522653713115	0.8549362546894093	-0.9403792607775185	3492.471794871794	3630.769230769231	0.217948717948718	0.5939086294416244	0.08499335989375829
1691.436767578125	-4.756572151780295	-32.38047751131728	4.342784821970493	3.817213519093222	1.219318182037163	-0.9244091989188878	3486.646153846154	3627.838827838828	0.2076923076923077	0.5901015228426395	0.09030544488711818
1710.968017578125	-4.790658821820296	-33.15528074380765	4.934117817970509	4.525182137703565	0.09589720180725386	-0.1797853017727524	3470.625641025641	3623.443223443223	0.2115384615384615	0.583756345177665	0.08632138114209827
1730.499267578125	-4.903475887439012	-33.08441243060968	5.652411256098777	4.161522653713115	0.8549362546894093	-0.9403792607775185	3485.189743589744	3626.373626373626	0.208974358974359	0.5913705583756345	0.09561752988047809
1750.030517578125	-4.875467988422327	-33.11116194707806	4.453201157767345	4.519894542236029	0.8521358556961498	-0.6081180353202567	3469.169230769231	3627.838827838828	0.2153846153846154	0.5862944162436548	0.09030544488711818
1769.561767578125	-5.309116125148199	-33.88240809821571	5.088387485180109	4.159160111057407	1.983781635992769	-1.395412476402226	3482.276923076923	3627.838827838828	0.2064102564102564	0.581218274111675	0.100929614873838
1789.093017578125	-4.314783078671301	-32.96360755208045	4.52169213286993	3.817776029249343	2.720770290754986	-1.4061428966208	3493.928205128205	3629.304029304029	0.2076923076923077	0.581218274111675	0.08897742363877821
1808.624267578125	-5.062752615256577	-32.8527737047447	5.724738474342353	3.831276272996244	1.580899710391658	-0.5761779116029954	3470.625641025641	3629.304029304029	0.2153846153846154	0.5888324873096447	0.08897742363877821
1828.155517578125	-4.5857534536653	-33.46992747333651	5.424654633470112	4.491769034429986	0.1289727989871609	-1.304580609952042	3485.189743589744	3627.838827838828	0.2115384615384615	0.583756345177665	0.09561752988047809
1847.686767578125	-5.943437574253343	-33.92020497308104	5.656242574665774	5.192087514917084	0.8906358539495067	-1.443322661978119	3491.015384615384	3629.304029304029	0.2115384615384615	0.5850253807106599	0.09827357237715803
1867.218017578125	-5.466053680318818	-33.49928578287799	5.394631968118308	5.189724972261376	2.019481235252866	-1.898355877602827	3473.538461538461	3624.908424908425	0.2192307692307692	0.5774111675126903	0.09296148738379813
1886.749267578125	-6.106361564684895	-33.56949789659133	5.363843531510502	4.813127754680147	5.419842977216172	-3.970648519327309	3486.646153846154	3623.443223443223	0.2038461538461538	0.5774111675126903	0.099601593625498
1906.280517578125	-3.987042214679417	-32.39770274778917	5.29577853205836	5.502871044232173	7.693983339956311	-4.966056038448395	3476.451282051281	3620.51282051282	0.1961538461538462	0.5850253807106599	0.09428950863213811
1925.811767578125	-4.224618437851261	-33.39775076238561	5.538156214873936	6.169213911289572	6.987269883380741	-5.747859700951849	3498.297435897436	3619.047619047619	0.2064102564102564	0.5761421319796954	0.09428950863213811
1945.343017578125	-4.266399754756216	-32.93401317077314	5.360024524378487	7.223291697019393	2.869169485781895	-4.082438952337723	3476.451282051281	3620.51282051282	0.2064102564102564	0.5901015228426395	0.08100929614873838
1964.874267578125	-5.026234436807251	-34.15734937267082	5.376556319274905	8.919074404968521	-0.8047485889692232	-4.403718620637954	3469.169230769231	3620.51282051282	0.2076923076923077	0.581218274111675	0.09694555112881806
1984.405517578125	-5.790393510396392	-33.56862563142271	4.960648960360873	8.550127325510534	0.710529117801828	-5.592645313190223	3485.189743589744	3617.582417582417	0.217948717948718	0.581218274111675	0.102257636122178
2003.936767578125	-5.301252196052216	-32.5441968204488	5.874780394778473	7.883784458453135	1.417242574377398	-4.81084165068677	3472.082051282051	3619.047619047619	0.2166666666666667	0.5799492385786802	0.09163346613545816
2023.468017578125	-6.056808654446336	-32.46416172054766	6.319134555366369	8.57296523784904	2.189930828399713	-5.324515472105944	3463.343589743589	3616.117216117216	0.2064102564102564	0.5850253807106599	0.09694555112881806
2042.999267578125	-6.736881858238751	-33.11113393856348	6.311814176124926	12.37195342788395	6.806810353406923	-7.988956087292052	3469.169230769231	3611.721611721612	0.2153846153846154	0.5761421319796954	0.100929614873838
2062.530517578125	-6.817874479995766	-33.60933139058889	6.212552000423512	14.08224889786099	12.13057973190277	-10.82570617241066	3480.820512820513	3605.860805860806	0.2243589743589744	0.5862944162436548	0.1049136786188579
2082.061767578125	-6.651287837656494	-34.11758389935155	6.871216234350627	15.73460582175759	11.50366667082718	-13.6101803136871	3476.451282051281	3600	0.2192307692307692	0.583756345177665	0.1102257636122178
2101.593017578125	-6.446151630095549	-34.0093868536035	7.384836990445094	16.40027367662764	16.43015492170844	-16.292218284921	3549.271794871795	3693.772893772893	0.2230769230769231	0.5736040609137055	0.1088977423638778
2121.124267578125	-6.329995087737443	-34.4297818844621	7.000491226255858	21.23635184567752	16.19474579334784	-17.61276895673167	3528.882051282051	3698.168498168498	0.2153846153846154	0.5697969543147208	0.1128818061088977
2140.655517578125	-5.934634898239835	-32.92909567585468	6.536510176016584	24.63725493016738	11.46618193480682	-18.81716343726565	3547.815384615385	3693.772893772893	0.217948717948718	0.5799492385786802	0.1102257636122178
2160.186767578125	-4.888025036534184	-32.71540240540816	7.197496346581668	27.99776978544776	3.022576001181129	-20.12948486642069	3521.6	3684.981684981685	0.2282051282051282	0.5774111675126903	0.1181938911022576
2179.718017578125	-6.000715294372566	-33.7115852449914	7.92847056274338	30.03257403254924	-0.2594853470288466	-20.89506733012706	3528.882051282051	3687.912087912088	0.2243589743589744	0.565989847715736	0.1248339973439575
2199.249267578125	-6.559461153113624	-33.70725192766292	8.053884688637652	31.39518530696967	-3.58004669349218	-20.82544516717556	3512.861538461538	3683.516483516483	0.2243589743589744	0.5710659898477157	0.1328021248339973
2218.780517578125	-6.556198622842883	-33.86439323708253	8.380137715711729	32.07502841777396	-5.426630730431078	-20.77728384466121	3537.620512820513	3687.912087912088	0.241025641025641	0.5685279187817258	0.1367861885790173
2238.311767578125	-7.274159652226586	-33.78232952048192	8.584034777341541	33.76372349775598	-5.714012661272117	-22.46366315983557	3537.620512820513	3684.981684981685	0.2358974358974359	0.5723350253807106	0.1354581673306773
2257.843017578125	-8.100090119704083	-33.74967820986811	9.990988029591764	36.855980591524	-4.105461754774003	-24.45422706113927	3525.969230769231	3679.120879120879	0.241025641025641	0.565989847715736	0.1341301460823373
2277.374267578125	-8.025545612019901	-31.12958354724452	9.445438798009977	38.60553927039828	1.930445481370866	-26.219582802233	3515.774358974359	3677.655677655677	0.2525641025641026	0.5621827411167513	0.150066401062417
2296.905517578125	-8.543879800997965	-32.1645275548382	9.612019900203507	38.55626338072209	4.232237040217461	-28.6293763110548	3523.05641025641	3667.399267399267	0.2435897435897436	0.565989847715736	0.1633466135458167
2316.436767578125	-8.145888042272544	-31.24342230807396	9.411195772745682	40.94820199400302	5.07912489175323	-30.48119816033244	3521.6	3665.934065934066	0.2615384615384616	0.5647208121827411	0.1752988047808765
2335.968017578125	-7.859589930723556	-32.06027570843074	10.04100692764446	45.43119586999752	4.090277508497001	-31.70567732405286	3501.210256410256	3663.003663003663	0.2666666666666667	0.5609137055837563	0.1686586985391766
2355.499267578125	-8.242669463824695	-32.26567307230629	11.7330536175305	48.12356782572092	-1.016317478531936	-33.17296200403108	3511.405128205128	3661.538461538461	0.2653846153846154	0.5342639593908629	0.1726427622841965
2375.030517578125	-7.923608161496479	-31.99869421842702	11.63918385035204	49.79358756851971	-6.542243991295402	-33.73567103133838	3517.230769230769	3658.608058608058	0.2717948717948718	0.5482233502538071	0.1832669322709163
2394.561767578125	-9.638133684947917	-31.25625420897183	12.18663150520835	53.23195382940722	-7.928372502166223	-34.8054380811741	3520.14358974359	3660.07326007326	0.2692307692307692	0.5368020304568527	0.1872509960159363
2414.093017578125	-9.868846283116223	-31.417080638668	13.11537168837788	54.23731823561698	-8.243229232200649	-36.0315445390837	3517.230769230769	3655.677655677655	0.2756410256410257	0.5279187817258882	0.201859229747676
2433.624267578125	-10.85825475559955	-29.64854731222907	14.17452444004516	56.66559500498331	-7.056810250430325	-36.78527156225924	3499.753846153846	3654.212454212454	0.2820512820512821	0.5266497461928934	0.2071713147410358
2453.155517578125	-11.13281083603262	-30.18970720945321	14.71891639673845	56.29901046818103	-6.670377924962632	-37.5191650391868	3517.230769230769	3646.886446886447	0.2923076923076923	0.5241116751269035	0.2177954847277556
2472.686767578125	-12.0161273642572	-29.67755751594638	14.38726357428043	58.37949053995953	-6.99363585197684	-37.74848782072461	3498.297435897436	3649.81684981685	0.2833333333333333	0.516497461928934	0.2337317397078353
2492.218017578125	-12.64890988398935	-28.5630625556323	15.10901160106518	60.83116773182049	-2.826363050890807	-38.71581870051779	3486.646153846154	3648.351648351648	0.3012820512820513	0.5126903553299492	0.2350597609561753
2511.749267578125	-11.57189139344515	-28.37854353877425	14.81086065548542	60.85456815431512	0.1544907684249005	-38.92942255713542	3511.405128205128	3649.81684981685	0.3025641025641025	0.5025380710659898	0.2576361221779548
2531.280517578125	-11.0447699177473	-28.31401315230599	15.52300822526971	61.567824368393	-1.725168865693905	-37.75646592644178	3485.189743589744	3651.282051282051	0.3051282051282052	0.4961928934010152	0.2682602921646746
2550.811767578125	-11.16048017058725	-28.00945348924534	15.95198294127568	60.83938038009985	-3.20999497736524	-38.31418644904748	3505.579487179487	3648.351648351648	0.3166666666666667	0.4809644670050761	0.2735723771580345
2570.343017578125	-11.8325971095213	-26.54907691938349	16.74028904787055	62.57206375429051	-5.042929813163979	-38.01910498894755	3514.317948717948	3654.212454212454	0.3192307692307692	0.4860406091370558	0.2868525896414342
2589.874267578125	-13.10525661339509	-26.5821523589325	17.47433866049125	62.90467267766309	-6.897738650169586	-37.92827312249736	3486.646153846154	3651.282051282051	0.3256410256410257	0.465736040609137	0.2881806108897742
2609.405517578125	-13.14517582575872	-25.77414164675292	17.4824174241277	62.50816260055518	-4.604171891389701	-40.29539608738333	3520.14358974359	3648.351648351648	0.332051282051282	0.4670050761421319	0.2868525896414342
2628.936767578125	-13.34740345680472	-25.15450712401185	17.25965431952852	64.22554569849936	-2.66693865680393	-41.76704652562781	3483.733333333333	3639.560439560439	0.3371794871794872	0.4606598984771573	0.3067729083665339
2648.468017578125	-13.7774043309166	-25.04482162577423	18.25956690834013	65.25667306985945	-1.129786948826009	-42.75172362453032	3489.558974358974	3641.025641025641	0.3333333333333333	0.4454314720812183	0.3147410358565737
2667.999267578125	-14.32807081044945	-24.24095617375374	19.19291895505464	65.55879394277028	-2.578913461237247	-43.81238754833663	3501.210256410256	3641.025641025641	0.3397435897435898	0.4428934010152284	0.3134130146082337
2687.530517578125	-12.48195328302881	-23.99630410721782	19.804671697119	67.28562721133727	-5.157061751864912	-43.46390512408228	3499.753846153846	3636.630036630037	0.3538461538461539	0.4263959390862944	0.3266932270916335
2707.061767578125	-12.60309595655541	-22.10933462234058	19.69040434445918	69.04531107302172	-9.269737748390307	-41.50889369394673	3505.579487179487	3648.351648351648	0.358974358974359	0.4124365482233502	0.3240371845949535
2726.593017578125	-14.42683745089276	-22.29966340536754	21.31625491072363	68.34971767784603	-12.28909156595937	-40.46008521067123	3511.405128205128	3646.886446886447	0.35	0.3984771573604061	0.349269588313413
2746.124267578125	-15.26874200526191	-21.32780134391624	21.12579947380927	71.18856727822332	-13.03465781461444	-38.49845798164492	3491.015384615384	3651.282051282051	0.3705128205128205	0.3972081218274111	0.3638778220451527
2765.655517578125	-15.70500632192186	-19.55794361485892	21.49936780781357	69.84001875770589	-9.35251493979661	-38.21984885728053	3515.774358974359	3654.212454212454	0.3769230769230769	0.3794416243654822	0.3652058432934927
2785.186767578125	-16.81825059433452	-19.16895151510675	22.17494056654761	69.50504729167763	-6.368860721487643	-38.76571393935542	3512.861538461538	3651.282051282051	0.3846153846153846	0.3730964467005076	0.3705179282868525
2804.718017578125	-16.45440706282402	-18.86874117424005	22.55929371759784	70.21942852606773	-5.245616138170803	-38.55622470406561	3491.015384615384	3652.747252747252	0.391025641025641	0.3642131979695431	0.3811420982735724
2824.249267578125	-17.21713493209628	-17.85838602627506	22.28650679037196	70.20649079247696	-2.604293449089652	-39.86792338678532	3508.492307692307	3649.81684981685	0.3935897435897436	0.3464467005076142	0.3837981407702523
2843.780517578125	-17.69835076016955	-17.6985118860749	22.16492398304469	70.23281626778341	0.7491670976405188	-40.10822772548016	3507.035897435897	3652.747252747252	0.3794871794871795	0.3286802030456852	0.3944223107569721
2863.311767578125	-16.82066671345012	-16.12804969633845	21.93332865498804	69.897282291599	2.231369207231663	-40.17235910985313	3508.492307692307	3648.351648351648	0.3923076923076923	0.3172588832487309	0.4116865869853917
2882.843017578125	-16.97563443902331	-15.66999383197107	22.43655609766907	70.5994008045857	0.3627347721728272	-39.37433424855259	3496.841025641026	3652.747252747252	0.3974358974358974	0.3147208121827411	0.4063745019920318
2902.374267578125	-16.48730875724682	-14.60627969364225	23.26912427531816	70.26274180808905	-1.157967335671675	-38.47499823752175	3493.928205128205	3652.747252747252	0.4128205128205128	0.3020304568527918	0.4143426294820717
2921.905517578125	-16.77245267176606	-13.67520741690089	22.75473282339369	69.93665800252747	-4.191146751293967	-36.7189967593959	3485.189743589744	3654.212454212454	0.4	0.2728426395939086	0.4196547144754316
2941.436767578125	-16.44521965446727	-12.83955891821883	23.47803455327342	68.89731798288801	-5.344666532797456	-36.13595191196369	3507.035897435897	3655.677655677655	0.4064102564102564	0.2791878172588833	0.4169986719787516
2960.968017578125	-17.28500048630168	-12.17753412421992	23.49995136983181	68.22748755286267	-6.51201191235417	-34.84571406968112	3508.492307692307	3664.468864468864	0.417948717948718	0.25	0.4342629482071713
2980.499267578125	-18.16868635757578	-11.74193447115615	23.131364242422	66.50065428429566	-3.933863621726505	-35.19419649393547	3511.405128205128	3663.003663003663	0.4243589743589744	0.248730964467005	0.4302788844621514
3000.030517578125	-18.47599023949435	-10.40540370426456	24.40097605056552	65.49056479277451	-1.361316129085359	-34.8781564672753	3525.969230769231	3667.399267399267	0.417948717948718	0.2347715736040609	0.4568393094289509
3019.561767578125	-18.9134856996527	-10.55737944335078	24.65143003473056	65.20306918392281	1.950844020398196	-33.950994953855	3523.05641025641	3668.864468864469	0.4192307692307692	0.2182741116751269	0.4462151394422311
3039.093017578125	-17.87955661598049	-9.638570894782781	24.04433840195111	63.13372681323551	2.263076748352433	-33.34674040292411	3521.6	3668.864468864469	0.4205128205128205	0.2030456852791878	0.448871181938911
3058.624267578125	-18.1111464038914	-8.606203670531226	24.88535961086016	62.46153384055445	2.224576750099076	-32.51153577626625	3511.405128205128	3671.794871794872	0.4269230769230769	0.200507614213198	0.4621513944223107
3078.155517578125	-17.64570460189128	-7.327069121320573	23.42953981087173	60.75641346401372	3.279222533888981	-31.62842096403249	3520.14358974359	3670.32967032967	0.417948717948718	0.1916243654822335	0.4661354581673307
3097.686767578125	-19.15741770113499	-6.666392737238274	24.25822988650088	59.03194273810243	4.728525443213288	-31.52187017266213	3524.51282051282	3671.794871794872	0.4294871794871795	0.1649746192893401	0.4594953519256308
3117.218017578125	-18.07715206961377	-5.600537948151622	24.2847930386222	58.40486307994227	6.147376757437877	-29.6686721661338	3509.948717948718	3670.32967032967	0.4282051282051282	0.1535532994923858	0.4727755644090305
3136.749267578125	-18.31004994749173	-4.297618783802584	24.99500525082702	56.317970392384	4.223969120905334	-28.90421472273968	3528.882051282051	3674.725274725275	0.417948717948718	0.1472081218274112	0.4754316069057105
3156.280517578125	-18.12024147648577	-3.866248416441675	23.97585235142252	55.27278026712088	2.32523588457292	-28.26776891115306	3534.707692307692	3676.190476190476	0.4282051282051282	0.1383248730964467	0.4754316069057105
3175.811767578125	-18.15225059187224	-3.835457671439809	24.77494081277631	53.85864306239978	1.941780355011557	-28.82024979211871	3540.533333333333	3671.794871794872	0.4333333333333334	0.1281725888324873	0.4714475431606905
3195.343017578125	-18.31094252652807	-3.065948048206654	24.90574734719354	54.89393300891516	-0.2802108083350643	-28.41312676206989	3534.707692307692	3676.190476190476	0.4384615384615385	0.1129441624365482	0.4873837981407702
3214.874267578125	-19.7019900203508	-2.099451617907228	25.80099796491979	55.61596438142853	-1.04205026021048	-27.32027157760786	3498.297435897436	3668.864468864469	0.4269230769230769	0.116751269035533	0.4833997343957503
3234.405517578125	-18.46292472911766	-2.072446023591172	25.70752708823482	52.84742855056638	1.511423630217058	-27.54074237005471	3546.358974358974	3676.190476190476	0.4371794871794872	0.1027918781725888	0.4794156706507304
3253.936767578125	-18.77789247931371	-0.5743285958931514	26.21075206862886	53.22458827830372	-0.3874860030284257	-25.95018342603214	3525.969230769231	3683.516483516483	0.4269230769230769	0.08502538071065989	0.49535192563081
3273.468017578125	-19.12637749568177	-0.2746664216691105	27.36225043182358	52.91076719414559	-0.4287864002750422	-24.78271757391702	3527.425641025641	3683.516483516483	0.4397435897435897	0.07233502538071066	0.4807436918990704
3292.999267578125	-19.25513786960467	1.658458479069945	26.48621303953324	52.19458592725587	1.0782665064293	-25.92897372253345	3537.620512820513	3682.051282051282	0.4358974358974359	0.06852791878172589	0.4940239043824701
3312.530517578125	-19.78946153476811	1.601202303961943	25.0538465231892	51.87423972528674	5.924954361810584	-26.60834121499437	3533.251282051282	3680.58608058608	0.4346153846153846	0.04314720812182741	0.49535192563081
3332.061767578125	-19.73516872206074	1.855597332358267	26.48312779392627	50.52096611945791	11.86478799923513	-27.23979852187939	3534.707692307692	3679.120879120879	0.4461538461538462	0.04187817258883248	0.4926958831341301
3351.593017578125	-18.861547448886	2.584009077221013	25.84525511140001	50.54436654195254	14.84564181855084	-27.45340237849702	3520.14358974359	3674.725274725275	0.4346153846153846	0.02918781725888325	0.49667994687915
3371.124267578125	-18.57601880202351	2.691009759274512	26.39811979764925	50.88518811360449	12.6072010550708	-26.96093826057653	3508.492307692307	3674.725274725275	0.4217948717948718	0.01269035532994924	0.49800796812749
3390.655517578125	-18.61442986360161	2.728266469929935	26.55701363983881	50.5432415216403	11.84273760111519	-26.48993498309319	3525.969230769231	3680.58608058608	0.4320512820512821	0.01776649746192893	0.49933598937583
3410.186767578125	-18.36646586716208	3.756284371987545	27.35341328379212	50.54267901148418	10.34128549239737	-26.00820128539128	3534.707692307692	3683.516483516483	0.4256410256410256	-0.002538071065989848	0.5033200531208499
3429.718017578125	-17.98437124885966	4.424214961348249	25.56287511403466	50.90048838985097	8.837032984686287	-25.19420636223211	3527.425641025641	3683.516483516483	0.417948717948718	-0.005076142131979695	0.4873837981407702
3449.249267578125	-16.85549145401741	4.942507907019118	26.4508545982594	51.60553195564948	7.341005277041914	-24.42288198300876	3540.533333333333	3682.051282051282	0.4038461538461539	-0.02284263959390863	0.49535192563081
3468.780517578125	-17.34635636925933	6.227512240644233	25.36436307406682	50.92985142000048	5.428446442656271	-23.07924317657179	3547.815384615385	3690.84249084249	0.4205128205128205	-0.03045685279187817	0.4913678618857901
3488.311767578125	-17.49723054270037	5.450664386588907	26.27694572996344	51.61261958361661	3.954469133131835	-23.05778233613464	3531.794871794872	3684.981684981685	0.4256410256410256	-0.03172588832487309	0.49800796812749
3507.843017578125	-18.14674122471693	7.38974709850256	25.32587752830706	50.59904252912748	4.652957789640697	-22.23330812969535	3546.358974358974	3692.307692307692	0.4141025641025641	-0.05583756345177664	0.5099601593625498
3527.374267578125	-17.94720672007367	7.503601864197484	25.27932799263283	49.58310293198267	6.480291827452916	-21.86386713888077	3525.969230769231	3690.84249084249	0.4205128205128205	-0.05583756345177664	0.5166002656042497
3546.905517578125	-18.67173897788004	8.015379444581921	24.82610221199552	48.89853473586694	10.58456662699853	-22.82209489264454	3547.815384615385	3689.377289377289	0.4256410256410256	-0.07994923857868019	0.5059760956175299
3566.436767578125	-17.10459425819295	8.761794046928728	25.54057418070478	49.27625697376042	10.18710910247087	-21.71326964632388	3536.164102564102	3690.84249084249	0.4256410256410256	-0.08121827411167512	0.49933598937583
3585.968017578125	-17.34794146651351	9.190651650409416	25.20585334864875	47.88439517122171	9.78160317478957	-21.51588698850334	3536.164102564102	3693.772893772893	0.4141025641025641	-0.09771573604060913	0.5086321381142098
3605.499267578125	-17.35885247576802	9.470902538987236	24.11475242319818	46.50130852711848	10.49391742935166	-21.39860577691441	3547.815384615385	3695.238095238095	0.4064102564102564	-0.100253807106599	0.50199203187251
3625.030517578125	-17.14933031949405	10.61313131499668	25.06696805059507	46.1593619351543	9.729453975396055	-20.92760249943107	3537.620512820513	3689.377289377289	0.408974358974359	-0.116751269035533	0.4940239043824701
3644.561767578125	-16.43929477638125	11.34676464722198	24.07052236187493	45.1258720211385	9.321147648721494	-20.39795861615327	3562.379487179487	3696.703296703297	0.4076923076923077	-0.1180203045685279	0.4913678618857901
3664.093017578125	-17.15742508799598	10.85207626195286	24.25749120040184	45.12767205363809	6.690850158700311	-19.46119170282665	3539.076923076923	3695.238095238095	0.4217948717948718	-0.1345177664974619	0.49933598937583
3683.624267578125	-16.63775203046341	12.53951416615266	24.22479695365852	45.48255637919304	4.813990923574766	-18.62049629759027	3530.338461538461	3698.168498168498	0.4064102564102564	-0.1370558375634518	0.50066401062417
3703.155517578125	-15.47780186715223	12.37411834736221	24.21981328477703	44.77053768745863	2.561900958954566	-18.37495231725538	3547.815384615385	3701.098901098901	0.4141025641025641	-0.1446700507614213	0.4887118193891102
3722.686767578125	-17.325735331233	13.66976191531456	23.42646687669974	43.75988568578134	3.63299634287789	-17.57717859289329	3536.164102564102	3699.6336996337	0.4102564102564102	-0.1611675126903553	0.49535192563081
3742.218017578125	-17.43738281052825	13.81637202324891	24.26171894717532	42.34338593840454	4.378386194619886	-18.58469268948365	3533.251282051282	3693.772893772893	0.3987179487179487	-0.1535532994923858	0.49535192563081
3761.749267578125	-16.59657089601393	13.57638275882022	24.34291039860733	41.32215874579218	6.961958886321003	-18.64358443221658	3547.815384615385	3696.703296703297	0.4051282051282051	-0.1814720812182741	0.4887118193891102
3781.280517578125	-16.15201175003355	15.06737802138004	24.79882499664513	41.32800885141583	7.707172341149929	-18.69698539637098	3544.902564102564	3695.238095238095	0.4102564102564102	-0.1852791878172589	0.4847277556440903
3800.811767578125	-15.95794044466441	15.84059677218797	24.20595553355912	40.65052828326724	8.424910996785469	-18.29011350326062	3541.989743589743	3698.168498168498	0.3923076923076923	-0.1852791878172589	0.49535192563081
3820.343017578125	-15.2056311272473	15.87922590005823	23.43688727527014	40.35662005863578	9.490405582722273	-16.82781732798402	3448.779487179487	3598.534798534799	0.4051282051282051	-0.1916243654822335	0.4940239043824701
3839.874267578125	-16.36201097441314	16.11793877646497	23.79890255868553	40.38182051362999	9.840961912016798	-16.10465427127503	3445.866666666666	3597.069597069597	0.3923076923076923	-0.1941624365482233	0.4926958831341301
3859.405517578125	-16.08717788669294	16.96651120402141	23.28221133070607	40.72849219090559	8.347734603365685	-15.66559111750895	3437.128205128205	3594.139194139194	0.3961538461538461	-0.217005076142132	0.4887118193891102
3878.936767578125	-15.44342280053136	16.41785702853667	23.65771994686384	39.70670248813711	9.429855186348977	-15.24274916253996	3460.430769230769	3595.604395604395	0.3884615384615385	-0.2119289340101523	0.4780876494023904
3898.468017578125	-15.28494631598775	17.1870265483784	23.50536840122474	39.71491513641647	9.046223259874545	-14.84111691106966	3463.343589743589	3605.860805860806	0.3948717948717949	-0.2258883248730964	0.4727755644090305
3917.999267578125	-15.72973630137408	18.27318751054166	23.02636986259207	39.72312778469584	8.662591333400112	-14.43948465959936	3474.994871794872	3605.860805860806	0.3858974358974359	-0.2258883248730964	0.4701195219123506
3937.530517578125	-15.45371823803667	18.15902465118627	22.62817619633291	39.76002845093737	10.50357457235249	-13.82312353119919	3464.8	3604.395604395604	0.3961538461538461	-0.233502538071066	0.4780876494023904
3957.061767578125	-14.93036713930266	18.65044004146491	22.96328606973443	38.03792026768178	10.82403210037344	-13.26153952420413	3489.558974358974	3608.791208791209	0.391025641025641	-0.2423857868020304	0.4820717131474103
3976.593017578125	-15.72005643561797	19.0711031538203	23.99435643820336	36.98744254695114	9.68153751792992	-13.05342644616501	3461.887179487179	3604.395604395604	0.3858974358974359	-0.2411167512690355	0.4780876494023904
3996.124267578125	-15.36954003247756	18.69246620203311	23.04599675224345	38.76523923566268	9.305953994609126	-11.74035160619459	3451.692307692307	3610.25641025641	0.3743589743589744	-0.25	0.4807436918990704
4015.655517578125	-14.73601882664638	19.73107132260515	22.39811733536225	38.04905796877297	10.81300690131347	-12.88660775481103	3486.646153846154	3608.791208791209	0.3846153846153846	-0.2652284263959391	0.4714475431606905
4035.186767578125	-14.50073560824029	19.46420450278423	21.92643917597103	37.74693709586215	12.26213341372471	-11.82594383100472	3463.343589743589	3610.25641025641	0.3756410256410256	-0.2690355329949238	0.4674634794156706
4054.718017578125	-14.33967372235006	19.7692243057274	22.0326277649944	39.47084531161733	9.311378395682578	-11.45076092467316	3467.71282051282	3614.652014652014	0.3794871794871795	-0.2741116751269035	0.4674634794156706
4074.249267578125	-13.46068158566358	20.06913455536636	21.93184143364198	38.44905560884884	10.39349897866587	-11.02791896970418	3461.887179487179	3610.25641025641	0.3717948717948718	-0.2715736040609137	0.4727755644090305
4093.780517578125	-13.87003064316168	21.5441155649779	20.9969356838325	37.41669071514528	12.98809686942696	-11.4617424818302	3474.994871794872	3611.721611721612	0.3807692307692308	-0.2906091370558375	0.4648074369189907
4113.311767578125	-12.78842614308596	21.26246425067066	21.15738569140403	36.3972635550325	12.94137207110689	-10.5838673112365	3477.907692307692	3616.117216117216	0.3666666666666666	-0.3020304568527918	0.4594953519256308
4132.843017578125	-13.23049222348209	21.53818176110153	20.95077765179076	36.40075111800045	14.81543090723918	-11.09230149101562	3477.907692307692	3611.721611721612	0.3666666666666666	-0.3032994923857868	0.4581673306772908
4152.374267578125	-13.80361168256689	22.48010933785409	19.6388317433115	37.12683256363788	17.42910240021387	-10.98961418403462	3457.517948717949	3616.117216117216	0.3743589743589744	-0.2969543147208122	0.4714475431606905
4171.905517578125	-13.24391168761457	23.09019695833687	19.60883123854267	33.63570285010624	19.242963633799	-11.82120646324158	3488.102564102564	3611.721611721612	0.3692307692307693	-0.3147208121827411	0.4528552456839309
4191.436767578125	-12.64549284520956	21.89348623520012	19.45071547904409	32.30425463833491	16.52464094821113	-8.839098527206138	3472.082051282051	3620.51282051282	0.3602564102564103	-0.3147208121827411	0.4648074369189907
4210.968017578125	-13.08348076276727	22.97277710885648	19.65192372327341	33.33425698938277	15.05888843875341	-8.860308230704826	3463.343589743589	3620.51282051282	0.3525641025641026	-0.3350253807106599	0.450199203187251
4230.499267578125	-14.37283765033801	23.68733525761062	18.71623496619895	31.57401061754218	17.67011232656098	-10.33358596313847	3476.451282051281	3616.117216117216	0.3576923076923077	-0.3210659898477157	0.4528552456839309
4250.030517578125	-13.73666948598528	23.10788233469128	18.3330514014722	30.2055492374981	20.24546021819539	-10.34980716193556	3467.71282051282	3614.652014652014	0.3525641025641026	-0.3324873096446701	0.4435590969455511
4269.561767578125	-12.90289047870553	24.45191938349258	17.71095212944735	26.72848227786948	22.42090298013501	-10.83316815382663	3477.907692307692	3614.652014652014	0.3538461538461539	-0.3248730964467005	0.4435590969455511
4289.093017578125	-10.86524087938118	23.81850867279037	17.4759120618822	24.63573948468754	19.75228188877354	-10.0153097462781	3464.8	3613.186813186813	0.3525641025641026	-0.3401015228426396	0.4395750332005312
4308.624267578125	-10.22922660796574	24.6238265663531	17.07733920342553	20.47365432081831	17.39589352536631	-8.593196787798666	3458.974358974359	3614.652014652014	0.341025641025641	-0.3375634517766497	0.4395750332005312
4328.155517578125	-9.912073578060038	23.66196354460987	16.7926421939962	15.94093454702272	12.05042654257666	-6.91480942876577	3479.364102564102	3617.582417582417	0.3346153846153846	-0.3464467005076142	0.4409030544488711
4347.686767578125	-10.1063603335414	24.42742393687681	17.36396664586034	14.90631961269468	8.639215998466455	-5.421698150084142	3466.25641025641	3619.047619047619	0.3333333333333333	-0.3477157360406091	0.4395750332005312
4367.218017578125	-11.86994630983204	25.83326115754574	17.00536901679649	13.21177442708902	8.181384474478568	-3.681917870755379	3480.820512820513	3626.373626373626	0.3307692307692308	-0.3540609137055837	0.447543160690571
4386.749267578125	-12.05366062052095	25.16496645749538	18.63393794790539	10.10016698395043	6.967490693514854	-2.467917990315065	3473.538461538461	3626.373626373626	0.3333333333333333	-0.3515228426395939	0.4541832669322709
4406.280517578125	-11.86314424200342	24.82639106903883	17.68557579965848	7.339843801367637	9.13733265746796	-2.286756531291612	3495.384615384615	3629.304029304029	0.332051282051282	-0.3540609137055837	0.4435590969455511
4425.811767578125	-11.9092653397402	25.1406656854453	17.07346602597959	5.951469561796875	10.60588556591894	-2.597808053250185	3489.558974358974	3624.908424908425	0.3333333333333333	-0.3553299492385786	0.4462151394422311
4445.343017578125	-10.50455215308531	25.00652075153923	17.54478469146928	3.156045745472136	8.304446800898488	-2.096240809300286	3469.169230769231	3623.443223443223	0.332051282051282	-0.3565989847715736	0.4462151394422311
4464.874267578125	-10.45586104329562	25.26657349988242	18.41389567043766	3.499229859779787	4.937160656115089	-1.148743475755093	3464.8	3626.373626373626	0.3333333333333333	-0.3553299492385786	0.448871181938911
4484.405517578125	-10.21326791036783	25.72309289716381	18.67320896321713	1.039340019639455	1.153519781503488	-0.5830448474322116	3493.928205128205	3626.373626373626	0.3179487179487179	-0.3616751269035533	0.4448871181938911
4503.936767578125	-11.2430111061455	25.33851814028387	19.69888938545009	1.733245884346776	-0.3314827270809162	-0.1866522376019687	3473.538461538461	3629.304029304029	0.3256410256410257	-0.350253807106599	0.447543160690571
4523.468017578125	-11.28105282467409	24.45232489138236	19.89471753259144	1.343260925049869	-2.925904220928932	-0.7069418579118996	3473.538461538461	3627.838827838828	0.3307692307692308	-0.3578680203045685	0.4448871181938911
4542.999267578125	-10.32514622906902	24.44685922982125	19.48537709309784	2.082280104278084	-2.953555417035389	0.707444131788817	3493.928205128205	3632.234432234432	0.341025641025641	-0.350253807106599	0.4355909694555112
4562.530517578125	-11.6805835127725	25.37892780943869	19.94164872275017	4.498856662397109	-3.257563344922917	0.06051903692208283	3480.820512820513	3624.908424908425	0.3397435897435898	-0.3616751269035533	0.4435590969455511
4582.061767578125	-11.35107288000167	24.51996822418631	20.89271199983256	4.799740012964469	-0.5749402585951493	-2.418645497912757	3477.907692307692	3621.978021978022	0.3307692307692308	-0.3515228426395939	0.447543160690571
4601.593017578125	-11.79640149066855	24.95282704403677	20.35985093314521	5.127623851025633	-0.1720583329940384	-3.237880062711989	3483.733333333333	3619.047619047619	0.3294871794871795	-0.348984771573604	0.4409030544488711
4621.124267578125	-10.5570284135608	24.21029100538872	20.29715864392006	6.552898756837924	0.2003719975073557	-2.310467412353241	3460.430769230769	3621.978021978022	0.3358974358974359	-0.3591370558375635	0.450199203187251
4640.655517578125	-11.27124984456813	24.94242388147535	20.87501554318667	8.975887930736729	2.143029633166577	-3.492527169076296	3480.820512820513	3621.978021978022	0.3384615384615385	-0.3553299492385786	0.4422310756972112
4660.186767578125	-10.95575885838526	24.13608567773834	20.42411416147431	9.329534733948226	4.397919996780036	-4.07033237486845	3463.343589743589	3619.047619047619	0.3384615384615385	-0.3642131979695431	0.4462151394422311
4679.718017578125	-11.39961009685406	23.87514465936106	20.0389903145941	9.002775916199305	6.997942288614572	-4.214565205473043	3470.625641025641	3619.047619047619	0.332051282051282	-0.3477157360406091	0.4462151394422311
4699.249267578125	-10.25672666028934	25.3808323884307	18.32733397106566	7.986273808898358	7.323824217708968	-3.36339051695655	3472.082051282051	3621.978021978022	0.3346153846153846	-0.3527918781725888	0.4435590969455511
4718.780517578125	-11.1643422677417	24.64675492118835	19.56577322582988	7.641402164122344	6.186754036338899	-2.865686757396007	3486.646153846154	3624.908424908425	0.3346153846153846	-0.3578680203045685	0.4528552456839309
4738.311767578125	-10.70353264315429	24.50749104650891	17.64673568457118	7.282467765443308	4.688102326614335	-2.716214285151358	3488.102564102564	3626.373626373626	0.3294871794871795	-0.3629441624365482	0.448871181938911
4757.843017578125	-10.38325558662141	24.73478045017993	17.67444133785902	6.23199004471266	3.545607744170817	-2.508101207112242	3477.907692307692	3621.978021978022	0.3269230769230769	-0.3578680203045685	0.4555112881806109
4777.374267578125	-10.58512926391162	25.46944209501227	17.48707360883862	4.574345525348529	4.92875945913531	-0.1519597993833067	3469.169230769231	3626.373626373626	0.3269230769230769	-0.3654822335025381	0.4409030544488711
4796.905517578125	-10.05985450346136	25.15122227926521	18.014549653864	1.83281018198017	5.20249218883619	1.287499378205455	3479.364102564102	3627.838827838828	0.3294871794871795	-0.3578680203045685	0.4448871181938911
4816.436767578125	-11.16769713377482	25.03475872049718	19.23028662251786	0.8157455645231012	4.026922009212765	2.62040776442386	3477.907692307692	3633.699633699634	0.3256410256410257	-0.3578680203045685	0.4395750332005312
4835.968017578125	-11.09904672558919	25.39157565438354	18.09532744108055	0.4568111658440661	2.528270299488201	2.769880236668509	3477.907692307692	3632.234432234432	0.3243589743589744	-0.3578680203045685	0.4422310756972112
4855.499267578125	-11.53291031242729	24.15900864632079	18.70896875727144	-2.326912439233358	1.717258444125599	3.164645552309593	3491.015384615384	3633.699633699634	0.3256410256410257	-0.3578680203045685	0.4528552456839309
4875.030517578125	-10.13918508149554	25.49750000923357	18.08149185044561	-4.060158323580135	2.048741171206515	3.351297789911562	3496.841025641026	3635.164835164835	0.3243589743589744	-0.3565989847715736	0.447543160690571
4894.561767578125	-10.05588406567904	25.22413521402814	18.41159343209566	-5.808029471986053	0.5171902612151139	3.67145243789955	3511.405128205128	3635.164835164835	0.3346153846153846	-0.3464467005076142	0.4581673306772908
4914.093017578125	-11.09903133629546	25.35309857273534	18.09686637045354	-6.831506705222899	-2.905045481955061	5.539495485974275	3499.753846153846	3638.095238095238	0.3243589743589744	-0.3565989847715736	0.447543160690571
4933.624267578125	-11.65117518802639	24.85076386298357	18.88248119736092	-7.164678138751599	-2.551688753667276	5.930397317226002	3476.451282051281	3635.164835164835	0.3346153846153846	-0.3515228426395939	0.451527224435591
4953.155517578125	-10.60479616572669	24.64161335815319	19.52038342733114	-8.211668296514297	-1.820124499978509	5.630076215486001	3511.405128205128	3638.095238095238	0.3282051282051282	-0.3642131979695431	0.447543160690571
4972.686767578125	-9.773510224031181	23.2189376339638	18.64897759688176	-10.28742328298138	-3.754557335571021	6.769465428273221	3482.276923076923	3639.560439560439	0.3423076923076923	-0.3527918781725888	0.4541832669322709
4992.218017578125	-12.05121372281789	24.04711047543068	18.87862771821095	-11.35725135308259	-4.502394792480138	6.201014485448939	3482.276923076923	3633.699633699634	0.3307692307692308	-0.3477157360406091	0.448871181938911
5011.749267578125	-12.0060159827049	24.04146075791656	19.39840172951038	-12.03124435826323	-1.910597300712313	6.099452198780181	3496.841025641026	3639.560439560439	0.3230769230769231	-0.3464467005076142	0.4448871181938911
5031.280517578125	-11.80311122273479	23.72883464265444	19.68887772652117	-13.76921532792142	0.6785761889753218	5.376038005132734	3496.841025641026	3638.095238095238	0.341025641025641	-0.3324873096446701	0.4541832669322709
5050.811767578125	-10.40349189230449	23.33060373430446	19.65081076955086	-16.55237642284272	1.369016442330542	5.289069623071905	3505.579487179487	3633.699633699634	0.3384615384615385	-0.3248730964467005	0.4555112881806109
5070.343017578125	-10.85060566104404	22.22680402534678	18.93943389559657	-17.5787787088914	-2.425826028254097	7.183813153223833	3492.471794871794	3636.630036630037	0.3358974358974359	-0.3197969543147208	0.4555112881806109
5089.874267578125	-10.72426140623673	23.33458094337602	19.57385937632732	-18.58470562525727	-3.612421406937491	8.891653308835334	3476.451282051281	3639.560439560439	0.3371794871794872	-0.3147208121827411	0.4674634794156706
5109.405517578125	-11.31326200087904	22.9833176978109	20.67379991209635	-17.22501940364867	-7.305589480815288	8.987975953864035	3467.71282051282	3636.630036630037	0.3384615384615385	-0.3261421319796954	0.4594953519256308
5128.936767578125	-12.40520810634125	23.12156787971235	19.47918936587491	-19.69492192456796	-8.075300938931274	8.215275417389996	3495.384615384615	3643.956043956044	0.3358974358974359	-0.3058375634517767	0.4674634794156706
5148.468017578125	-12.31396621496012	21.99402895403279	20.60337850398829	-22.11442353549881	-8.14389973845821	8.888900994333934	3482.276923076923	3639.560439560439	0.3423076923076923	-0.3121827411167513	0.4594953519256308
5167.999267578125	-12.39309673217582	19.84010462257449	20.69032678241877	-23.84598188937722	-3.308060685223825	7.630352138830166	3501.210256410256	3636.630036630037	0.3448717948717949	-0.315989847715736	0.4727755644090305
5187.530517578125	-11.99441245523255	22.02974119516948	20.55875447674554	-25.12297911803606	-1.94975976737253	11.06861831080256	3479.364102564102	3629.304029304029	0.3538461538461539	-0.2969543147208122	0.4820717131474103
5207.061767578125	-11.23680922077235	21.83225423605699	20.31907792276544	-26.25727085202871	-3.760291411225192	8.705609967244405	3492.471794871794	3639.560439560439	0.3487179487179487	-0.2842639593908629	0.4767596281540504
5226.593017578125	-10.74103512083058	20.27306085665427	21.89648791694213	-27.99107924653161	-4.930260792862099	9.373995902548286	3504.123076923077	3642.490842490842	0.3448717948717949	-0.2931472081218274	0.4860557768924302
5246.124267578125	-11.85472568276141	20.77788832420441	22.52743172385944	-26.91067598549533	-5.694900643730774	10.79911231246758	3480.820512820513	3643.956043956044	0.3435897435897436	-0.2906091370558375	0.4727755644090305
5265.655517578125	-11.77202484940037	20.00512971327899	22.79751505996284	-27.95417858029008	-3.08927755390972	9.990357030948458	3505.579487179487	3641.025641025641	0.3346153846153846	-0.2842639593908629	0.4926958831341301
5285.186767578125	-12.89895020393892	19.600247398286	22.10497960610795	-26.94352657861279	-4.160372937833044	9.192583306586375	3488.102564102564	3641.025641025641	0.3397435897435898	-0.2677664974619289	0.4887118193891102
5304.718017578125	-12.81169413963383	19.43827261949171	22.83058603661667	-29.40757899390842	-4.184870941120103	8.366481805957927	3483.733333333333	3636.630036630037	0.3487179487179487	-0.2614213197969543	0.4940239043824701
5324.249267578125	-13.04977820949877	19.70796829928606	23.02217905012354	-30.13658549235768	-7.17114916150926	8.290494981054131	3501.210256410256	3636.630036630037	0.3615384615384615	-0.2563451776649746	0.50066401062417
5343.780517578125	-13.37982746755014	18.91362574222563	22.01725324498647	-31.89559434185479	-8.691674872440693	8.235717859649022	3492.471794871794	3633.699633699634	0.3564102564102564	-0.248730964467005	0.49667994687915
5363.311767578125	-13.89109797070617	18.21770125810554	22.89020292938283	-30.16122343719577	-6.020253382085962	7.08559822664323	3492.471794871794	3633.699633699634	0.358974358974359	-0.2347715736040609	0.49667994687915
5382.843017578125	-13.20320700569896	18.31831599883288	23.67929943010367	-30.84455411096802	-6.047728181279351	7.545871083907994	3488.102564102564	3629.304029304029	0.3512820512820513	-0.2474619289340101	0.4926958831341301
5402.374267578125	-12.9980092409631	18.27260471798811	24.19907590369011	-31.8774815148277	-4.954582399236089	7.593781269483887	3476.451282051281	3632.234432234432	0.3461538461538462	-0.2296954314720812	0.5073041168658699
5421.905517578125	-13.07760143699069	18.27299283597598	24.23985630093086	-33.27058083970987	-1.228338728178385	6.372663316275895	3495.384615384615	3635.164835164835	0.3602564102564103	-0.2258883248730964	0.5046480743691899
5441.436767578125	-12.59806304193398	16.30712059543024	24.19369580660213	-35.3311480519617	0.2017141820192428	6.896816420975184	3482.276923076923	3633.699633699634	0.3628205128205128	-0.2119289340101523	0.50199203187251
5460.968017578125	-13.96241072670707	14.51741944935876	23.75892732929272	-35.01496442514785	-0.8858308020375	6.184383784484768	3483.733333333333	3632.234432234432	0.3564102564102564	-0.2119289340101523	0.5152722443559097
5480.499267578125	-13.67432745708542	15.23722457781011	24.56725429145844	-34.61856685007115	3.955256255357265	6.169538742938379	3470.625641025641	3632.234432234432	0.3448717948717949	-0.2043147208121827	0.5179282868525896
5500.030517578125	-13.34501688513308	16.87846705398441	25.49831148669195	-35.66499449767774	6.188272617763856	5.387483943496467	3483.733333333333	3627.838827838828	0.3666666666666666	-0.2081218274111675	0.5179282868525896
5519.561767578125	-13.51160352747235	15.38671956274707	24.83964725276483	-36.35653781972935	6.544429745044901	5.446124549290932	3495.384615384615	3630.769230769231	0.3692307692307693	-0.1865482233502538	0.5179282868525896
5539.093017578125	-12.43321538978619	15.14677831291482	24.67846102138127	-35.65385679658655	6.177247418703886	5.762415712889564	3493.928205128205	3629.304029304029	0.3525641025641026	-0.1852791878172589	0.5192563081009296
5558.624267578125	-11.87143784018034	13.56245991088983	24.85621598196621	-34.63611716694213	1.719615890870485	6.329741635401604	3463.343589743589	3627.838827838828	0.3538461538461539	-0.1687817258883249	0.5285524568393094
5578.155517578125	-12.1036739784279	13.21086456436603	25.63260215720963	-38.09844636048039	-1.376561526292225	8.094846239556869	3505.579487179487	3632.234432234432	0.3576923076923077	-0.1687817258883249	0.5139442231075697
5597.686767578125	-13.3428162161297	13.376244378291	25.71837838702965	-36.39332598393966	-2.431207310082129	7.211731427323115	3489.558974358974	3635.164835164835	0.3525641025641026	-0.1535532994923858	0.5312084993359894
5617.218017578125	-13.53162438304322	12.44386370379672	26.83756169567856	-36.74292271402708	-1.31058672884548	6.799368755634241	3482.276923076923	3632.234432234432	0.3487179487179487	-0.1472081218274112	0.5179282868525896
5636.749267578125	-13.37350185225539	12.09800610154718	26.64981477446066	-37.1036571452057	-0.1789409485488607	6.012074314552272	3493.928205128205	3630.769230769231	0.3641025641025641	-0.1535532994923858	0.5298804780876494
5656.280517578125	-13.01055089978123	11.62988717800981	26.94491002187742	-36.73471006574773	-1.694218655319912	7.201001007104542	3482.276923076923	3632.234432234432	0.3512820512820513	-0.1281725888324873	0.5285524568393094
5675.811767578125	-12.37058157987721	10.54659508798367	26.94184201227942	-37.4344660360787	-0.9544296015644351	6.858009361428707	3498.297435897436	3635.164835164835	0.3512820512820513	-0.1192893401015228	0.548472775564409
5695.343017578125	-13.18343176325603	10.87526608088859	25.65682367439701	-36.07365479415786	-1.644693458006586	5.990864611053584	3488.102564102564	3629.304029304029	0.3512820512820513	-0.1142131979695431	0.5444887118193891
5714.874267578125	-12.854275084241	9.901279373544941	26.57249157590061	-36.06487963572238	-0.5268732757631958	5.910763164821972	3477.907692307692	3629.304029304029	0.367948717948718	-0.1154822335025381	0.5391766268260292
5734.405517578125	-12.93622184220926	9.788660983708278	26.37781577907376	-35.33936070024105	0.5853461084936753	6.495184169504883	3495.384615384615	3635.164835164835	0.3551282051282051	-0.1053299492385787	0.5365205843293492
5753.936767578125	-12.38095396385117	9.480148118874292	25.90460361488354	-35.35106091148837	-0.9050808011641784	6.601986097813699	3480.820512820513	3632.234432234432	0.358974358974359	-0.09771573604060913	0.545816733067729
5773.468017578125	-13.3982779995888	8.044568471892378	28.17220004112019	-34.6173293277277	-0.1764933433817397	7.588039353966912	3482.276923076923	3630.769230769231	0.341025641025641	-0.09517766497461928	0.545816733067729
5792.999267578125	-14.19787800106617	8.244472165692216	28.21219989338297	-35.97994060214813	3.144068003081594	7.518417191015415	3488.102564102564	3632.234432234432	0.3551282051282051	-0.08121827411167512	0.545816733067729
5812.530517578125	-13.56338726973	6.859021142427297	27.6612730270002	-36.6773340298234	2.755011675533711	7.630458760964288	3492.471794871794	3630.769230769231	0.3551282051282051	-0.06852791878172589	0.5365205843293492
5832.061767578125	-13.80434913752242	7.323931090436108	27.56508624775778	-36.33009984239168	2.763236475600421	7.587788217028454	3495.384615384615	3632.234432234432	0.3576923076923077	-0.07106598984771573	0.5537848605577689
5851.593017578125	-13.42984082545709	5.959523849096279	29.01591745429072	-35.95766519996574	3.122017604961656	8.268280729801608	3502.666666666666	3638.095238095238	0.3512820512820513	-0.05456852791878172	0.547144754316069
5871.124267578125	-12.27309163524173	5.797361013132607	28.69083647582711	-34.20855652921635	0.5218189162140514	9.366626692842152	3473.538461538461	3639.560439560439	0.3512820512820513	-0.05837563451776649	0.5431606905710491
5890.655517578125	-12.44555698778583	5.003858711509837	27.44430122141746	-35.26432184541454	0.1355629876594286	9.146407037333763	3499.753846153846	3638.095238095238	0.358974358974359	-0.03553299492385786	0.5418326693227091
5910.186767578125	-12.16336781766272	5.460386111223965	27.66321823372767	-35.25374665447946	-1.376914320118363	10.00307250442877	3492.471794871794	3642.490842490842	0.358974358974359	-0.03172588832487309	0.5537848605577689
5929.718017578125	-12.72105181513642	4.809800794826242	27.89481848635831	-33.52398833310063	-3.582455883331565	10.32485444660592	3489.558974358974	3641.025641025641	0.3564102564102564	-0.0215736040609137	0.548472775564409
5949.249267578125	-13.39686218456565	4.504676960257456	28.31378154343535	-34.89649978626879	-4.382618936547268	11.29880112528986	3508.492307692307	3646.886446886447	0.3538461538461539	-0.0266497461928934	0.548472775564409
5968.780517578125	-13.83532717022898	3.776757365008193	28.46728297710196	-35.2548716747917	-4.379818537554009	10.96653989983259	3483.733333333333	3639.560439560439	0.3653846153846154	-0.01649746192893401	0.547144754316069
5988.311767578125	-14.71882836997832	3.750632038293487	28.11716300216804	-35.61853115878215	-3.620779484671853	10.20594594082783	3515.774358974359	3642.490842490842	0.358974358974359	0.001269035532994924	0.548472775564409
6007.843017578125	-13.638455013401	2.547147255842699	28.1544986599003	-33.85187217116179	-3.985337808932677	11.14408901140515	3498.297435897436	3645.421245421245	0.3615384615384615	0.007614213197969543	0.5431606905710491
6027.374267578125	-15.11124920437351	1.900823234878788	28.87507956264858	-33.42959912890355	-4.426896129700213	13.75264133529819	3483.733333333333	3645.421245421245	0.3641025641025641	0.01522842639593909	0.5444887118193891
6046.905517578125	-13.86990629766834	1.233220745260405	29.00937023316626	-34.76464740567406	-1.884623835245714	14.86121544468039	3509.948717948718	3651.282051282051	0.3641025641025641	0.02918781725888325	0.5405046480743692
6066.436767578125	-13.32111731197053	1.123559254321006	27.88826880294686	-32.28011962069564	0.7481212599425888	15.50041357076841	3505.579487179487	3658.608058608058	0.3641025641025641	0.02918781725888325	0.548472775564409
6085.968017578125	-12.68582633736041	1.737299985349393	27.41736626395963	-32.62735380812735	0.7398964598758795	15.54308411470425	3501.210256410256	3657.142857142857	0.3653846153846154	0.03934010152284264	0.548472775564409
6105.499267578125	-11.65206653591923	1.07935643204765	26.79334640807728	-33.34286006282972	-3.386252340876606	16.29706227481826	3507.035897435897	3660.07326007326	0.3615384615384615	0.04060913705583756	0.5365205843293492
6125.030517578125	-12.72356027001439	0.08156510348376678	27.64397299856079	-34.00031526942041	-8.696372518232296	19.38073249752246	3501.210256410256	3665.934065934066	0.3717948717948718	0.05710659898477157	0.5391766268260292
6144.561767578125	-13.01115108223669	0.1304933622898284	26.88489177633077	-33.66185624042417	-9.805967900408978	19.41816339981823	3517.230769230769	3665.934065934066	0.3666666666666666	0.07106598984771573	0.5325365205843293
6164.093017578125	-14.60688849410221	-1.127042620956771	27.31115058977929	-35.01152978125381	-9.126729243026796	20.66023991958645	3511.405128205128	3665.934065934066	0.3564102564102564	0.07741116751269035	0.5312084993359894
6183.624267578125	-14.49040877657577	-1.355456366427702	26.95912234242286	-36.72193775326208	-7.315844805347995	21.1150219982727	3508.492307692307	3667.399267399267	0.3666666666666666	0.06852791878172589	0.5351925630810093
6203.155517578125	-15.33294429198784	-1.806033957399972	26.70557080121587	-36.73195043404103	-4.301915388852381	19.77662283347578	3523.05641025641	3665.934065934066	0.3756410256410256	0.09644670050761421	0.5258964143426295
6222.686767578125	-14.13264401608859	-2.856798774519762	26.73559839114167	-38.11211202533244	-3.216994406875827	19.86720356298751	3511.405128205128	3665.934065934066	0.3641025641025641	0.1015228426395939	0.5338645418326693
6242.218017578125	-13.62165052021969	-3.468286820731964	25.83494797803147	-39.10397618779529	-4.042008257204728	21.9232750059149	3505.579487179487	3668.864468864469	0.3666666666666666	0.1053299492385787	0.5365205843293492
6261.749267578125	-13.4608194737354	-3.586110793065707	25.91805262645998	-40.81955925323987	-8.609538981811681	24.331692357486	3508.492307692307	3676.190476190476	0.3628205128205128	0.1053299492385787	0.5179282868525896
6281.280517578125	-13.82387815126568	-3.848652297990896	25.61218487343229	-43.02187902483414	-13.79820557259464	22.33699998443019	3512.861538461538	3668.864468864469	0.3628205128205128	0.1319796954314721	0.5338645418326693
6300.811767578125	-14.85137451015878	-5.850880975508861	26.86254898412194	-42.3725239644916	-15.23910728493917	21.23366551668805	3536.164102564102	3667.399267399267	0.3653846153846154	0.1510152284263959	0.5192563081009296
6320.343017578125	-15.31907853833719	-5.473884522433281	28.0921461662807	-39.46572313725493	-13.0479205105184	24.48141596666911	3517.230769230769	3674.725274725275	0.3717948717948718	0.1434010152284264	0.49933598937583
6339.874267578125	-16.04444181800498	-5.884344533045738	27.55581819950188	-39.01127451406657	-9.390804829726845	26.79626298771292	3517.230769230769	3679.120879120879	0.3858974358974359	0.1548223350253807	0.5086321381142098
6359.405517578125	-16.12528054682469	-7.76731280155321	27.47194531753037	-40.69771955342409	-3.097614464014513	26.55570751207962	3511.405128205128	3674.725274725275	0.3717948717948718	0.1687817258883249	0.50066401062417
6378.936767578125	-15.49697631156795	-7.68497700223945	26.30236884320525	-42.06156835018798	4.354696481187824	25.06758473809959	3523.05641025641	3682.051282051282	0.3743589743589744	0.1700507614213198	0.49800796812749
6398.468017578125	-14.01648747373048	-8.277193805378371	26.35125262695244	-44.80254118340022	6.129881319606528	26.02531021798644	3528.882051282051	3686.446886446886	0.3717948717948718	0.1916243654822335	0.4926958831341301
6417.999267578125	-14.46597119370443	-8.455522940512376	25.40288062955754	-45.86359409506594	6.499864044940801	25.37675782893054	3525.969230769231	3679.120879120879	0.367948717948718	0.1979695431472081	0.4860557768924302
6437.530517578125	-14.70196231962209	-9.418710364873997	25.80376803779118	-46.56683762836487	5.365594262563992	25.54220036303383	3531.794871794872	3679.120879120879	0.3628205128205128	0.2119289340101523	0.4873837981407702
6457.061767578125	-14.37880746516172	-10.38663522941743	26.11925348382831	-48.34755936988825	5.36857105847032	24.25582600514061	3544.902564102564	3677.655677655677	0.3551282051282051	0.2208121827411168	0.4887118193891102
6476.593017578125	-14.7779072530357	-11.53739059751087	26.20927469643079	-48.69771861013179	4.987739530989148	24.32519703115365	3518.687179487179	3673.260073260073	0.3615384615384615	0.2284263959390863	0.4833997343957503
6496.124267578125	-14.61992322589144	-11.53695446492657	26.00767741085597	-47.2835814054107	5.371195060550511	24.8776779121193	3509.948717948718	3674.725274725275	0.3564102564102564	0.2423857868020304	0.4794156706507304
6515.655517578125	-12.61911498018475	-12.05777079309033	26.08850198152546	-47.58918984128948	4.946262736829462	26.44677601570473	3533.251282051282	3682.051282051282	0.3551282051282051	0.2538071065989848	0.4807436918990704
6535.186767578125	-12.22644791708987	-12.82359529604692	25.35520829101277	-47.84968496264736	5.978681725586361	29.03386749916063	3540.533333333333	3690.84249084249	0.3474358974358974	0.2728426395939086	0.4820717131474103
6554.718017578125	-14.42580575264111	-12.87916695906325	25.41942473588894	-46.00922464254394	9.296089879230296	31.20473282653829	3534.707692307692	3693.772893772893	0.367948717948718	0.2779187817258883	0.4807436918990704
6574.249267578125	-14.31286557267256	-13.25785192544687	24.7134427327446	-44.92364628807135	14.90986519064738	30.67621396357273	3547.815384615385	3693.772893772893	0.341025641025641	0.282994923857868	0.4634794156706507
6593.780517578125	-14.55253473979167	-15.02501683588734	24.74652602083341	-44.94659670244108	20.56511729622414	28.0261161160561	3541.989743589743	3687.912087912088	0.3371794871794872	0.2893401015228426	0.4568393094289509
6613.311767578125	-12.86849479164743	-15.54589718351302	25.15052083525699	-46.69514286303434	24.66676809368957	26.44603645531364	3537.620512820513	3684.981684981685	0.3294871794871795	0.3045685279187817	0.4634794156706507
6632.843017578125	-10.55002566934194	-16.29832022781079	24.99743306580585	-46.72383088099651	22.44215292826275	26.23130757838376	3541.989743589743	3684.981684981685	0.3384615384615385	0.3121827411167513	0.4448871181938911
6652.374267578125	-9.84571494349667	-17.25121252245298	23.42850565033308	-46.07380080846662	15.3680495084614	27.02820741937207	3517.230769230769	3684.981684981685	0.3256410256410257	0.3248730964467005	0.4462151394422311
6671.905517578125	-10.25113973109364	-17.58788733313389	22.88602689063629	-46.44499792854909	10.87751878036116	27.76621551762744	3512.861538461538	3682.051282051282	0.3243589743589744	0.3274111675126903	0.4462151394422311
6691.436767578125	-9.937387735102242	-17.04631531062366	22.26122648977596	-46.45726064995253	7.885639761985484	28.35475114363817	3530.338461538461	3689.377289377289	0.3205128205128205	0.3388324873096447	0.4409030544488711
6710.968017578125	-10.00908522344639	-18.7846700781653	23.09147765536107	-47.51302596615071	7.499383833430861	28.13453148812978	3531.794871794872	3684.981684981685	0.3128205128205128	0.3527918781725888	0.4382470119521912
6730.499267578125	-9.850177838678343	-19.09285884447333	22.98221613216571	-45.78326764477189	5.293842270217659	28.45631343030693	3541.989743589743	3689.377289377289	0.3102564102564103	0.3642131979695431	0.4409030544488711
6750.030517578125	-10.09017018096578	-20.05200504030148	22.98298190342171	-45.43895851015199	4.929460342869905	28.4403433684483	3534.707692307692	3686.446886446886	0.3051282051282052	0.3629441624365482	0.4276228419654714
6769.561767578125	-11.08882761898079	-20.15874564329094	23.11723810192144	-44.06993461995178	3.855564559953322	27.97483086954347	3541.989743589743	3684.981684981685	0.3	0.381979695431472	0.4169986719787516
6789.093017578125	-10.09672602009472	-21.66076825816587	22.32739799052758	-44.10042267041354	4.261246884547692	26.82333507928698	3533.251282051282	3684.981684981685	0.3012820512820513	0.3895939086294416	0.4050464807436919
6808.624267578125	-10.18430525956814	-21.69077476475925	21.56947404318605	-44.81716644745936	4.266847682534211	26.15881262837246	3520.14358974359	3684.981684981685	0.3038461538461538	0.3984771573604061	0.4023904382470119
6828.155517578125	-9.67011079060342	-21.30549579379823	20.98892093965796	-44.83359174401809	5.034111535483076	25.35554812543186	3528.882051282051	3682.051282051282	0.2923076923076923	0.4022842639593908	0.3930942895086321
6847.686767578125	-7.796893332496156	-22.81744542648658	20.31066675038442	-44.15138609055809	2.058682117240819	25.85874266357092	3515.774358974359	3677.655677655677	0.2820512820512821	0.4137055837563451	0.3930942895086321
6867.218017578125	-7.998613116849059	-23.46755459813629	20.13868831509394	-43.13893405638121	-1.642710756703688	25.99773585253545	3518.687179487179	3680.58608058608	0.2884615384615384	0.4225888324873096	0.3877822045152722
6886.749267578125	-8.130389792343026	-23.99292169434892	18.96102076569738	-41.79803567398704	-3.43976959632926	24.83576077899885	3534.707692307692	3679.120879120879	0.2833333333333333	0.4302030456852792	0.3758300132802125
6906.280517578125	-9.31286926610305	-24.4986174258513	20.71307338969508	-39.76266891672945	-5.220378835821413	23.58844461759057	3507.035897435897	3668.864468864469	0.2820512820512821	0.4302030456852792	0.3691899070385126
6925.811767578125	-9.409466631702191	-25.98105408659617	19.05333682978086	-40.84070963511002	-5.584584366256098	22.61836142329599	3540.533333333333	3674.725274725275	0.2910256410256411	0.4428934010152284	0.3585657370517928
6945.343017578125	-8.1245110821382	-24.69116688396349	19.54889178617992	-39.45874801131903	-9.299802838253832	23.46454760711088	3515.774358974359	3674.725274725275	0.2923076923076923	0.4390862944162436	0.3612217795484727
6964.874267578125	-7.175283440011919	-24.99757911020335	18.47165599880825	-39.81993245062255	-16.80426298284969	25.54095487016318	3512.861538461538	3677.655677655677	0.2782051282051282	0.4530456852791878	0.3519256308100929
6984.405517578125	-7.541081411826118	-26.41120008174793	17.89185881738818	-39.83568273499394	-21.67020083735765	26.63792467595302	3546.358974358974	3679.120879120879	0.2871794871794872	0.4606598984771573	0.3413014608233732
7003.936767578125	-7.500084948901389	-25.9126065093019	17.99150510986109	-37.68185133885728	-26.94759821135957	30.50502585534984	3534.707692307692	3689.377289377289	0.2807692307692308	0.4682741116751269	0.3320053120849933
7023.468017578125	-8.134406398006531	-26.95040338416725	18.55936019934675	-33.42301442813525	-26.56449547562435	32.96573300118739	3550.728205128205	3702.564102564103	0.2858974358974359	0.4809644670050761	0.3200531208499336
7042.999267578125	-9.09485283526192	-26.59419863638546	18.51471647380803	-28.85980660387791	-21.62471081742907	32.43884143241098	3543.446153846154	3692.307692307692	0.2794871794871795	0.482233502538071	0.3240371845949535
7062.530517578125	-9.024694276290761	-27.00813570402325	17.53057237092384	-27.13601089015397	-17.44081201929655	30.43205633231018	3540.533333333333	3690.84249084249	0.2794871794871795	0.4923857868020304	0.3054448871181938
7082.061767578125	-9.109380328542954	-28.27183356047931	17.0619671457046	-26.42050463545161	-13.31466321854406	29.67807817219617	3546.358974358974	3690.84249084249	0.2756410256410257	0.498730964467005	0.297476759628154
7101.593017578125	-8.648955436298788	-28.4491703939536	15.10445637012113	-25.01694262166558	-11.41873038120491	29.37389358606681	3527.425641025641	3689.377289377289	0.2705128205128205	0.4847715736040609	0.297476759628154
7121.124267578125	-8.335680508413018	-27.714808840349	14.43194915869809	-26.77246390819474	-11.06519725600405	28.81068228488259	3530.338461538461	3689.377289377289	0.2653846153846154	0.498730964467005	0.2762284196547145
7140.655517578125	-6.616045739443253	-27.23163995700847	14.39542605567477	-29.53683716390161	-12.27086623690106	29.98201162138707	3537.620512820513	3689.377289377289	0.2705128205128205	0.5101522842639593	0.2722443559096945
7160.186767578125	-8.050875158355831	-27.79938532082984	14.91248416441675	-30.19845494564759	-13.8218435429322	31.67388171513994	3544.902564102564	3698.168498168498	0.258974358974359	0.515228426395939	0.2709163346613546
7179.718017578125	-8.181359133176485	-26.55682727549175	13.86408668235143	-30.17089194799767	-14.60013259494104	32.85207798747364	3552.184615384615	3701.098901098901	0.2615384615384616	0.515228426395939	0.2669322709163347
7199.249267578125	-8.181851590575844	-27.32556066274917	13.81484094241572	-31.52641559445097	-14.66610739238778	34.14755547139627	3556.553846153846	3702.564102564103	0.258974358974359	0.5241116751269035	0.2576361221779548
7218.780517578125	-9.213687730300782	-28.47725231547313	14.63122696992193	-29.78495706182483	-15.38122204594313	34.3625354852646	3550.728205128205	3708.424908424908	0.2564102564102564	0.5203045685279187	0.2443559096945551
7238.311767578125	-9.695180565661193	-29.62479070560527	14.48194343388082	-27.36669297323745	-11.18087364767719	32.27040929729213	3540.533333333333	3695.238095238095	0.2474358974358975	0.5266497461928934	0.2576361221779548
7257.843017578125	-8.142917293010923	-29.67103814944358	13.70827069890785	-26.01060681662802	-9.613446741512624	30.49319811566759	3524.51282051282	3690.84249084249	0.2371794871794872	0.5291878172588832	0.2377158034528552
7277.374267578125	-6.828199464945036	-29.79428777117474	13.18005350549644	-26.40587937139247	-11.45162958147174	29.54457576181015	3515.774358974359	3686.446886446886	0.2435897435897436	0.5418781725888324	0.2337317397078353
7296.905517578125	-5.339184958381194	-31.70280780741961	14.0815041618806	-26.1189462726969	-16.26524183967312	29.09914794609178	3546.358974358974	3689.377289377289	0.2384615384615385	0.5355329949238579	0.2270916334661355
7316.436767578125	-7.06069722118601	-30.49177272967905	13.93027788139902	-21.63178982154711	-21.01323209425389	29.26646891132268	3546.358974358974	3695.238095238095	0.2423076923076923	0.5520304568527918	0.2244355909694555
7335.968017578125	-7.386114301824678	-30.86771686284938	13.38856981753222	-19.88099362032936	-19.10907445684803	28.91961378125749	3546.358974358974	3690.84249084249	0.2358974358974359	0.5507614213197969	0.2138114209827357
7355.499267578125	-7.723535031572674	-31.23153731041929	11.6464968427325	-17.81345128214164	-16.79100969478108	27.37859231699996	3547.815384615385	3690.84249084249	0.2256410256410256	0.5456852791878172	0.2098273572377158
7375.030517578125	-6.169394265087356	-30.97198871533869	11.06057349126442	-18.14842274816993	-13.80735547647211	26.83272723492507	3530.338461538461	3687.912087912088	0.2333333333333333	0.5532994923857868	0.1965471447543161
7394.561767578125	-6.000668510919627	-31.82855557320194	11.93314890803727	-18.51208223216038	-13.04831642358996	26.0721332759203	3537.620512820513	3683.516483516483	0.2320512820512821	0.5634517766497461	0.2045152722443559
7414.093017578125	-7.289117430160307	-31.38414524169193	11.08825698396928	-16.43801477616166	-15.61823991415092	26.37794515623882	3528.882051282051	3686.446886446886	0.2282051282051282	0.5621827411167513	0.1819389110225763
7433.624267578125	-6.84946746887977	-30.61896093335451	11.05325311202298	-13.615027962187	-14.09509020113929	27.05457418462262	3523.05641025641	3684.981684981685	0.2243589743589744	0.5596446700507614	0.1872509960159363
7453.155517578125	-5.660078202235019	-31.38947486189647	9.992179776498206	-14.6304050491757	-10.76630405460925	26.94228147773529	3527.425641025641	3684.981684981685	0.2230769230769231	0.5685279187817258	0.1806108897742364
7472.686767578125	-3.498715917331177	-31.33552769272628	10.12840826688236	-17.09265743197174	-13.42109954791749	27.05294689043346	3547.815384615385	3696.703296703297	0.2051282051282051	0.5736040609137055	0.1713147410358566
7492.218017578125	-4.422013215094312	-30.86145896044705	9.798678490568825	-17.83392665182444	-19.39925678668233	27.56549569154039	3546.358974358974	3689.377289377289	0.2166666666666667	0.567258883248731	0.1752988047808765
7511.749267578125	-6.98741525115943	-30.71501828863666	9.25847488405706	-16.48774067396274	-21.95255428019679	26.83185335155129	3537.620512820513	3687.912087912088	0.2064102564102564	0.5685279187817258	0.1726427622841965
7531.280517578125	-6.067888330360122	-30.76220201710551	9.21116696398782	-16.15985683590158	-21.54967235459569	26.01261878675206	3527.425641025641	3679.120879120879	0.208974358974359	0.5736040609137055	0.1593625498007968
7550.811767578125	-6.31157410314274	-31.48684861736429	8.842589685725997	-16.19270742901904	-20.01514464869796	24.40608978087085	3505.579487179487	3680.58608058608	0.1961538461538462	0.5634517766497461	0.1527224435590969
7570.343017578125	-5.957918284081438	-31.71481022538544	8.20817159185623	-17.63092006842211	-17.7462522901182	22.16697844779239	3524.51282051282	3674.725274725275	0.1974358974358974	0.5723350253807106	0.151394422310757
7589.874267578125	-5.076586974748016	-32.26341638627373	8.341302525198429	-17.64734536498084	-16.97898843716933	21.36371394485179	3509.948717948718	3673.260073260073	0.1961538461538462	0.5710659898477157	0.1434262948207171
7609.405517578125	-5.196806290650819	-31.68507180028882	8.319370934918061	-18.06489332192767	-18.79512087900852	19.66522805220816	3525.969230769231	3667.399267399267	0.2051282051282051	0.5799492385786802	0.148738379814077
7628.936767578125	-4.592431791572331	-31.77241312128118	8.756820842766969	-17.39090031674703	-21.38691837077634	19.76679033887692	3528.882051282051	3670.32967032967	0.2064102564102564	0.581218274111675	0.1394422310756972
7648.468017578125	-4.880622786250098	-32.22287867819509	7.937721374990304	-16.39487357912888	-24.32104739177198	19.10251902490086	3530.338461538461	3665.934065934066	0.1794871794871795	0.5799492385786802	0.1288180610889774
7667.999267578125	-4.482446355999916	-31.76349841120932	7.75536440000837	-16.39779863194071	-24.69365411918644	19.12921950697806	3517.230769230769	3663.003663003663	0.1935897435897436	0.5875634517766497	0.1274900398406375
7687.530517578125	-5.204654830453073	-32.06176015970393	7.534516954692688	-15.37837147182793	-24.64692932086638	18.25134433638436	3496.841025641026	3657.142857142857	0.1884615384615385	0.5761421319796954	0.1288180610889774
7707.061767578125	-5.726713228513775	-31.78525040843185	7.328677148622411	-16.08285252747033	-21.64944950450418	16.99828625945911	3511.405128205128	3657.142857142857	0.1833333333333333	0.5888324873096447	0.1128818061088977
7726.593017578125	-4.845474254942734	-32.10299407943091	7.452574505726663	-14.02408534771809	-20.44920492468063	15.53736624143321	3508.492307692307	3652.747252747252	0.191025641025641	0.5901015228426395	0.1075697211155378
7746.124267578125	-4.82906926782665	-33.11956311641816	9.093073217334991	-11.95181792421896	-20.3888309252204	14.9064112084251	3499.753846153846	3660.07326007326	0.182051282051282	0.5977157360406091	0.099601593625498
7765.655517578125	-5.402835077248099	-32.56159811044096	7.716492275190118	-10.24028493189845	-19.19681114546356	13.48816173433503	3508.492307692307	3651.282051282051	0.182051282051282	0.598984771573604	0.08632138114209827
7785.186767578125	-5.845901461736675	-32.78487029287673	7.409853826332435	-8.169817540898906	-16.50613965598215	11.92043978800031	3518.687179487179	3652.747252747252	0.1897435897435897	0.5901015228426395	0.09827357237715803
7804.718017578125	-6.087571237040677	-32.55001458905046	7.242876295932424	-6.126913147549282	-13.03717911449191	9.174521569331883	3512.861538461538	3648.351648351648	0.1756410256410256	0.583756345177665	0.08897742363877821
7824.249267578125	-5.811814791696675	-33.01006706038636	6.818520830332421	-5.067660268383149	-10.776864349805	8.886307045061155	3502.666666666666	3646.886446886447	0.1923076923076923	0.5939086294416244	0.08366533864541832
7843.780517578125	-5.047963503982134	-33.82924916867034	7.203649601786633	-1.973603142115532	-11.79861093332807	7.832510057084064	3493.928205128205	3645.421245421245	0.1794871794871795	0.5977157360406091	0.09163346613545816
7863.311767578125	-4.36955234391255	-33.02675213264833	7.044765608745057	-0.282545519477821	-13.21483824547247	6.601163957534418	3488.102564102564	3639.560439560439	0.1858974358974359	0.5888324873096447	0.08233731739707835
7882.843017578125	-4.444927873458147	-34.56908438626881	7.507212654185333	1.741683536688589	-14.98442228590465	4.978916026733045	3499.753846153846	3638.095238095238	0.1730769230769231	0.598984771573604	0.08100929614873838
7902.374267578125	-4.239530047903793	-33.11499772854024	8.046995209620647	4.818752856241354	-16.74035712519667	3.603588233517264	3473.538461538461	3633.699633699634	0.1846153846153846	0.5875634517766497	0.08764940239043824
7921.905517578125	-5.615373535093131	-33.16231888340209	6.462646490687014	5.84808019510186	-12.57290792719757	1.682144221288132	3495.384615384615	3632.234432234432	0.1743589743589744	0.5939086294416244	0.0743691899070385
7941.436767578125	-6.604535778876779	-33.00941886333445	7.546422112322144	7.611701627879162	-6.175419162698209	0.2650197675102999	3488.102564102564	3627.838827838828	0.1705128205128205	0.5977157360406091	0.07569721115537847
7960.968017578125	-5.854103955294717	-32.2765857743831	6.58960447052827	8.660379316110223	-2.402627090233508	-0.8798602238554356	3469.169230769231	3627.838827838828	0.1730769230769231	0.6053299492385786	0.08366533864541832
7980.499267578125	-5.447432634905627	-33.05655457720685	7.256736509437329	9.338984904571056	-0.1174615284334011	-2.250199512369617	3486.646153846154	3624.908424908425	0.1807692307692308	0.6027918781725888	0.07702523240371846
8000.06103515625	-4.888255875940132	-33.13824618068508	7.174412405986804	10.73320924976548	-0.8408009820554592	-1.992548954565451	3469.169230769231	3621.978021978022	0.1769230769230769	0.581218274111675	0.08100929614873838
8019.561767578125	-4.896566094554283	-32.36062209065402	6.343390544571703	11.03881768564425	-0.4158686583344102	-3.561647058150875	3498.297435897436	3624.908424908425	0.1769230769230769	0.5901015228426395	0.08366533864541832
8039.093017578125	-5.534011570286598	-33.58757139093361	6.59884297134021	11.05051789689157	1.074558251323444	-3.668448986459691	3485.189743589744	3624.908424908425	0.1743589743589744	0.5913705583756345	0.07835325365205843
8058.624267578125	-5.372595730640577	-33.16752446589916	6.740426935942372	10.71790897351899	2.929367088329051	-3.759280852909876	3463.343589743589	3621.978021978022	0.1756410256410256	0.5926395939086294	0.09030544488711818
8078.155517578125	-4.735473430076589	-32.13255645100725	6.452656992341055	8.940674794963561	4.806402720367666	-5.554089390582205	3473.538461538461	3616.117216117216	0.1756410256410256	0.5913705583756345	0.09428950863213811
8097.686767578125	-5.096731560240467	-32.89691650877251	6.326843975953304	8.585227959252475	5.18180984677539	-5.913051098116671	3470.625641025641	3616.117216117216	0.1807692307692308	0.5862944162436548	0.09561752988047809
8117.218017578125	-4.540217149090247	-32.32207298711116	5.978285090975348	7.860271533927283	5.571042571236341	-6.979205800501495	3491.015384615384	3611.721611721612	0.1858974358974359	0.5901015228426395	0.08499335989375829
8136.749267578125	-4.982483290304868	-32.54615341525362	5.751670969513192	8.181742756208669	3.727258933290702	-7.263305703444406	3470.625641025641	3613.186813186813	0.1884615384615385	0.5913705583756345	0.09296148738379813
8156.280517578125	-5.052626459982296	-32.17069342926403	6.737354001770383	7.816958251905975	1.483393768737212	-7.060432267045348	3458.974358974359	3608.791208791209	0.1884615384615385	0.581218274111675	0.08764940239043824
8175.811767578125	-5.857689660733787	-32.31142575035118	6.231033926621384	6.03331145757077	1.113763837229078	-8.320106142861357	3489.558974358974	3608.791208791209	0.1923076923076923	0.5977157360406091	0.09694555112881806
8195.343017578125	-6.04940640416225	-32.97163799333459	7.059359583775005	4.291290414788509	0.3274263820666035	-8.053352459027778	3474.994871794872	3608.791208791209	0.1769230769230769	0.5875634517766497	0.08366533864541832
8214.874267578125	-5.687840488123775	-31.97681956853345	7.215951187622574	4.294777977756457	2.20148521819889	-8.561786638806893	3458.974358974359	3605.860805860806	0.1897435897435897	0.5875634517766497	0.09561752988047809
8234.405517578125	-6.775339087698045	-31.95844598296343	6.466091230195517	4.311765784471308	2.935673473967848	-8.240255833568204	3437.128205128205	3600	0.182051282051282	0.598984771573604	0.09561752988047809
8253.936767578125	-6.051699408928006	-32.23855282775194	6.830059107199357	3.973869265631193	5.546720964862351	-8.759420433565893	3476.451282051281	3607.326007326007	0.1846153846153846	0.5926395939086294	0.09163346613545816
8273.468017578125	-6.095173548143252	-31.54233625483685	6.482645185674905	3.996707177969701	7.026122675460236	-8.491290592481613	3473.538461538461	3608.791208791209	0.1974358974358974	0.5888324873096447	0.1062416998671979
8292.999267578125	-5.633947797053381	-32.72202041728377	8.605220294661883	4.358566629460564	8.897381112599263	-8.667463546803468	3476.451282051281	3605.860805860806	0.1769230769230769	0.5964467005076142	0.09030544488711818
8312.530517578125	-4.611406790741309	-33.33017144904358	6.859320925869156	4.377916978831122	8.502723987064861	-7.89089952594007	3454.605128205128	3605.860805860806	0.191025641025641	0.5748730964467005	0.09163346613545816
8332.061767578125	-5.217304829899058	-32.43359904487888	6.269517010094145	4.755639216724593	8.1052664625372	-6.782074279619412	3447.323076923077	3607.326007326007	0.1987179487179487	0.5736040609137055	0.102257636122178
8351.593017578125	-5.126032159930466	-32.63809213385484	7.396784006953498	3.708086548805774	7.335378607508145	-6.600661683657501	3467.71282051282	3610.25641025641	0.1833333333333333	0.581218274111675	0.07968127490039841
8371.124267578125	-6.574896614724723	-33.11473903451264	6.510338527527752	4.799627510933245	6.5597135575795	-4.800613504345114	3460.430769230769	3619.047619047619	0.2	0.5862944162436548	0.100929614873838
8390.655517578125	-5.05205705611429	-32.59434545024764	6.794294388571048	4.099309030446147	5.798050502617156	-4.661871452319037	3483.733333333333	3619.047619047619	0.1961538461538462	0.5939086294416244	0.09163346613545816
8410.186767578125	-5.293557549187261	-31.78273764455163	6.644245081273937	4.460043461624769	4.666404722320536	-3.874577011237067	3476.451282051281	3620.51282051282	0.1935897435897436	0.5901015228426395	0.099601593625498
8429.718017578125	-4.770529625621574	-32.48330353966068	6.947037437842641	4.451268303189283	3.548584540077146	-3.794475565005455	3499.753846153846	3623.443223443223	0.1961538461538462	0.5901015228426395	0.09827357237715803
8449.249267578125	-4.895919744217627	-32.97665951987866	6.408025578237321	5.173299675702647	2.786745088201731	-2.701620380543427	3482.276923076923	3623.443223443223	0.1948717948717949	0.5875634517766497	0.1035856573705179
8468.780517578125	-5.854811862806294	-32.50664001856563	6.518813719370687	5.545734318128583	3.145526217562966	-2.021127867770273	3466.25641025641	3620.51282051282	0.1961538461538462	0.5888324873096447	0.09030544488711818
8488.311767578125	-5.414100040258392	-32.39637434395441	6.589995974160759	5.207275289132348	4.255121599739647	-2.05855877006605	3485.189743589744	3623.443223443223	0.191025641025641	0.5748730964467005	0.09561752988047809
8507.843017578125	-5.606232294617564	-33.01770538243626	7.376770538243625	4.509881861457078	3.866065272191765	-1.946517200117177	3483.733333333333	3624.908424908425	0.1974358974358974	0.5926395939086294	0.09827357237715803
8527.374267578125	-4.81024877716672	-32.17549488890776	6.975122283327977	5.229550691314734	4.233071201619709	-1.308695231279857	3476.451282051281	3629.304029304029	0.1961538461538462	0.58248730964467	0.09030544488711818
8546.905517578125	-5.171645410974167	-32.59356121183916	6.835458902583308	5.587922579837648	4.230270802626449	-0.9764340058225953	3483.733333333333	3630.769230769231	0.2038461538461538	0.5939086294416244	0.100929614873838
8566.436767578125	-4.655865844755267	-32.17142165064333	6.413415524473285	4.879391451071185	3.852239674138536	-1.239324205266819	3491.015384615384	3630.769230769231	0.1961538461538462	0.5774111675126903	0.1035856573705179
8585.968017578125	-5.012030118694545	-32.67169573396466	6.796988130545532	5.579147421402163	3.112450620383059	-0.8963325595909836	3480.820512820513	3627.838827838828	0.2038461538461538	0.5888324873096447	0.09561752988047809
8605.499267578125	-4.723977627660347	-31.87493644221689	7.602237233965278	5.928744151489591	1.991830039146409	-0.48396988790211	3461.887179487179	3620.51282051282	0.2115384615384615	0.5723350253807106	0.102257636122178
8625.030517578125	-4.051045056158611	-32.37459833943364	6.895494384138932	5.586797559525406	1.227366585190803	-0.01296661041877123	3472.082051282051	3626.373626373626	0.2064102564102564	0.5862944162436548	0.1049136786188579
8644.561767578125	-5.689271692440656	-32.39845097525032	7.072830755934419	4.86712872966775	0.8603606557628593	-0.6507885792560911	3495.384615384615	3629.304029304029	0.1935897435897436	0.5939086294416244	0.1062416998671979
8664.093017578125	-5.54213711737599	-32.27167228068102	5.786288262401	4.177947950271844	0.0876724017405444	-0.1371147578369178	3486.646153846154	3623.443223443223	0.2025641025641026	0.583756345177665	0.09561752988047809
8683.624267578125	-5.253699893998545	-31.43684003013839	6.63001060014552	4.885916568882187	-1.035748578489365	0.6075091393092177	3467.71282051282	3627.838827838828	0.1935897435897436	0.5875634517766497	0.09827357237715803
8703.155517578125	-5.578162838425958	-31.19836322549747	6.183716157404158	4.161522653713115	0.8549362546894093	-0.9403792607775185	3498.297435897436	3629.304029304029	0.1987179487179487	0.5875634517766497	0.1102257636122178
8722.686767578125	-6.009164016630287	-32.58766742012649	7.083598336971361	4.870053782479578	1.232967383177323	-0.677489061333295	3485.189743589744	3629.304029304029	0.1987179487179487	0.5888324873096447	0.100929614873838
8742.218017578125	-5.686747848268951	-31.70869236555605	7.325215173104931	4.167372759336772	1.600149709518336	-0.9937802249319263	3479.364102564102	3627.838827838828	0.1974358974358974	0.5774111675126903	0.09561752988047809
8761.749267578125	-5.771310786171304	-32.28020687519774	6.868921382869622	4.847778380297191	1.255017781297261	-1.427352600119488	3493.928205128205	3629.304029304029	0.1987179487179487	0.581218274111675	0.102257636122178
8781.280517578125	-6.211684044257146	-32.23696834606951	6.831595574285351	4.508756841144836	0.8631610547561188	-0.9830498047133531	3473.538461538461	3627.838827838828	0.1974358974358974	0.5939086294416244	0.08897742363877821
8800.811767578125	-5.485412796259293	-32.09665615270119	7.458720374070639	4.514606946768494	1.608374509585046	-1.036450768867761	3486.646153846154	3627.838827838828	0.1897435897435897	0.5710659898477157	0.1049136786188579
8820.343017578125	-5.532564976675987	-32.20441706586495	6.743502332401357	4.158035090745166	-1.019122581442877	-0.4319450809984025	3480.820512820513	3626.373626373626	0.2102564102564103	0.5926395939086294	0.09827357237715803
8839.874267578125	-6.121073113918938	-32.78694692417264	7.892688608106093	3.819013551592809	-1.410979307984019	0.01235771440773231	3470.625641025641	3626.373626373626	0.1935897435897436	0.583756345177665	0.1102257636122178
8859.405517578125	-6.080723001330867	-31.67231592250197	7.927699866913386	5.219650512567006	0.1123468019406728	-0.2651263896444214	3456.061538461538	3620.51282051282	0.2025641025641026	0.5901015228426395	0.1035856573705179
8878.936767578125	-5.688886960097408	-32.36037801645546	7.111303990259192	3.8101258911261	4.605854325947241	-2.289508845793012	3488.102564102564	3624.908424908425	0.1987179487179487	0.5862944162436548	0.099601593625498
8898.468017578125	-5.055150304154001	-31.8604520389583	6.48496958459987	3.815975996749757	5.351067780776168	-2.34290980994742	3492.471794871794	3629.304029304029	0.2	0.58248730964467	0.09030544488711818
8917.999267578125	-4.814588557998555	-32.32495786411377	6.541144200144536	4.512806914268906	4.238671999606228	-1.973217682194381	3486.646153846154	3623.443223443223	0.2025641025641026	0.5875634517766497	0.09428950863213811
8937.530517578125	-5.451233790456915	-31.55271541010005	6.876620954308571	4.847778380297191	1.255017781297261	-1.427352600119488	3470.625641025641	3629.304029304029	0.2102564102564103	0.583756345177665	0.099601593625498
8957.061767578125	-5.734177035972781	-32.12386580905211	6.582296402721811	4.48648143896245	0.8852114528760569	-1.732913343499546	3473.538461538461	3621.978021978022	0.2064102564102564	0.5901015228426395	0.1035856573705179
8976.593017578125	-6.089217891469776	-33.43296685269245	7.078210853022394	4.805590118588127	0.1702731962337775	-2.472046462067166	3480.820512820513	3621.978021978022	0.2012820512820513	0.5862944162436548	0.1049136786188579
8996.124267578125	-5.688994685153517	-32.09103844491803	7.100531484648255	5.869568083065676	0.1728971983139678	-1.850194555088476	3466.25641025641	3623.443223443223	0.2076923076923077	0.5888324873096447	0.1088977423638778
9015.655517578125	-5.367009417016619	-32.13470510419783	7.299058298338078	5.519408842822127	-0.2079343291672051	-1.780823529075438	3458.974358974359	3620.51282051282	0.2076923076923077	0.5888324873096447	0.099601593625498
9035.186767578125	-6.091433949766883	-31.89226709535083	6.856605023311701	5.860792924630191	-0.9449229839294224	-1.770093108856864	3458.974358974359	3621.978021978022	0.208974358974359	0.58248730964467	0.09428950863213811
9054.718017578125	-5.971168465982889	-32.58604292628035	6.883153401711041	4.474781227715136	-0.6052154567817969	-1.62611141519073	3483.733333333333	3620.51282051282	0.2102564102564103	0.5786802030456852	0.09827357237715803
9074.249267578125	-5.486813221988715	-31.59524172271447	7.318677801128465	5.18038730366977	-0.599791055708347	-1.336520733669303	3470.625641025641	3626.373626373626	0.2012820512820513	0.5888324873096447	0.100929614873838
9093.780517578125	-5.725682145833872	-32.36321487886163	7.431785416612803	4.858916081388385	1.243992582237292	-1.052420830726391	3467.71282051282	3626.373626373626	0.208974358974359	0.5875634517766497	0.1035856573705179
9113.311767578125	-5.532226412213928	-32.05091286212547	6.777358778607158	4.153872515589871	2.740020289881664	-1.823745209949731	3489.558974358974	3624.908424908425	0.2025641025641026	0.5736040609137055	0.1075697211155378
9132.843017578125	-5.250191135028126	-32.20961464592929	6.980886497187452	4.853628485920848	2.000231236126188	-1.480753564273896	3477.907692307692	3627.838827838828	0.1974358974358974	0.5850253807106599	0.1049136786188579
9152.374267578125	-4.772099333582025	-32.55864121154369	6.790066641797568	3.834201325808073	1.953506437806121	-0.6028783936801994	3480.820512820513	3629.304029304029	0.1961538461538462	0.58248730964467	0.1115537848605578
9171.905517578125	-5.134034592670018	-32.63000967678789	6.596540732998214	3.467054278849673	0.8384866545559904	-0.8550381729058494	3479.364102564102	3627.838827838828	0.2025641025641026	0.5913705583756345	0.09694555112881806
9191.436767578125	-6.490810744927997	-32.35043499377656	6.918925507200342	3.458279120414187	-0.2793335276873999	-0.7749367266742377	3492.471794871794	3629.304029304029	0.2	0.58248730964467	0.09296148738379813
9210.968017578125	-5.766216929946705	-32.01612090075383	7.378307005329619	3.125107686885488	0.07402320060038507	-0.3840348954225107	3492.471794871794	3630.769230769231	0.2076923076923077	0.5723350253807106	0.100929614873838
9230.499267578125	-5.967367310431602	-32.08988209338715	7.263268956839801	2.786648657889253	1.183618582777066	-0.4214657977182879	3492.471794871794	3630.769230769231	0.2102564102564103	0.5799492385786802	0.1075697211155378
9250.030517578125	-6.17188794624335	-31.73716240506345	6.81120537566497	3.164933405938846	2.287613166967228	0.2056257509004587	3469.169230769231	3627.838827838828	0.2	0.5913705583756345	0.09694555112881806
9269.561767578125	-5.414961840707267	-32.24165777165489	6.503815929273267	3.515092646182395	2.668444694448401	0.1362547248874203	3472.082051282051	3626.373626373626	0.1948717948717949	0.581218274111675	0.099601593625498
9289.093017578125	-5.769833413973233	-31.9740067134255	7.016658602676751	2.448189628893017	2.293213964953746	-0.4588967000140651	3493.928205128205	3630.769230769231	0.191025641025641	0.581218274111675	0.102257636122178
9308.624267578125	-5.326166847029189	-32.25134071526975	7.383315297081081	3.142095493600339	0.8082114563693429	-0.06250409018382208	3464.8	3621.978021978022	0.1987179487179487	0.5901015228426395	0.09561752988047809
9328.155517578125	-4.533353524086707	-32.48285140221088	6.664647591329302	2.77551095679806	1.194643781837035	-0.7963975671113843	3492.471794871794	3630.769230769231	0.1987179487179487	0.5799492385786802	0.102257636122178
9347.686767578125	-5.373242080977233	-31.55148703667453	6.675791902276753	3.130957792509145	0.8192366554293119	-0.4374358595769185	3493.928205128205	3629.304029304029	0.1987179487179487	0.58248730964467	0.09561752988047809
9367.218017578125	-6.368590820840305	-31.93080019402821	7.14091791596953	3.136807898132803	1.564450110258239	-0.4908368237313263	3505.579487179487	3630.769230769231	0.2051282051282051	0.5926395939086294	0.09561752988047809
9386.749267578125	-6.055346671541995	-32.1194844771272	6.465332845800507	3.136807898132803	1.564450110258239	-0.4908368237313263	3488.102564102564	3627.838827838828	0.1948717948717949	0.5913705583756345	0.09561752988047809
9406.280517578125	-4.338543532618532	-32.55653257051682	6.145646738146857	3.494617276499596	0.06019760254715648	0.3231580994278476	3464.8	3627.838827838828	0.1987179487179487	0.5913705583756345	0.09561752988047809
9425.811767578125	-6.397445131012136	-32.78781118690851	8.25548689878646	3.814288466281394	0.8467114546226999	-0.897708716841684	3488.102564102564	3627.838827838828	0.2025641025641026	0.58248730964467	0.09428950863213811
9445.343017578125	-5.854057787413527	-32.39201701932772	6.594221258647243	3.839488921275609	1.197267783917225	-0.1745456601326951	3476.451282051281	3626.373626373626	0.1935897435897436	0.5901015228426395	0.09694555112881806
9464.874267578125	-5.29027962962279	-32.97835603561945	6.972037037721004	3.817213519093222	1.219318182037163	-0.9244091989188878	3476.451282051281	3627.838827838828	0.2051282051282051	0.5913705583756345	0.100929614873838
9484.405517578125	-4.962969665855344	-33.33509294517841	7.703033414465689	3.447141419322994	-0.2683083286274309	-1.149868496067334	3493.928205128205	3630.769230769231	0.2064102564102564	0.5875634517766497	0.099601593625498
9503.936767578125	-5.527070998814409	-32.94073521427436	7.292900118559118	4.832590606081928	-2.109467964492879	-0.8121164920315562	3477.907692307692	3627.838827838828	0.1974358974358974	0.58248730964467	0.09827357237715803
9523.468017578125	-5.972291884425172	-32.77721596596134	6.770811557482705	3.81957606174893	0.09047280073380398	-0.4693759832941797	3488.102564102564	3627.838827838828	0.2102564102564103	0.5786802030456852	0.1062416998671979
9542.999267578125	-5.527240281045438	-32.5174873161441	7.275971895456218	3.478754490096987	2.328913564213844	-0.9618401012146651	3479.364102564102	3626.373626373626	0.2076923076923077	0.5875634517766497	0.09694555112881806
9562.530517578125	-5.406436171980897	-32.55796100476083	7.356382801910241	3.84005143143173	2.698719892635048	-0.6562793578346071	3477.907692307692	3629.304029304029	0.2064102564102564	0.58248730964467	0.100929614873838
9582.061767578125	-5.412376439360642	-32.70580748855344	6.762356063935743	3.823063624716879	1.96453163686609	-0.9778101630732958	3486.646153846154	3630.769230769231	0.2038461538461538	0.5913705583756345	0.09561752988047809
9601.593017578125	-5.412453385829292	-32.51342208031241	6.754661417070788	3.817213519093222	1.219318182037163	-0.9244091989188878	3489.558974358974	3626.373626373626	0.1948717948717949	0.5862944162436548	0.1035856573705179
9621.124267578125	-5.048071229038244	-32.55990959713291	7.192877096175698	4.505831788333008	0.4905543273416553	-0.956349322636149	3479.364102564102	3632.234432234432	0.1987179487179487	0.5748730964467005	0.100929614873838
9640.655517578125	-5.928987027440957	-32.05018464074617	7.101297255904255	3.794938116910836	1.241368580157101	-1.674272737705081	3482.276923076923	3620.51282051282	0.2012820512820513	0.5875634517766497	0.09827357237715803
9660.186767578125	-6.131214658486949	-32.4305501180051	6.878534151305072	3.797863169722665	1.613975307571565	-1.700973219782285	3488.102564102564	3626.373626373626	0.1961538461538462	0.5862944162436548	0.099601593625498
9679.718017578125	-5.650876020156281	-32.39723060425753	6.912397984371864	4.500544192865471	1.246792981230551	-1.384682056183654	3485.189743589744	3629.304029304029	0.1987179487179487	0.5862944162436548	0.09694555112881806
9699.249267578125	-5.452418766074118	-32.58998012318821	6.758123392588269	3.803150765190201	0.8577366536826689	-1.27264048623478	3493.928205128205	3629.304029304029	0.2	0.5901015228426395	0.09561752988047809
9718.780517578125	-5.495615898002224	-32.58635101994083	6.438410199777655	4.160960143556994	-0.6465158540284135	-0.4586455630756064	3466.25641025641	3627.838827838828	0.2064102564102564	0.581218274111675	0.1075697211155378
9738.311767578125	-6.099713389793575	-32.19159716861618	6.028661020642582	4.163885196368823	-0.27390912661395	-0.4853460451528103	3457.517948717949	3627.838827838828	0.2115384615384615	0.5875634517766497	0.09163346613545816
9757.843017578125	-6.243154534363063	-32.55287545875484	7.684546563693823	3.814288466281394	0.8467114546226999	-0.897708716841684	3483.733333333333	3626.373626373626	0.1987179487179487	0.5888324873096447	0.09163346613545816
9777.374267578125	-5.254946426790667	-32.32019641663373	6.505357320933255	3.809000870813858	1.602950108511596	-1.326041450389188	3477.907692307692	3630.769230769231	0.1974358974358974	0.5888324873096447	0.1102257636122178
9796.905517578125	-5.054026885711718	-32.66927899927732	6.597311428828209	3.800788222534493	1.986582034986028	-1.727673701859489	3486.646153846154	3623.443223443223	0.2064102564102564	0.5901015228426395	0.08897742363877821
9816.436767578125	-6.29269205530789	-32.69668871644672	6.730794469210947	3.797863169722665	1.613975307571565	-1.700973219782285	3477.907692307692	3623.443223443223	0.1987179487179487	0.58248730964467	0.09296148738379813
9835.968017578125	-6.452245790412593	-31.77246252091405	6.775420958740687	3.7896505214433	1.997607234045997	-2.102605471252585	3499.753846153846	3626.373626373626	0.1974358974358974	0.583756345177665	0.09561752988047809
9855.499267578125	-6.100390518717691	-32.49860557609513	5.960948128230982	4.86712872966775	0.8603606557628593	-0.6507885792560911	3463.343589743589	3624.908424908425	0.2025641025641026	0.5850253807106599	0.08632138114209827
9875.030517578125	-5.660986786136832	-32.11778796138641	5.901321386316824	4.497619140053643	0.8741862538160878	-1.35798157410645	3469.169230769231	3626.373626373626	0.2076923076923077	0.58248730964467	0.08632138114209827
9894.561767578125	-5.885251270232304	-32.40051160168076	7.474872976769552	4.858353571232264	-0.2574595264805311	-0.5706871330244794	3458.974358974359	3624.908424908425	0.1935897435897436	0.581218274111675	0.09694555112881806
9914.093017578125	-5.69382692338471	-32.00923480738144	6.617307661529104	3.803150765190201	0.8577366536826689	-1.27264048623478	3474.994871794872	3621.978021978022	0.1974358974358974	0.5862944162436548	0.09694555112881806
9933.624267578125	-6.056054579053571	-32.34953872130974	6.394542094642924	3.817213519093222	1.219318182037163	-0.9244091989188878	3477.907692307692	3629.304029304029	0.2038461538461538	0.5901015228426395	0.09827357237715803
9953.155517578125	-5.894777243051118	-31.58319806144144	6.522275694888168	3.464691736193965	1.96733203585935	-1.310071388530558	3489.558974358974	3630.769230769231	0.2102564102564103	0.5888324873096447	0.08764940239043824
9972.686767578125	-6.014734940960514	-31.65896386347603	6.526505903948646	3.467616789005794	2.339938763273813	-1.336771870607762	3492.471794871794	3629.304029304029	0.2038461538461538	0.583756345177665	0.09296148738379813
9992.218017578125	-5.896731683354816	-31.69660869211932	6.326831664518321	3.461766683382137	1.594725308444886	-1.283370906453354	3486.646153846154	3629.304029304029	0.2012820512820513	0.5888324873096447	0.09163346613545816
10011.74926757813	-5.691687811556252	-32.35754915648203	6.831218844374843	3.125670197041609	1.575475309318208	-0.8657685931244228	3488.102564102564	3627.838827838828	0.2051282051282051	0.5850253807106599	0.1115537848605578
10031.28051757813	-5.655385083219144	-32.12344568133327	6.461491678085522	4.164447706524943	1.227542982103873	-0.9670797428547224	3464.8	3624.908424908425	0.2141025641025641	0.581218274111675	0.09827357237715803
10050.81176757813	-5.847332666053558	-33.2065016995936	7.266733394644279	3.461766683382137	1.594725308444886	-1.283370906453354	3492.471794871794	3630.769230769231	0.2064102564102564	0.583756345177665	0.09694555112881806
10070.34301757813	-6.486486353389892	-32.16249493692236	7.351364661010793	3.814288466281394	0.8467114546226999	-0.897708716841684	3477.907692307692	3627.838827838828	0.1987179487179487	0.581218274111675	0.1035856573705179
10089.87426757813	-5.694119319965577	-32.27817025606554	6.588068003442276	3.828351220184416	1.208292982977194	-0.5494774295257915	3473.538461538461	3626.373626373626	0.2051282051282051	0.581218274111675	0.09296148738379813
10109.40551757813	-6.088786991245339	-32.51032513884221	7.12130087546614	3.478754490096987	2.328913564213844	-0.9618401012146651	3493.928205128205	3630.769230769231	0.2	0.5888324873096447	0.09827357237715803
10128.93676757813	-5.820463574772885	-32.38594717409477	5.953642522711519	3.469979331661501	1.211093381970454	-0.8817386549830533	3474.994871794872	3627.838827838828	0.208974358974359	0.581218274111675	0.09694555112881806
10148.46801757813	-5.650783684393902	-32.62809309414676	6.921631560609809	3.116895038606124	0.4576551270748175	-0.785667146892811	3488.102564102564	3627.838827838828	0.2153846153846154	0.58248730964467	0.099601593625498
10167.99926757813	-6.533700090981505	-32.1163475234933	6.629990901849546	3.825426167372587	0.8356862555627309	-0.5227769474485876	3485.189743589744	3629.304029304029	0.2038461538461538	0.581218274111675	0.09694555112881806
10187.53051757813	-5.012614911856282	-33.20956663133285	6.738508814371876	3.486967138376352	1.945281637739412	-0.5602078497443648	3472.082051282051	3629.304029304029	0.1987179487179487	0.583756345177665	0.1075697211155378
10207.06176757813	-5.33276885403932	-31.74467268818951	6.723114596067973	3.10924490048288	2.342739162267073	-1.669033096065023	3498.297435897436	3624.908424908425	0.1961538461538462	0.5850253807106599	0.08897742363877821
10226.59301757813	-5.938082100035334	-32.31022938665662	6.191789996466618	3.825988677528708	2.337138364280553	-1.0045106451505	3485.189743589744	3629.304029304029	0.1974358974358974	0.5888324873096447	0.08897742363877821
10246.12426757813	-5.652168720829593	-32.16515574580826	6.783127917040626	3.811363413469565	0.4741047272082364	-0.8710082347644801	3476.451282051281	3627.838827838828	0.2	0.5939086294416244	0.099601593625498
10265.65551757813	-5.290479690441279	-32.47815397419277	6.952030955872123	4.147459899810093	0.4933547263349149	-1.288610548093411	3482.276923076923	3626.373626373626	0.2115384615384615	0.5786802030456852	0.099601593625498
10285.18676757813	-6.208190674580457	-31.97126588021219	7.180932541954292	3.803150765190201	0.8577366536826689	-1.27264048623478	3488.102564102564	3627.838827838828	0.2012820512820513	0.5926395939086294	0.08233731739707835
10304.71801757813	-5.857227981921889	-32.46573819979735	6.277201807811112	4.519894542236029	0.8521358556961498	-0.6081180353202567	3469.169230769231	3624.908424908425	0.217948717948718	0.5850253807106599	0.09296148738379813
10324.24926757813	-5.054057664299178	-32.5923248359809	6.594233570082227	3.803150765190201	0.8577366536826689	-1.27264048623478	3493.928205128205	3630.769230769231	0.2038461538461538	0.58248730964467	0.09030544488711818
10343.78051757813	-5.361561607036231	-33.75559200766264	7.843839296376866	4.525182137703565	0.09589720180725386	-0.1797853017727524	3463.343589743589	3620.51282051282	0.208974358974359	0.5786802030456852	0.09827357237715803
10363.31176757813	-6.250464448884769	-32.27626167585715	6.953555111523133	4.541607434262295	-0.671366651141611	0.6234792011678483	3458.974358974359	3626.373626373626	0.2038461538461538	0.5774111675126903	0.102257636122178
10382.84301757813	-5.931695543137422	-33.27821827066197	6.830445686257852	3.827788710028295	-0.2931591257406285	-0.06774373182387938	3467.71282051282	3623.443223443223	0.1935897435897436	0.581218274111675	0.09827357237715803
10402.37426757813	-5.255423494896294	-32.12740688553935	6.457650510370536	3.841851463931317	0.06842240261386592	0.2804875554920131	3469.169230769231	3627.838827838828	0.2025641025641026	0.5850253807106599	0.08897742363877821
10421.90551757813	-5.811937906046515	-31.70225040720071	6.806209395348493	3.828351220184416	1.208292982977194	-0.5494774295257915	3485.189743589744	3627.838827838828	0.2025641025641026	0.5774111675126903	0.09561752988047809
10441.43676757813	-6.248663901518369	-32.77808022869721	7.133609848163071	3.839488921275609	1.197267783917225	-0.1745456601326951	3477.907692307692	3620.51282051282	0.208974358974359	0.58248730964467	0.09561752988047809
10460.96801757813	-6.21616232873255	-32.04013758644166	6.383767126744991	4.214286106357252	0.4272035319751008	0.9609800682651676	3467.71282051282	3627.838827838828	0.2076923076923077	0.5736040609137055	0.09296148738379813
10480.49926757813	-5.933249861804143	-32.3920330241932	6.675013819585768	3.475266927129038	0.454854728081558	-0.4534059214355491	3493.928205128205	3629.304029304029	0.1987179487179487	0.58248730964467	0.08632138114209827
10500.03051757813	-5.968336835936587	-32.6658259495502	7.166316406341372	4.189085651363038	0.07664720268057537	0.2378170115561786	3469.169230769231	3624.908424908425	0.2038461538461538	0.5850253807106599	0.08366533864541832
10519.56176757813	-5.418593714027526	-33.16106650267835	6.140628597247408	3.847139059398852	-0.6878162512750299	0.7088202890395172	3457.517948717949	3624.908424908425	0.1935897435897436	0.5913705583756345	0.09827357237715803
10539.09301757813	-6.688421587855016	-32.27392496549719	7.157841214498436	3.841851463931317	0.06842240261386592	0.2804875554920131	3466.25641025641	3626.373626373626	0.2051282051282051	0.5786802030456852	0.09827357237715803
10558.62426757813	-5.815477443604395	-32.85252162811341	6.45225563956058	3.841851463931317	0.06842240261386592	0.2804875554920131	3482.276923076923	3629.304029304029	0.1948717948717949	0.5862944162436548	0.08897742363877821
10578.15551757813	-5.808090582614038	-32.32152081925213	7.190941738596225	3.839488921275609	1.197267783917225	-0.1745456601326951	3473.538461538461	3621.978021978022	0.2025641025641026	0.5786802030456852	0.08499335989375829
10597.68676757813	-5.656077601436991	-32.39197700716402	6.39223985630093	4.175585407616136	1.216517783043904	-0.592147973461626	3492.471794871794	3630.769230769231	0.2064102564102564	0.58248730964467	0.08897742363877821
10617.21801757813	-5.768109813075483	-33.28343985802452	7.189018692451734	4.175585407616136	1.216517783043904	-0.592147973461626	3488.102564102564	3630.769230769231	0.2141025641025641	0.5850253807106599	0.08632138114209827
10636.74926757813	-4.888425158171161	-32.71499828255482	7.157484182883903	3.83656386846378	0.8246610565027619	-0.1478451780554912	3489.558974358974	3626.373626373626	0.2076923076923077	0.5913705583756345	0.08897742363877821
10656.28051757813	-5.732499602956222	-32.31786770870652	6.750039704377822	4.533394785982931	-0.2877347246671786	0.2218469496975479	3469.169230769231	3627.838827838828	0.2012820512820513	0.5774111675126903	0.09030544488711818
10675.81176757813	-6.256204655446025	-32.92431022107643	6.379534455397517	4.177947950271844	0.0876724017405444	-0.1371147578369178	3473.538461538461	3621.978021978022	0.2064102564102564	0.5862944162436548	0.09296148738379813
10695.34301757813	-5.613080530327374	-32.89540404898474	6.691946967262663	3.83656386846378	0.8246610565027619	-0.1478451780554912	3488.102564102564	3626.373626373626	0.2012820512820513	0.5862944162436548	0.08499335989375829
10714.87426757813	-6.496812569482661	-32.34437315097635	6.31874305173388	4.211361053545424	0.05459680456063732	0.9876805503423715	3476.451282051281	3629.304029304029	0.2025641025641026	0.5862944162436548	0.08897742363877821
10734.40551757813	-5.694273212902877	-32.89339943958348	6.572678709712367	3.81957606174893	0.09047280073380398	-0.4693759832941797	3492.471794871794	3630.769230769231	0.208974358974359	0.583756345177665	0.09030544488711818
10753.93676757813	-6.818351548101393	-32.41654185949452	6.164845189860793	3.833638815651952	0.4520543290882984	-0.1211446959782873	3476.451282051281	3623.443223443223	0.2076923076923077	0.5862944162436548	0.08366533864541832
10773.46801757813	-6.22465721887146	-32.80078851663213	5.534278112854	3.837126378619901	2.326113165220584	-0.6295788757574032	3505.579487179487	3630.769230769231	0.1987179487179487	0.5875634517766497	0.09030544488711818
10792.99926757813	-6.493026803225105	-32.80973523643495	6.697319677489648	3.481117032752695	1.200068182910485	-0.5068068855899569	3488.102564102564	3627.838827838828	0.2012820512820513	0.5875634517766497	0.09694555112881806
10812.53051757813	-5.052180170464129	-33.28652879706199	6.78198295358712	4.880628973414651	-0.2795099246004691	0.1791764057617135	3472.082051282051	3626.373626373626	0.2012820512820513	0.5799492385786802	0.09561752988047809
10832.06176757813	-6.0970510419783	-32.84813229375577	6.294895802170013	4.181435513239793	1.961731237872831	-0.6455489376160337	3505.579487179487	3629.304029304029	0.2128205128205128	0.5888324873096447	0.09428950863213811
10851.59301757813	-6.578020641351895	-32.3038914599269	6.197935864810594	4.189648161519158	1.578099311398398	-0.2439166861457334	3470.625641025641	3623.443223443223	0.2038461538461538	0.5799492385786802	0.08632138114209827
10871.12426757813	-5.531395390352513	-32.12867527112857	6.860460964748667	3.842976484243558	3.071326620049511	-0.682979839911811	3479.364102564102	3626.373626373626	0.2012820512820513	0.581218274111675	0.07702523240371846
10890.65551757813	-5.974569499897199	-32.08260788202691	6.543050010280047	4.170297812148601	1.9727564369328	-1.02048070700913	3483.733333333333	3630.769230769231	0.1987179487179487	0.5850253807106599	0.09561752988047809
10910.18676757813	-5.185788171911954	-33.23312317713815	5.421182808804645	4.514606946768494	1.608374509585046	-1.036450768867761	3492.471794871794	3629.304029304029	0.2115384615384615	0.5862944162436548	0.09561752988047809
10929.71801757813	-5.859151643638128	-32.65610299377164	6.084835636187247	3.809000870813858	1.602950108511596	-1.326041450389188	3505.579487179487	3630.769230769231	0.2064102564102564	0.5799492385786802	0.08764940239043824
10949.24926757813	-5.697289514473939	-33.35189143653517	6.271048552606144	3.806075818002029	1.230343381097132	-1.299340968311984	3488.102564102564	3626.373626373626	0.1884615384615385	0.5875634517766497	0.09428950863213811
10968.78051757813	-5.899363252582631	-32.11702773027616	6.063674741736872	3.825426167372587	0.8356862555627309	-0.5227769474485876	3467.71282051282	3626.373626373626	0.1987179487179487	0.583756345177665	0.1049136786188579
10988.31176757813	-4.897935741696245	-32.93616182396372	6.20642583037551	4.175585407616136	1.216517783043904	-0.592147973461626	3482.276923076923	3626.373626373626	0.1974358974358974	0.5850253807106599	0.09694555112881806
11007.84301757813	-6.134292517232931	-32.73513378836397	6.570748276706887	4.186723108707329	1.205492583983935	-0.2172162040685295	3476.451282051281	3623.443223443223	0.1961538461538462	0.583756345177665	0.08366533864541832
11027.37426757813	-6.895973914531557	-32.34122019247697	6.402608546844394	4.525182137703565	0.09589720180725386	-0.1797853017727524	3466.25641025641	3619.047619047619	0.2	0.581218274111675	0.08632138114209827
11046.90551757813	-6.090956881661255	-33.08505662644521	6.90431183387442	3.481117032752695	1.200068182910485	-0.5068068855899569	3492.471794871794	3629.304029304029	0.2128205128205128	0.5888324873096447	0.08499335989375829
11066.43676757813	-5.700028808757863	-32.50297090315456	5.997119124213761	3.831276272996244	1.580899710391658	-0.5761779116029954	3488.102564102564	3627.838827838828	0.2051282051282051	0.5862944162436548	0.08632138114209827
11085.96801757813	-5.537520329257018	-32.81479677514272	6.247967074298278	3.145583056568288	2.682270292501629	-0.5709382699629381	3505.579487179487	3630.769230769231	0.1987179487179487	0.58248730964467	0.08632138114209827
11105.49926757813	-5.304268497623278	-32.00268881740049	5.573150237672251	3.503954945091202	2.67946989350837	-0.2386770445056761	3488.102564102564	3623.443223443223	0.1987179487179487	0.5926395939086294	0.1049136786188579
11125.03051757813	-5.296773911576811	-32.74102758007665	6.322608842318833	4.220136211980909	1.172416986804028	0.9075791041107597	3463.343589743589	3627.838827838828	0.2	0.5862944162436548	0.1049136786188579
11144.56176757813	-5.258701414460766	-31.93178849447155	6.129858553923469	3.130957792509145	0.8192366554293119	-0.4374358595769185	3501.210256410256	3630.769230769231	0.1974358974358974	0.5901015228426395	0.102257636122178
11164.09301757813	-5.496277637632609	-32.93183650906799	6.372236236739045	3.852989165022509	0.0573972035538969	0.6554193248851095	3470.625641025641	3623.443223443223	0.2115384615384615	0.581218274111675	0.08499335989375829
11183.62426757813	-6.093973183232318	-32.5435486233969	6.602681676768198	3.844776516743145	0.4410291300283294	0.2537870734148092	3479.364102564102	3630.769230769231	0.1961538461538462	0.5850253807106599	0.08100929614873838
