Time Stamp	Accelerometer X	Accelerometer Y	Accelerometer Z	Gyroscope X	Gyroscope Y	Gyroscope Z	VSenseReg	VSenseBatt	Magnetometer X	Magnetometer Y	Magnetometer Z
577.178955078125	-13.80769230769231	-32.12307538338363	0.730692246104576	3.112453370664383	-0.1103446913445781	-0.8485545112323344	3460.430769230769	3616.117216117216	0.3997569866342648	0.537712895377129	0.06869220607661823
596.710205078125	-14.53846153846154	-32.44886678573629	0.4433392868140669	-0.4041789054155775	1.906848375531371	0.8394368034217142	3498.297435897436	3624.908424908425	0.4046172539489671	0.537712895377129	0.0607661822985469
616.241455078125	-15.5	-31.95866693354684	1.894885138880335	1.270066583016953	2.244204548029101	-3.255564742798858	3495.384615384615	3617.582417582417	0.3997569866342648	0.5450121654501217	0.06472919418758256
635.772705078125	-15.03846153846154	-31.90237574675125	0.5418642606392807	1.720877276106879	1.299597272798627	-2.861355657175939	3489.558974358974	3614.652014652014	0.3876063183475091	0.5450121654501217	0.06208718626155878
655.303955078125	-14.46153846153846	-32.23406417441645	1.164747182361274	2.201164596278737	0.8400069054992269	-1.646264638132285	3470.625641025641	3616.117216117216	0.3973268529769137	0.537712895377129	0.06472919418758256
674.835205078125	-14.73076923076923	-31.15017398534212	1.085622344029069	2.198510517995014	1.771077143555119	-2.045090660275011	3486.646153846154	3614.652014652014	0.4070473876063183	0.5364963503649636	0.06605019815059446
694.366455078125	-14.96153846153846	-31.368086777114	2.596646548007637	2.673964144063975	0.8420552994471472	-0.8346456190584131	3470.625641025641	3621.978021978022	0.4009720534629404	0.5279805352798054	0.06605019815059446
713.897705078125	-15	-31.67372359426003	0.6092566360780931	3.129608531256798	0.3668795010252447	-0.4357905556084379	3474.994871794872	3620.51282051282	0.402187120291616	0.5352798053527981	0.06340819022457067
733.428955078125	-14.69230769230769	-31.71677341873499	0.5309786290570919	3.563264063754308	-1.054951966575052	-0.454345425609416	3458.974358974359	3614.652014652014	0.3985419198055893	0.5413625304136254	0.06340819022457067
752.960205078125	-15.53846153846154	-31.66690275297161	0.8066761101188643	2.669130449961077	0.3726238226385756	-0.8392915968854698	3492.471794871794	3621.978021978022	0.402187120291616	0.5364963503649636	0.06869220607661823
772.491455078125	-14.88461538461539	-32.03321888279854	1.160944139927326	2.644487516982042	0.3570383915160731	-1.655527552479149	3507.035897435897	3620.51282051282	0.4009720534629404	0.5352798053527981	0.05416116248348745
792.022705078125	-15.42307692307692	-31.86088101250231	0.7748198558847079	3.55094259726479	-1.062744682136304	-0.8624634034062557	3473.538461538461	3617.582417582417	0.402187120291616	0.5498783454987835	0.06208718626155878
811.553955078125	-14.30769230769231	-32.6174170105315	0.9477736034981833	3.565918142038031	-1.986022204630944	-0.05551940346668975	3472.082051282051	3620.51282051282	0.3948967193195626	0.5437956204379563	0.05680317040951123
831.085205078125	-15.34615384615385	-31.10179682207304	1.205225719036768	3.134916687824243	-1.495260975086539	0.3618614886770146	3466.25641025641	3620.51282051282	0.3900364520048603	0.5304136253041363	0.05548216644649934
850.616455078125	-14.65384615384616	-32.38114337623946	1.018707273511117	2.231115685825218	-1.006548139490054	-0.03237663825315272	3482.276923076923	3624.908424908425	0.3924665856622114	0.5474452554744526	0.05548216644649934
870.147705078125	-14.73076923076923	-31.48043819671122	0.2911406047915257	1.775471298632395	-0.5313723410681518	-0.4312317017031279	3482.276923076923	3620.51282051282	0.3973268529769137	0.551094890510949	0.05151915455746367
889.678955078125	-15.42307692307692	-31.97250877625178	0.586977274126994	2.218319756871152	1.31723109786905	-1.233500682508388	3496.841025641026	3620.51282051282	0.3900364520048603	0.5462287104622872	0.0607661822985469
909.210205078125	-15.11538461538462	-32.4127994703455	1.139973517275359	3.126954452973075	1.297949739081137	-0.8346165777511642	3482.276923076923	3617.582417582417	0.3961117861482381	0.5316301703163017	0.05548216644649934
928.741455078125	-14.15384615384616	-31.9399211677034	1.534519923631213	1.319826911439572	-0.05619654264624922	-0.830086765153103	3502.666666666666	3621.978021978022	0.4009720534629404	0.5413625304136254	0.05284015852047556
948.272705078125	-14.19230769230769	-32.46958335899489	1.133014103590565	1.753482443937083	-1.478028010246546	-0.8486416351540811	3483.733333333333	3617.582417582417	0.4034021871202916	0.5523114355231144	0.05680317040951123
967.803955078125	-15.38461538461539	-32.78237974995381	0.6574490361519985	2.674438606528523	-1.489516653473208	-0.04163955260001731	3482.276923076923	3623.443223443223	0.3997569866342648	0.5425790754257908	0.06869220607661823
987.335205078125	-14.92307692307692	-31.59980291925848	0.6824536552318777	1.760495753859155	0.3919051814264888	-1.238175701642694	3495.384615384615	3620.51282051282	0.3973268529769137	0.5450121654501217	0.06869220607661823
1006.866455078125	-14.69230769230769	-31.70522571903677	-0.04640635585391384	2.659463061755282	-0.5662391309785675	-0.8485835525395833	3473.538461538461	3619.047619047619	0.393681652490887	0.5352798053527981	0.06340819022457067
1026.397705078125	-14.57692307692308	-31.90459290509331	0.1911837162037324	2.198984980459562	-0.5604948093652366	-1.252084593816615	3474.994871794872	3617.582417582417	0.3961117861482381	0.5437956204379563	0.06208718626155878
1045.928955078125	-14.92307692307692	-32.28881566791895	0.517706472870604	1.302671750847157	-0.5334207350160721	-1.242850720776999	3485.189743589744	3619.047619047619	0.3973268529769137	0.5462287104622872	0.05812417437252312
1065.460205078125	-15.46153846153846	-32.35820964463879	0.6797130011701669	2.194151286356665	-1.029926286173808	-1.256730571643672	3483.733333333333	3617.582417582417	0.3839611178614824	0.5364963503649636	0.06340819022457067
1084.991455078125	-15.19230769230769	-31.90471608055676	0.8127271047607317	1.29783805674426	-1.002852211824644	-1.247496698604056	3485.189743589744	3617.582417582417	0.3997569866342648	0.5474452554744526	0.06605019815059446
1104.522705078125	-14.65384615384616	-32.37960368294636	0.9417226088563159	0.3913829764615114	0.416930861827733	-2.04056084767695	3486.646153846154	3611.721611721612	0.3924665856622114	0.5316301703163017	0.059445178335535
1124.053955078125	-15.38461538461539	-31.69689597832112	0.2294143006713063	0.8690162183496468	0.8884107325842249	-1.224295850776021	3470.625641025641	3619.047619047619	0.3924665856622114	0.5462287104622872	0.05680317040951123
1143.585205078125	-15.11538461538462	-32.25959998768245	1.172307076430375	0.3962166705644089	0.8863623386363047	-2.035914869849893	3489.558974358974	3614.652014652014	0.3948967193195626	0.5425790754257908	0.0607661822985469
1163.116455078125	-15.15384615384616	-32.64376116277637	1.188058138818747	0.8298722030619191	-0.5354691289639924	-2.054469739850871	3474.994871794872	3614.652014652014	0.3912515188335358	0.5389294403892945	0.059445178335535
1182.647705078125	-15	-32.37428404261871	1.021894438627825	1.273195123765224	-1.018437642947146	-2.063732654197735	3470.625641025641	3614.652014652014	0.3985419198055893	0.5364963503649636	0.06340819022457067
1202.178955078125	-15.23076923076923	-31.88393791956642	1.735357516782657	0.3544185769929583	0.3935527151439793	-3.264914781067469	3489.558974358974	3614.652014652014	0.3961117861482381	0.5425790754257908	0.0488771466314399
1221.710205078125	-14.57692307692308	-32.09243548685102	1.891005111781733	1.272720661300676	1.313134309973209	-2.856738720656131	3486.646153846154	3617.582417582417	0.402187120291616	0.5364963503649636	0.05812417437252312
1241.241455078125	-14.88461538461539	-32.15485465295313	1.473501878425818	0.8170762741078531	1.788310108395112	-3.255593784106106	3505.579487179487	3617.582417582417	0.4082624544349939	0.5413625304136254	0.047556142668428
1260.772705078125	-14.88461538461539	-32.3403876947712	1.134769353944694	1.723531354390602	0.368527034742735	-2.462529635033213	3486.646153846154	3614.652014652014	0.3900364520048603	0.5474452554744526	0.05548216644649934
1280.303955078125	-15.11538461538462	-32.81158003325737	1.848232432099526	2.164674659274732	-1.514943194104882	-2.077612505064408	3470.625641025641	3613.186813186813	0.4009720534629404	0.537712895377129	0.047556142668428
1299.835205078125	-14.65384615384616	-32.83689259099587	0.7292449344090658	1.270541045481501	-0.08736740489125427	-2.462558676340462	3489.558974358974	3610.25641025641	0.3900364520048603	0.5316301703163017	0.06340819022457067
1319.366455078125	-14.07692307692308	-31.74051548931453	1.102697542649504	3.033690877624379	-0.6265324615206572	-3.30190835584043	3482.276923076923	3619.047619047619	0.3973268529769137	0.5401459854014599	0.059445178335535
1338.897705078125	-14.30769230769231	-32.08314343782718	1.157171891359242	2.644487516982042	0.3570383915160731	-1.655527552479149	3480.820512820513	3619.047619047619	0.3997569866342648	0.5425790754257908	0.047556142668428
1358.428955078125	-14.42307692307692	-31.58661544620312	1.446156925540433	3.555776291367688	-0.5933132053277319	-0.8578174255791989	3461.887179487179	3619.047619047619	0.3961117861482381	0.5462287104622872	0.05548216644649934
1377.960205078125	-14.30769230769231	-32.80448974564267	0.6860257436718606	1.765329447962052	0.8613366582350603	-1.233529723815637	3495.384615384615	3620.51282051282	0.4034021871202916	0.537712895377129	0.05151915455746367
1397.491455078125	-14.96153846153846	-31.98396409435241	0.6982047176202501	1.312339139052952	0.4054422186010711	-1.233558765122886	3505.579487179487	3620.51282051282	0.3912515188335358	0.5425790754257908	0.06605019815059446
1417.022705078125	-15.61538461538462	-32.31820841288415	0.7565744903615199	1.32466060554247	0.4132349341623223	-0.8254407873260463	3492.471794871794	3621.978021978022	0.393681652490887	0.5389294403892945	0.05812417437252312
1436.553955078125	-15.15384615384616	-31.87314466958182	1.118771940629427	1.78513868683819	0.4074906125489913	-0.4219397460490144	3472.082051282051	3617.582417582417	0.3973268529769137	0.5413625304136254	0.05680317040951123
1456.085205078125	-14.88461538461539	-31.7984156556014	0.9592443185317485	0.8690162183496468	0.8884107325842249	-1.224295850776021	3495.384615384615	3620.51282051282	0.393681652490887	0.537712895377129	0.06340819022457067
1475.616455078125	-14.5	-31.33643068300795	0.5523033811664718	1.265707351378604	-0.5567988816998258	-2.467204654167519	3486.646153846154	3621.978021978022	0.3924665856622114	0.5437956204379563	0.06869220607661823
1495.147705078125	-14.34615384615385	-32.09161944940568	-0.3036429143314652	1.317647295620398	-1.456698257510713	-0.4359067208374335	3473.538461538461	3617.582417582417	0.3985419198055893	0.537712895377129	0.06472919418758256
1514.678955078125	-15.46153846153846	-32.7400535813266	0.5411406047915255	0.406358521234752	-0.5063466606669076	-1.233616847737384	3492.471794871794	3619.047619047619	0.3973268529769137	0.5304136253041363	0.06208718626155878
1534.210205078125	-15	-32.28806121820533	0.5569070641128286	-0.05895325416386565	-0.9700338158621482	-1.641763866841473	3493.928205128205	3617.582417582417	0.3961117861482381	0.5437956204379563	0.06340819022457067
1553.741455078125	-15.34615384615385	-32.52601311818686	1.262194370881321	0.3597267335604041	-1.468587760967805	-2.467262736782016	3493.928205128205	3617.582417582417	0.3997569866342648	0.5328467153284672	0.059445178335535
1573.272705078125	-15.53846153846154	-32.70157664593213	0.6172938350680545	0.3742278158690964	-0.0602933305420898	-2.453324803300846	3492.471794871794	3617.582417582417	0.393681652490887	0.551094890510949	0.06208718626155878
1592.803955078125	-15	-32.10791710291309	1.165085914885755	1.75082836565336	-0.5469577721906543	-1.247467657296807	3466.25641025641	3614.652014652014	0.4034021871202916	0.537712895377129	0.05548216644649934
1612.335205078125	-15.38461538461539	-31.79851573566546	1.464248321734311	0.3988707488481317	-0.04470789941958728	-1.637088847707167	3491.015384615384	3619.047619047619	0.3924665856622114	0.5425790754257908	0.059445178335535
1631.866455078125	-15.23076923076923	-31.98632752355731	1.085606947096139	1.27101550794605	-2.41893935781161	-1.669552609882066	3492.471794871794	3624.908424908425	0.3900364520048603	0.5462287104622872	0.05019815059445178
1651.397705078125	-14.76923076923077	-31.80224179343475	1.035166594814313	0.8598232926084003	-2.382024173953274	-0.4405817399717391	3477.907692307692	3619.047619047619	0.3973268529769137	0.5425790754257908	0.05019815059445178
1670.928955078125	-15.03846153846154	-32.31809293588717	0.1738775635893328	0.4111922153376494	-0.03691518385833602	-1.228970869910327	3495.384615384615	3620.51282051282	0.3912515188335358	0.5389294403892945	0.06208718626155878
1690.460205078125	-14.73076923076923	-32.38346831311203	1.211877194062943	0.4111922153376494	-0.03691518385833602	-1.228970869910327	3483.733333333333	3619.047619047619	0.3948967193195626	0.5474452554744526	0.05812417437252312
1709.991455078125	-15.76923076923077	-32.3228582866293	1.142914331465172	0.3988707488481317	-0.04470789941958728	-1.637088847707167	3491.015384615384	3621.978021978022	0.3961117861482381	0.5498783454987835	0.04623513870541612
1729.522705078125	-14.69230769230769	-32.03395023711277	1.005204163330665	0.4138462936213723	-0.9679854219142279	-0.8301448477676008	3488.102564102564	3620.51282051282	0.393681652490887	0.5535279805352799	0.05548216644649934
1749.053955078125	-15.26923076923077	-31.89934255096385	0.620973702038554	0.3993452113126801	-2.376279852339942	-0.844082781248771	3477.907692307692	3619.047619047619	0.393681652490887	0.5523114355231144	0.05548216644649934
1768.585205078125	-15.34615384615385	-31.47209305906263	0.4892683377471208	-0.07610841475628077	-1.447258008231971	-2.054527822465369	3486.646153846154	3613.186813186813	0.393681652490887	0.5401459854014599	0.05416116248348745
1788.116455078125	-15.65384615384616	-32.10727813019647	-0.1360934901767568	0.3817155882557166	-0.5219320917894101	-2.049852803331063	3480.820512820513	3614.652014652014	0.3924665856622114	0.5437956204379563	0.05284015852047556
1807.647705078125	-15.11538461538462	-32.5698481862413	1.300101619757344	0.3693941217661989	-0.5297248073506613	-2.457970781127903	3480.820512820513	3617.582417582417	0.3863912515188335	0.5401459854014599	0.047556142668428
1827.178955078125	-15.11538461538462	-32.75384153476627	0.8843844306214201	0.8148966582886786	0.3878083935306482	-2.861413739790437	3479.364102564102	3613.186813186813	0.3973268529769137	0.5437956204379563	0.05548216644649934
1846.710205078125	-15.80769230769231	-32.6184870973702	0.5782010223563467	1.219075563704256	-1.519039982000723	-3.700850543212151	3486.646153846154	3613.186813186813	0.3997569866342648	0.5498783454987835	0.0607661822985469
1866.241455078125	-15.73076923076923	-32.05956303504342	1.401228675247891	0.7832404153875712	-1.497710229264889	-3.288115628895504	3492.471794871794	3617.582417582417	0.402187120291616	0.5474452554744526	0.04095112285336856
1885.772705078125	-16.23076923076923	-32.33911744780441	0.4943339286814067	0.7977414976962635	-0.08941579883917455	-3.274177695414334	3488.102564102564	3616.117216117216	0.3973268529769137	0.537712895377129	0.05019815059445178
1905.303955078125	-16.23076923076923	-32.24365646363245	1.490515489314529	1.258219578991984	-0.09516012045250553	-2.870676654137302	3470.625641025641	3613.186813186813	0.3985419198055893	0.537712895377129	0.047556142668428
1924.835205078125	-14.57692307692308	-32.64826476565868	0.8363152060109628	0.3469308046063381	0.8551914763912996	-3.668386781037252	3479.364102564102	3610.25641025641	0.4046172539489671	0.5413625304136254	0.05151915455746367
1944.366455078125	-14.88461538461539	-32.08479860811726	-0.1062234402906941	0.8245640464944735	1.326671347147792	-2.852121784136323	3476.451282051281	3614.652014652014	0.3900364520048603	0.5389294403892945	0.05680317040951123
1963.897705078125	-14.69230769230769	-32.49816776498122	1.139157479830018	0.8223844306752989	-0.07383036771667204	-2.457941739820654	3467.71282051282	3616.117216117216	0.4058323207776428	0.5401459854014599	0.04623513870541612
1983.428955078125	-15.42307692307692	-32.94097585760917	0.9334082650735973	0.3715737375853735	0.8707769075138021	-2.852150825443573	3493.928205128205	3617.582417582417	0.3924665856622114	0.5425790754257908	0.05019815059445178
2002.960205078125	-15.84615384615385	-32.55305783088009	1.191353082465973	0.8175507365724014	-0.5432618445252436	-2.462587717647711	3480.820512820513	3617.582417582417	0.402187120291616	0.5450121654501217	0.05019815059445178
2022.491455078125	-15.65384615384616	-32.16270708874792	0.7122775143191477	0.7387882435323978	-1.059449614701323	-4.915941562255806	3498.297435897436	3611.721611721612	0.4046172539489671	0.5401459854014599	0.04095112285336856
2042.022705078125	-16.07692307692308	-32.16202192523249	1.101096261624684	0.7044779223475677	-2.013897999440968	-5.741469473503599	3486.646153846154	3607.326007326007	0.4034021871202916	0.5413625304136254	0.05284015852047556
2061.553955078125	-16.61538461538462	-32.18676479645255	0.953624438011948	2.475115526877065	-3.014701817317692	-6.177347153033783	3458.974358974359	3604.395604395604	0.4046172539489671	0.537712895377129	0.05548216644649934
2081.085205078125	-17.42307692307692	-31.74580433577631	0.8671398657387448	2.464973676206722	-1.62199281801448	-6.979645175146293	3472.082051282051	3598.534798534799	0.3997569866342648	0.5389294403892945	0.05284015852047556
2100.616455078125	-17.03846153846154	-32.22072273203177	1.151521216973579	3.412277925131824	2.11417763766618	-6.543593247772614	3470.625641025641	3607.326007326007	0.3851761846901579	0.5352798053527981	0.04359313077939234
2120.147705078125	-17.03846153846154	-31.48474933793188	0.8913130504403524	3.399481996177758	4.437956875025284	-7.74471729202785	3467.71282051282	3601.465201465201	0.4058323207776428	0.5340632603406327	0.04095112285336856
2139.678955078125	-16.15384615384615	-31.3983494487898	1.455933977951592	3.416162694305625	7.246753020315462	-8.124959402862348	3480.820512820513	3602.930402930403	0.4046172539489671	0.5328467153284672	0.05151915455746367
2159.210205078125	-17.26923076923077	-31.23074613536984	1.883460614645563	2.517195386409497	8.204897332720517	-8.514551551965459	3474.994871794872	3597.069597069597	0.4106925880923451	0.5352798053527981	0.0488771466314399
2178.741455078125	-18.30769230769231	-31.05234957196526	1.694401675186303	1.742198971834076	17.63618637436362	-7.59616216679103	3480.820512820513	3601.465201465201	0.4070473876063183	0.5340632603406327	0.06340819022457067
2198.272705078125	-17.84615384615385	-31.69969822011456	2.831064851881505	1.892992413952992	27.52541824958863	-5.86612472123548	3458.974358974359	3604.395604395604	0.4119076549210206	0.5340632603406327	0.05284015852047556
2217.803955078125	-17.26923076923077	-32.5979937796391	2.938150520416333	2.372330809195754	31.72897178812994	-6.237045835108616	3470.625641025641	3605.860805860806	0.4094775212636695	0.5279805352798054	0.05548216644649934
2237.335205078125	-16.42307692307692	-34.13597801317978	3.991208351296422	4.994829471482484	31.13935451046762	-8.309983321038718	3466.25641025641	3594.139194139194	0.4094775212636695	0.5304136253041363	0.06869220607661823
2256.866455078125	-17.23076923076923	-32.33623822134631	3.273449528853853	8.467484038171817	27.22885010523487	-10.83279450259467	3450.235897435897	3591.208791208791	0.402187120291616	0.524330900243309	0.07133421400264201
2276.397705078125	-17.84615384615385	-32.56654554412761	3.865738744842028	10.62201684677621	27.1066159104332	-13.71270502977159	3546.358974358974	3693.772893772893	0.4082624544349939	0.5401459854014599	0.06472919418758256
2295.928955078125	-17.57692307692308	-32.95141497813636	3.609210445279301	12.8130395923846	29.33933181523564	-16.16126769001638	3553.641025641025	3689.377289377289	0.4143377885783718	0.5352798053527981	0.07397622192866579
2315.460205078125	-18.03846153846154	-32.36642390835745	3.667349264026606	15.04102673746155	31.59542586672184	-17.38547641687066	3549.271794871795	3683.516483516483	0.4009720534629404	0.5328467153284672	0.08058124174372523
2334.991455078125	-17.19230769230769	-32.74732863213648	4.558739299131613	17.25233318441063	31.04272377291785	-18.22944303289044	3537.620512820513	3676.190476190476	0.4155528554070473	0.5255474452554745	0.07133421400264201
2354.522705078125	-17.34615384615385	-33.38787183593028	4.047437950360289	19.87047261505901	27.6521030655266	-19.5140204301892	3544.902564102564	3679.120879120879	0.4106925880923451	0.5279805352798054	0.07926023778071334
2374.053955078125	-17.03846153846154	-32.27846123052288	4.038446141528607	24.2302474856195	20.4440896794072	-21.26235137398049	3512.861538461538	3670.32967032967	0.4277035236938031	0.5255474452554745	0.08718626155878467
2393.585205078125	-18	-31.36715526267168	5.588532364353021	25.04296452808901	19.43139635807339	-23.72958506945525	3534.707692307692	3667.399267399267	0.4155528554070473	0.5328467153284672	0.09907529722589167
2413.116455078125	-18.53846153846154	-31.8276313358379	6.073874484202747	26.43842539182031	23.15402977657947	-23.29815007860139	3525.969230769231	3665.934065934066	0.4325637910085055	0.5291970802919708	0.09511228533685601
2432.647705078125	-18.19230769230769	-31.74980753833836	5.682684609225842	29.20735826458761	29.65264094441323	-22.8526900303446	3524.51282051282	3671.794871794872	0.4277035236938031	0.5121654501216545	0.1109643328929987
2452.178955078125	-17.92307692307692	-31.52264888834144	5.593982878610581	31.89364387514111	30.50248895942162	-23.27921767160617	3533.251282051282	3667.399267399267	0.4374240583232077	0.5060827250608273	0.1083223249669749
2471.710205078125	-16.80769230769231	-31.1528992424709	7.14496212354499	35.37691475496533	22.86770360196532	-24.20672476459122	3524.51282051282	3664.468864468864	0.4264884568651275	0.5231143552311436	0.1215323645970938
2491.241455078125	-18.07692307692308	-31.1185101927696	6.694740407710784	37.0890735677955	18.56529401530609	-25.49136024450448	3528.882051282051	3668.864468864469	0.4301336573511543	0.5121654501216545	0.1321003963011889
2510.772705078125	-18.88461538461539	-31.33653846153846	6.865384615384615	39.32938217936197	20.82918078235354	-26.30745099356192	3525.969230769231	3665.934065934066	0.4410692588092345	0.5145985401459854	0.142668428005284
2530.303955078125	-18.5	-31.15092843505574	6.815652522017614	40.24503018538597	22.67983261523866	-26.29810095529331	3517.230769230769	3665.934065934066	0.4374240583232077	0.5048661800486618	0.1387054161162483
2549.835205078125	-18.11538461538462	-30.37638572396379	8.088516967420089	40.73934412540197	25.96010863128533	-25.86207806922688	3525.969230769231	3664.468864468864	0.4434993924665856	0.4963503649635037	0.142668428005284
2569.366455078125	-17.23076923076923	-29.94663423046129	6.870173061526144	42.50296842000939	23.08937162173557	-25.90842168226845	3515.774358974359	3661.538461538461	0.44228432563791	0.5024330900243309	0.1624834874504623
2588.897705078125	-18.96153846153846	-29.85151967728028	7.691368479398903	42.00382078589049	19.33966412888033	-26.34909054616194	3523.05641025641	3667.399267399267	0.4495747266099635	0.4975669099756691	0.1638044914134743
2608.428955078125	-19.96153846153846	-29.8471007575291	8.470422491839626	42.04249033871367	23.0951159433489	-26.31192272354548	3521.6	3667.399267399267	0.4641555285540704	0.4939172749391728	0.1704095112285337
2627.960205078125	-19.69230769230769	-29.3027652891544	7.907495226950791	40.74853705114322	29.23054353782283	-26.64579218003116	3528.882051282051	3660.07326007326	0.4544349939246658	0.4902676399026764	0.1704095112285337
2647.491455078125	-19.42307692307692	-28.80616031286568	7.808015643283858	41.26701946167371	34.85797693791236	-26.18653940482945	3547.815384615385	3667.399267399267	0.4605103280680437	0.489051094890511	0.1836195508586526
2667.022705078125	-17.84615384615385	-28.78197942969761	8.868202254110981	43.48846775929313	32.91256584480516	-26.22820799873671	3534.707692307692	3665.934065934066	0.4592952612393682	0.4781021897810219	0.2007926023778071
2686.553955078125	-18.19230769230769	-28.73508807045636	8.792865061279793	45.62992287298247	24.38732136081671	-26.74303826001961	3507.035897435897	3660.07326007326	0.4592952612393682	0.4708029197080292	0.2007926023778071
2706.085205078125	-18.23076923076923	-28.05994025990023	9.689320687319086	48.2485367660954	18.6651287005051	-27.23460959085998	3496.841025641026	3658.608058608058	0.4678007290400972	0.4793187347931874	0.2100396301188904
2725.616455078125	-19.34615384615385	-27.6844783519123	9.33930221099957	47.31791321529816	17.73775439011462	-28.05090362906816	3525.969230769231	3658.608058608058	0.4714459295261239	0.4586374695863747	0.2100396301188904
2745.147705078125	-18.84615384615385	-27.67360041879658	10.21848247829033	47.76123613600147	17.25478587613147	-28.06016654341502	3508.492307692307	3658.608058608058	0.4702308626974483	0.462287104622871	0.2351387054161163
2764.678955078125	-19.03846153846154	-27.91998983802427	9.268722670444047	47.29810397642203	18.19160043580069	-28.86249360683478	3528.882051282051	3658.608058608058	0.4726609963547995	0.4562043795620438	0.2324966974900925
2784.210205078125	-18.42307692307692	-27.34017213771017	10.43168380858533	47.29810397642203	18.19160043580069	-28.86249360683478	3527.425641025641	3660.07326007326	0.4617253948967193	0.4525547445255475	0.2338177014531044
2803.741455078125	-19.84615384615385	-27.09641559401367	11.20539508529901	46.84027997341003	17.26627451935813	-28.86716862596909	3528.882051282051	3658.608058608058	0.4823815309842041	0.4464720194647202	0.2483487450462351
2823.272705078125	-19.42307692307692	-25.78836145839749	12.68730368910513	47.32492652522024	19.60768758178765	-28.44043769555677	3528.882051282051	3658.608058608058	0.4823815309842041	0.4416058394160584	0.261558784676354
2842.803955078125	-19.65384615384615	-25.35267444725011	12.28756851635154	48.21157236662685	18.64175055382135	-28.4589635242505	3504.123076923077	3654.212454212454	0.4811664641555285	0.4367396593673966	0.2708058124174372
2862.335205078125	-20	-25.81773110796329	12.80963232124161	49.49007564695952	15.76117243476242	-29.72504413416278	3495.384615384615	3654.212454212454	0.4775212636695018	0.4221411192214112	0.2760898282694848
2881.866455078125	-19.88461538461539	-26.23034581511363	12.17113690952762	49.45311124749096	15.73779428807866	-30.9493980675533	3505.579487179487	3651.282051282051	0.4811664641555285	0.4172749391727494	0.2800528401585205
2901.397705078125	-20.03846153846154	-25.71457935579233	13.45973702038554	50.26848236824419	13.79403072868896	-33.01780574088534	3509.948717948718	3649.81684981685	0.4908869987849331	0.4160583941605839	0.285336856010568
2920.928955078125	-19.57692307692308	-25.00160897949128	13.88814128225657	50.63351725837204	10.46330249160937	-34.68741643338191	3515.774358974359	3643.956043956044	0.4872417982989064	0.4087591240875912	0.309114927344782
2940.460205078125	-20.92307692307692	-23.68852004680668	13.04138695571842	50.24383943526515	13.77844529756646	-33.83404169647903	3509.948717948718	3643.956043956044	0.4872417982989064	0.402676399026764	0.3011889035667107
2959.991455078125	-22.26923076923077	-23.34466804212601	14.50263287553119	50.24601905108433	15.17894701243092	-34.22822174079469	3517.230769230769	3646.886446886447	0.4933171324422843	0.3941605839416059	0.3170409511228534
2979.522705078125	-19.69230769230769	-23.15553981646856	15.93083697727413	52.56944938732914	20.76002497938337	-33.37931873387537	3499.753846153846	3642.490842490842	0.4945321992709599	0.3880778588807786	0.3249669749009247
2999.053955078125	-20.88461538461539	-23.20350896101497	15.67544805074829	52.55807684576872	16.08908835798141	-32.20142457875542	3502.666666666666	3649.81684981685	0.5054678007290401	0.3771289537712895	0.3342140026420079
3018.585205078125	-21.07692307692308	-23.52688304489746	16.65184455256513	53.97770618001452	22.15887916053034	-31.74675969876627	3514.317948717948	3648.351648351648	0.5030376670716888	0.3710462287104623	0.3276089828269485
3038.116455078125	-20.26923076923077	-21.65137494611073	16.29951653630597	55.32483010271685	21.18719781095071	-31.36178448618296	3517.230769230769	3654.212454212454	0.5054678007290401	0.3564476885644769	0.332892998678996
3057.647705078125	-20.34615384615385	-22.16872728952393	17.24405678388865	57.49746699684274	16.87904390267815	-32.24291892481919	3508.492307692307	3649.81684981685	0.5151883353584447	0.3637469586374696	0.357992073976222
3077.178955078125	-21.46153846153846	-21.02418858163454	16.90173677403461	57.50448030676481	18.74897709435118	-32.63245299130781	3509.948717948718	3648.351648351648	0.5078979343863912	0.3515815085158151	0.3593130779392338
3096.710205078125	-20.88461538461539	-20.30195695017553	16.7516936626224	57.95965023149309	20.60537324884963	-33.02660399431623	3518.687179487179	3649.81684981685	0.5066828675577156	0.3394160583941606	0.3632760898282695
3116.241455078125	-20.80769230769231	-20.13642452423477	16.09045698096939	57.53130285556303	20.16506424033815	-32.21039708002979	3512.861538461538	3648.351648351648	0.5127582017010935	0.3345498783454988	0.3645970937912814
3135.772705078125	-20.34615384615385	-18.89225996181561	16.88222886001109	57.13413726006952	23.94184580754255	-31.76049434309669	3523.05641025641	3649.81684981685	0.5030376670716888	0.3114355231143552	0.3844121532364597
3155.303955078125	-19.23076923076923	-18.19994457104145	17.68953624438012	56.70844396242318	22.57046656097517	-30.54546140666754	3509.948717948718	3654.212454212454	0.5054678007290401	0.3150851581508516	0.3857331571994716
3174.835205078125	-19.42307692307692	-18.25156278869249	18.53967789616308	56.28009658649312	22.13015755246369	-29.72925449238111	3528.882051282051	3658.608058608058	0.5151883353584447	0.2980535279805353	0.3963011889035667
3194.366455078125	-19.46153846153846	-17.43938227505081	18.35372913715588	55.84691551646016	21.22041706714363	-28.91769355592173	3514.317948717948	3658.608058608058	0.5176184690157958	0.2919708029197081	0.3923381770145311
3213.897705078125	-21.07692307692308	-17.71146147687381	18.18845845907495	55.88387991592871	21.24379521382738	-27.69333962253121	3509.948717948718	3660.07326007326	0.511543134872418	0.2858880778588808	0.4068692206076618
3233.428955078125	-20.42307692307692	-16.045382459814	18.84604606762333	56.38084793422843	23.59300099181816	-26.85849071432206	3493.928205128205	3657.142857142857	0.5164034021871202	0.2737226277372263	0.4200792602377807
3252.960205078125	-19.88461538461539	-16.2523634292049	19.04124838332204	54.98974630213547	22.67137100304101	-28.07828579380727	3517.230769230769	3657.142857142857	0.5066828675577156	0.2737226277372263	0.4214002642007926
3272.491455078125	-20.34615384615385	-15.58653846153846	18.90384615384615	54.11058823311549	23.17566926976	-27.65628796514375	3540.533333333333	3663.003663003663	0.5066828675577156	0.2518248175182482	0.4240422721268164
3292.022705078125	-19.73076923076923	-14.25689012748661	19.113737143561	53.72138487247315	24.15924012279673	-26.00990716178248	3517.230769230769	3665.934065934066	0.5103280680437423	0.2469586374695864	0.429326287978864
3311.553955078125	-20.38461538461539	-14.10536121204656	19.88344521771263	53.74820742127136	25.57532726878369	-25.58785125050446	3517.230769230769	3667.399267399267	0.5078979343863912	0.2372262773722628	0.4491413474240423
3331.085205078125	-19.73076923076923	-12.89734094968283	18.44397056106423	52.39890388274986	25.14650690349887	-25.5786464187721	3534.707692307692	3667.399267399267	0.5103280680437423	0.2335766423357664	0.4491413474240423
3350.616455078125	-19.5	-13.06897056106423	19.10237420705796	52.3993783452144	22.81493495057851	-24.7856403523137	3515.774358974359	3667.399267399267	0.5042527339003645	0.2250608272506083	0.4451783355350066
3370.147705078125	-19.69230769230769	-12.16135985711646	20.06799285582312	51.96572281271689	24.23676641817881	-24.76708548231272	3523.05641025641	3665.934065934066	0.4872417982989064	0.2128953771289538	0.4438573315719947
3389.678955078125	-18.88461538461539	-11.71314744102975	19.92660282071811	51.97804427920641	24.24455913374006	-24.35896750451589	3527.425641025641	3667.399267399267	0.5006075334143377	0.2043795620437956	0.4504623513870542
3409.210205078125	-19.5	-10.70939058939459	20.35414485434502	51.4982314214991	22.37257754811911	-24.78105245710114	3537.620512820513	3667.399267399267	0.5042527339003645	0.183698296836983	0.4636723910171731
3428.741455078125	-19	-10.53299562727105	20.64978136355238	51.03074003028131	20.5083886780594	-24.79501943188956	3533.251282051282	3667.399267399267	0.4933171324422843	0.1849148418491484	0.4715984147952444
3448.272705078125	-18.80769230769231	-9.422068423969945	20.68034427542034	51.06770442974986	20.53176682474316	-23.57066549849905	3527.425641025641	3667.399267399267	0.5006075334143377	0.1751824817518248	0.4623513870541612
3467.803955078125	-19.19230769230769	-9.74240161359857	21.69700375685164	51.05803704154406	19.59290387112601	-23.57995745415316	3517.230769230769	3664.468864468864	0.5018226002430133	0.1618004866180049	0.4848084544253633
3487.335205078125	-17.96153846153846	-7.948412576214818	21.15139804151013	51.46534448770792	14.4234133046184	-23.22756216897375	3498.297435897436	3668.864468864469	0.496962332928311	0.159367396593674	0.4848084544253633
3506.866455078125	-19	-7.809278191784197	21.00237112767137	49.20475217480076	14.94494453617737	-24.01606746414133	3518.687179487179	3667.399267399267	0.4921020656136087	0.1423357664233577	0.4848084544253633
3526.397705078125	-18.96153846153846	-8.000962308308186	20.93273080002463	48.37175143099058	18.74305585611761	-23.15342981289158	3528.882051282051	3676.190476190476	0.4921020656136087	0.1411192214111922	0.4953764861294584
3545.928955078125	-19.07692307692308	-6.846215433885569	21.00307938658619	47.04443674716438	19.26089116001118	-22.72681504770826	3531.794871794872	3668.864468864469	0.488456865127582	0.1289537712895377	0.4940554821664465
3565.460205078125	-18.73076923076923	-6.167911252078586	21.35710106546776	47.54405884374783	20.67902669994607	-21.49314011735638	3521.6	3670.32967032967	0.496962332928311	0.1082725060827251	0.5006605019815059
3584.991455078125	-17.69230769230769	-6.849017675679005	21.68165301471947	45.30592984800054	19.81564164776309	-21.07122941261462	3530.338461538461	3673.260073260073	0.4714459295261239	0.1228710462287105	0.5165125495376486
3604.522705078125	-18.07692307692308	-5.916810371374022	21.60974933793188	44.39246145779572	19.36549152974243	-21.4747594951989	3540.533333333333	3674.725274725275	0.4811664641555285	0.1046228710462287	0.5191545574636725
3624.053955078125	-17.84615384615385	-5.0583851696742	22.68848925294082	43.974255932536	17.53247352192773	-19.85625455879996	3511.405128205128	3674.725274725275	0.4787363304981774	0.1046228710462287	0.5085865257595773
3643.585205078125	-18.11538461538462	-4.340172137710169	21.66245303935456	40.87317510343204	22.31375483467427	-20.18559420268758	3549.271794871795	3673.260073260073	0.4726609963547995	0.08637469586374696	0.5138705416116248
3663.116455078125	-17.42307692307692	-4.62949590441584	21.97479522079202	39.62196883436212	24.27884814679981	-17.70445161503889	3531.794871794872	3682.051282051282	0.4799513973268529	0.08150851581508516	0.5217965653896962
3682.647705078125	-17.80769230769231	-3.943639527006221	22.68197635031102	40.13391239743509	25.70477640229595	-16.06265870689017	3546.358974358974	3687.912087912088	0.4714459295261239	0.07664233576642336	0.5138705416116248
3702.178955078125	-16.11538461538462	-4.099579663730984	23.01744472501078	39.71523240971082	26.2033303474016	-15.23715983694962	3547.815384615385	3686.446886446886	0.4714459295261239	0.07299270072992702	0.5270805812417437
3721.710205078125	-18	-3.004465110549978	23.99248629672969	40.1665175652653	22.92715111925078	-14.04994468486831	3541.989743589743	3687.912087912088	0.4702308626974483	0.06812652068126521	0.523117569352708
3741.241455078125	-17.03846153846154	-2.697103836915686	23.04749953809201	37.91341302474477	22.98704358956244	-14.43497798006611	3563.835897435898	3692.307692307692	0.4605103280680437	0.05352798053527981	0.5350066050198151
3760.772705078125	-17.26923076923077	-2.554728398103098	23.85180452053951	37.95739073413539	24.88035492791923	-13.6001581131642	3546.358974358974	3687.912087912088	0.4556500607533414	0.04379562043795621	0.5389696169088507
3780.303955078125	-15.69230769230769	-2.539785674693601	23.45082219621851	37.54136482469484	24.44783863496899	-12.37583322108093	3533.251282051282	3692.307692307692	0.4434993924665856	0.04379562043795621	0.5416116248348745
3799.835205078125	-14.96153846153846	-2.190129026297961	24.46798977643654	37.05141011631719	23.96856604865125	-13.6002161957787	3563.835897435898	3689.377289377289	0.4532199270959902	0.0340632603406326	0.5429326287978864
3819.366455078125	-15.5	-0.9338470776621297	23.73081542156802	37.00307317528822	19.27425128056553	-13.64667597404927	3556.553846153846	3695.238095238095	0.4520048602673147	0.03284671532846716	0.5455746367239102
3838.897705078125	-15.11538461538462	-0.8506266551702901	23.03133275851451	37.89502717326227	16.44617377648744	-12.86754975845754	3549.271794871795	3695.238095238095	0.4495747266099635	0.02676399026763991	0.5389696169088507
3858.428955078125	-14.65384615384616	-0.4017136786352159	23.20106854714541	37.89332201990764	12.71410010870262	-11.68036364768348	3464.8	3591.208791208791	0.4520048602673147	0.02068126520681265	0.5508586525759578
3877.960205078125	-14.19230769230769	-0.4085499168565622	23.08134199667427	38.74878608087769	7.531072505020421	-11.33258529902388	3473.538461538461	3594.139194139194	0.4471445929526123	0.0145985401459854	0.5455746367239102
3897.491455078125	-15.11538461538462	0.4565729506682268	23.05596785120404	37.82394514911245	2.409985765597801	-10.55822122648821	3463.343589743589	3589.743589743589	0.4374240583232077	0.0121654501216545	0.5468956406869221
3917.022705078125	-15.42307692307692	0.07389757960214327	23.2666594814313	34.70883770016435	3.451400694998271	-10.1084927373986	3476.451282051281	3597.069597069597	0.4447144592952612	-0.004866180048661801	0.5482166446499339
3936.553955078125	-16	2.075383383629981	23.7692923569625	33.03316882433818	10.10876038126161	-8.392509390553213	3456.061538461538	3598.534798534799	0.4386391251518833	-0.00364963503649635	0.5442536327608983
3956.085205078125	-15.73076923076923	1.936864876516598	22.73367925109318	29.0867657849345	18.68036029838714	-8.267329360987921	3479.364102564102	3600	0.4325637910085055	-0.0024330900243309	0.5482166446499339
3975.616455078125	-15.96153846153846	2.111573874484203	23.84438319886678	26.94313105542599	25.80510306751112	-7.358319055389352	3479.364102564102	3601.465201465201	0.4289185905224787	-0.01094890510948905	0.5495376486129459
3995.147705078125	-14.92307692307692	1.778438135123483	24.07809324382583	26.57278800873069	30.9979717807025	-6.48636040717824	3469.169230769231	3605.860805860806	0.425273390036452	-0.0218978102189781	0.5614266842800528
4014.678955078125	-15.61538461538462	2.410343659543019	23.94435548438751	23.87636054750686	31.54083276499731	-6.862130788029176	3482.276923076923	3602.930402930403	0.425273390036452	-0.0218978102189781	0.5455746367239102
4034.210205078125	-15	2.512856438997352	23.97256266551703	23.46421940724011	36.24089185469635	-7.219172051035641	3476.451282051281	3604.395604395604	0.4131227217496962	-0.0218978102189781	0.5587846763540291
4053.741455078125	-14.19230769230769	1.793981338917288	24.49324074644331	24.32622231566769	35.25936939560754	-8.053933835323049	3473.538461538461	3598.534798534799	0.4094775212636695	-0.02676399026763991	0.5640686922060766
4073.272705078125	-14.5	1.878602882305845	24.41600973086161	25.57524896891842	31.89377436861755	-10.14089637865607	3470.625641025641	3597.069597069597	0.402187120291616	-0.04379562043795621	0.5587846763540291
4092.803955078125	-12.73076923076923	2.676518137586993	25.05870850526575	26.91535958169868	29.05215982736487	-9.366387099584152	3448.779487179487	3595.604395604395	0.4143377885783718	-0.02554744525547445	0.5614266842800528
4112.335205078125	-13.07692307692308	3.215341503972409	23.4636940321488	25.49790986327206	24.3828707396804	-10.21523202388898	3470.625641025641	3591.208791208791	0.3997569866342648	-0.04257907542579076	0.5627476882430648
4131.866455078125	-11.96153846153846	3.004626778345753	25.19173800578925	26.8256990095628	21.53346348286647	-9.8488407226139	3460.430769230769	3597.069597069597	0.3961117861482381	-0.0462287104622871	0.5693527080581242
4151.397705078125	-12.53846153846154	4.618109872513395	23.94066022048408	26.32920545372763	16.85268575195534	-9.890683564364659	3464.8	3594.139194139194	0.393681652490887	-0.04501216545012166	0.5667107001321005
4170.928955078125	-11.92307692307692	4.079340395393238	23.34067253803043	24.12007862259772	18.80588956062379	-9.440896992660553	3477.907692307692	3597.069597069597	0.3863912515188335	-0.0583941605839416	0.571994715984148
4190.460205078125	-11.92307692307692	5.572073043049825	23.70404015520108	23.2479338634998	21.18012101901581	-9.408433230485654	3476.451282051281	3597.069597069597	0.3839611178614824	-0.06447688564476886	0.5667107001321005
4209.991455078125	-12.26923076923077	4.500377224856809	23.78883106485188	21.8986303249783	20.75130065373098	-9.399228398753287	3474.994871794872	3595.604395604395	0.3827460510328068	-0.06326034063260341	0.5733157199471598
4229.522705078125	-12.80769230769231	4.701199421075321	23.90156740777237	21.02430595006121	21.72503039725855	-8.972584592262718	3463.343589743589	3598.534798534799	0.3851761846901579	-0.0705596107055961	0.570673712021136
4249.053955078125	-11.42307692307692	5.291948943770401	23.7487066576338	20.5858167234608	22.67743038805027	-8.958675700088797	3458.974358974359	3598.534798534799	0.3778857837181044	-0.07420924574209246	0.570673712021136
4268.585205078125	-11	6.00722116154462	24.10048038430745	18.34237957114606	23.67618581197907	-9.334417039632484	3466.25641025641	3595.604395604395	0.3766707168894289	-0.07785888077858881	0.5878467635402906
4288.116455078125	-10.69230769230769	5.380627578986267	24.35323643530209	18.76105955887033	23.17763186687342	-10.15991590957303	3457.517948717949	3592.673992673992	0.3730255164034022	-0.07177615571776155	0.5759577278731837
4307.647705078125	-9.730769230769232	5.452415778776868	23.64844183038738	18.71224815537681	20.81488905170805	-10.99938175430199	3458.974358974359	3588.278388278388	0.370595382746051	-0.08150851581508516	0.5865257595772787
4327.178955078125	-11.23076923076923	4.816992055182607	22.30424339471577	17.83839824292427	19.45704684231526	-9.779731881353028	3451.692307692307	3595.604395604395	0.3535844471445929	-0.07664233576642336	0.5825627476882431
4346.710205078125	-9.576923076923077	5.739599371805137	22.59695448666626	16.53259795132884	23.25310976830758	-9.728713249177149	3473.538461538461	3598.534798534799	0.3462940461725395	-0.09002433090024331	0.571994715984148
4366.241455078125	-8.884615384615385	7.031540617109073	22.69219991377718	14.31427819445769	21.93587867043853	-8.49521256666876	3467.71282051282	3597.069597069597	0.3560145808019441	-0.08394160583941607	0.583883751651255
4385.772705078125	-9.192307692307693	6.000654369649566	24.54420459444479	11.62581296808502	19.68552894056567	-7.67450488109152	3479.364102564102	3601.465201465201	0.3596597812879708	-0.08637469586374696	0.5957727873183619
4405.303955078125	-9.038461538461538	7.308654616000492	24.37496150766767	11.64827628524488	18.30061265682371	-6.46408888118217	3457.517948717949	3602.930402930403	0.3523693803159174	-0.09245742092457421	0.5918097754293263
4424.835205078125	-8.384615384615385	6.174031532918643	24.68303873868325	10.26248280971937	15.51684219193477	-6.886231916381926	3473.538461538461	3604.395604395604	0.3511543134872417	-0.09245742092457421	0.5772787318361955
4444.366455078125	-7.653846153846154	7.5599017675679	25.81260392929729	11.64439151607108	13.16803727417442	-4.882722726092435	3466.25641025641	3611.721611721612	0.3414337788578372	-0.09245742092457421	0.583883751651255
4463.897705078125	-8.538461538461538	6.448835991870419	26.48127732955595	12.52667812583934	9.401096816479187	-4.112888466154825	3470.625641025641	3608.791208791209	0.3414337788578372	-0.09975669099756691	0.6089828269484808
4483.428955078125	-8.26923076923077	7.345761224364107	25.59655416641005	12.08600928341976	8.95299509240645	-3.704799529665235	3488.102564102564	3613.186813186813	0.3402187120291616	-0.09489051094890512	0.583883751651255
4502.960205078125	-8.346153846153847	6.263341442384677	25.94831249615077	13.38697588091229	4.687500689605558	-3.760464139668169	3479.364102564102	3608.791208791209	0.3535844471445929	-0.09610705596107057	0.5997357992073976
4522.491455078125	-8.653846153846155	6.721338609349018	24.50999260947219	14.19798777002717	-0.05726629951307502	-5.040511724368871	3485.189743589744	3611.721611721612	0.3353584447144593	-0.1119221411192214	0.6010568031704096
4542.022705078125	-8.538461538461538	7.271032210383692	23.83300486543081	12.84697907815104	-4.218160332582719	-3.844120781862439	3483.733333333333	3611.721611721612	0.3341433778857837	-0.1009732360097324	0.5891677675033025
4561.553955078125	-8.346153846153847	7.923900658988728	23.68958243517891	12.87645570523297	-3.733143424651645	-3.023238848441703	3466.25641025641	3613.186813186813	0.3329283110571081	-0.1082725060827251	0.5931307793923382
4581.085205078125	-7.846153846153847	8.140327646732771	23.90669458643838	10.66202071753562	0.08220086012858788	-3.371104321023049	3492.471794871794	3617.582417582417	0.3402187120291616	-0.1046228710462287	0.5865257595772787
4600.616455078125	-8.5	8.456603744534089	24.13135123483402	9.344847884379767	-0.7926728352810548	-2.14219153372722	3470.625641025641	3611.721611721612	0.3280680437424058	-0.1082725060827251	0.5957727873183619
4620.147705078125	-8.961538461538462	8.371828231816222	23.06243456303504	7.165197680331795	1.645547881318468	-0.8715230286023781	3479.364102564102	3617.582417582417	0.339003645200486	-0.1009732360097324	0.583883751651255
4639.678955078125	-8.346153846153847	8.291117509392128	24.55950914577816	6.278551838925186	2.611484909284776	-0.8529971999086489	3483.733333333333	3619.047619047619	0.339003645200486	-0.1082725060827251	0.5865257595772787
4659.210205078125	-9.192307692307693	8.695887479214141	24.39793373160067	4.461756909185888	0.3184756739402467	-0.8577593429647012	3491.015384615384	3617.582417582417	0.3426488456865127	-0.1155717761557178	0.5997357992073976
4678.741455078125	-8.5	8.461222824413376	23.90039724086962	4.46877021910796	2.188408865613282	-1.247293409453314	3488.102564102564	3616.117216117216	0.330498177399757	-0.1094890510948905	0.5878467635402906
4698.272705078125	-8.153846153846155	6.816129826938473	25.03966249923015	4.425266972181883	-2.036474425663862	-1.289107209896825	3486.646153846154	3620.51282051282	0.3280680437424058	-0.121654501216545	0.5931307793923382
4717.803955078125	-9.192307692307693	8.112343721130753	24.72896778961631	4.018433988482583	0.8014441879234004	-0.8484964286178366	3472.082051282051	3621.978021978022	0.3426488456865127	-0.1058394160583942	0.5891677675033025
4737.335205078125	-8.884615384615385	7.722862905709183	24.66454702223317	4.00393290617389	-0.6068502425023142	-0.8624343620990068	3492.471794871794	3619.047619047619	0.3365735115431349	-0.1082725060827251	0.6050198150594451
4756.866455078125	-7.730769230769231	7.270424031532919	24.97879842335407	2.209601293594454	-4.284775761588803	0.3432194947542898	3488.102564102564	3623.443223443223	0.3329283110571081	-0.1143552311435523	0.5931307793923382
4776.397705078125	-9.538461538461538	8.7350803719899	24.70751986204348	2.248745308882182	-2.860895900040587	1.17339338382914	3467.71282051282	3616.117216117216	0.3232077764277035	-0.1155717761557178	0.5825627476882431
4795.928955078125	-9.576923076923077	7.761216665640204	25.3622436410667	1.356791310908125	-0.03281839596249544	0.3942671682374162	3501.210256410256	3623.443223443223	0.3341433778857837	-0.1058394160583942	0.5825627476882431
4815.460205078125	-8.115384615384615	7.196441768799655	25.21637309847878	2.201639058743285	-1.491565047421129	-0.853258571673889	3485.189743589744	3621.978021978022	0.3414337788578372	-0.1082725060827251	0.5799207397622193
4834.991455078125	-8.192307692307693	7.588278314959661	24.93223809817084	2.196805364640388	-1.9609965242297	-0.8579045495009456	3493.928205128205	3619.047619047619	0.3450789793438639	-0.110705596107056	0.5957727873183619
4854.522705078125	-8.923076923076923	8.213247521093798	25.18377779146394	2.143160267043968	-4.793170816203631	-1.702016372056966	3496.841025641026	3619.047619047619	0.3365735115431349	-0.1082725060827251	0.5944517833553501
4874.053955078125	-8.807692307692308	7.692854283426742	24.16497813635524	1.697657730521488	-5.710704017084942	-1.298573413394431	3467.71282051282	3617.582417582417	0.3341433778857837	-0.1070559610705596	0.5852047556142669
4893.585205078125	-9.423076923076923	8.387132783149596	24.68182238098171	-0.5532671941798678	-4.250309831908818	-2.077786752907902	3486.646153846154	3616.117216117216	0.3462940461725395	-0.1143552311435523	0.5931307793923382
4913.116455078125	-8.961538461538462	7.969198435671614	23.96315513949621	-0.9183020843077177	-0.91958159482923	-0.4081760604113375	3480.820512820513	3620.51282051282	0.3414337788578372	-0.1094890510948905	0.5970937912813739
4932.647705078125	-8.653846153846155	7.934616924308677	23.46146147687381	-1.361625005011023	-0.4366130808460761	-0.3989131460644729	3477.907692307692	3619.047619047619	0.3353584447144593	-0.1131386861313869	0.5799207397622193
4952.178955078125	-8	7.28191784196588	24.67333867093675	-1.860772639129922	-4.186320573701318	-0.8395820099579587	3496.841025641026	3617.582417582417	0.3341433778857837	-0.110705596107056	0.5891677675033025
4971.710205078125	-8.5	7.488906509823243	24.43928989345323	-1.478108125945109	-9.371396571331438	-1.30342268037223	3480.820512820513	3619.047619047619	0.3329283110571081	-0.1180048661800487	0.5825627476882431
4991.241455078125	-9.076923076923077	8.474194740407711	23.828724518076	-2.793101343281784	-8.845768551876617	-0.4686899373920707	3492.471794871794	3619.047619047619	0.3535844471445929	-0.1082725060827251	0.5878467635402906
5010.772705078125	-7.615384615384616	7.171136909527622	24.05853913900351	-3.632640934549498	-9.249162376529768	1.576487846804687	3472.082051282051	3611.721611721612	0.3462940461725395	-0.1119221411192214	0.5865257595772787
5030.303955078125	-8.884615384615385	7.882221161544622	24.38894192276898	-6.296937690407678	-9.152354722359771	2.420425421517213	3479.364102564102	3620.51282051282	0.3377885783718104	-0.1094890510948905	0.5852047556142669
5049.835205078125	-8.846153846153847	8.132429020139188	23.37854899304059	-8.50388490571841	-5.798649198826861	2.47603194890565	3498.297435897436	3624.908424908425	0.3499392466585662	-0.1167883211678832	0.5891677675033025
5069.366455078125	-9.423076923076923	7.366316129826938	23.79957812403769	-8.878587184052055	-3.406783915364415	4.1363506857481	3485.189743589744	3627.838827838828	0.3462940461725395	-0.1070559610705596	0.5799207397622193
5088.897705078125	-8.923076923076923	6.587331403584406	23.78727597462586	-10.26172658129384	-7.121624618309241	4.11303367269107	3492.471794871794	3632.234432234432	0.347509113001215	-0.09975669099756691	0.5785997357992074
5108.428955078125	-9.038461538461538	7.053065529346553	23.69287737882614	-11.5960545750421	-8.473722506088706	4.929182504363003	3499.753846153846	3629.304029304029	0.3560145808019441	-0.09002433090024331	0.5904887714663144
5127.960205078125	-9.115384615384617	6.267806552934656	22.64813389172877	-14.30698311857463	-9.339155952219608	4.539474190030896	3495.384615384615	3630.769230769231	0.3487241798298906	-0.1009732360097324	0.5891677675033025
5147.491455078125	-9.230769230769232	6.986820225411098	23.35129642175279	-15.178653415208	-9.296496446747939	5.364944018664192	3505.579487179487	3632.234432234432	0.3511543134872417	-0.1070559610705596	0.5746367239101717
5167.022705078125	-9.961538461538462	6.634854037075814	22.44960583851697	-17.86275940994232	-8.745842746891876	5.397291615610095	3505.579487179487	3632.234432234432	0.3572296476306197	-0.09002433090024331	0.5812417437252312
5186.553955078125	-8.538461538461538	7.053935456057153	23.14938104329617	-19.59643261500327	-7.721660782331398	7.057523228530799	3485.189743589744	3633.699633699634	0.3584447144592952	-0.08637469586374696	0.5785997357992074
5206.085205078125	-9.884615384615385	7.791948943770401	22.21024511917226	-21.82972791664766	-8.115614357705807	7.484079911099622	3474.994871794872	3630.769230769231	0.3669501822600243	-0.07785888077858881	0.5931307793923382
5225.616455078125	-10.07692307692308	5.899627394223071	22.78786105807723	-25.79499126999837	-3.753312300734921	8.383682095815082	3498.297435897436	3639.560439560439	0.3572296476306197	-0.08515815085158152	0.5904887714663144
5245.147705078125	-9.115384615384617	5.725064667118311	22.86215125946911	-27.54098594154883	-2.736923051735695	9.635795730938947	3495.384615384615	3638.095238095238	0.3657351154313487	-0.07542579075425791	0.5852047556142669
5264.678955078125	-9.076923076923077	4.681160312865677	23.0958305105623	-29.84508150138206	-6.440275111453859	8.805476635327851	3517.230769230769	3643.956043956044	0.370595382746051	-0.06812652068126521	0.5957727873183619
5284.210205078125	-10.19230769230769	4.907271971423292	22.52101681345076	-31.61306502762783	-6.370541531633028	9.640180337000762	3498.297435897436	3636.630036630037	0.3608748481166464	-0.07420924574209246	0.5904887714663144
5303.741455078125	-11	4.094922091519369	23.56158773172384	-32.91839085675871	-4.906050558561064	10.48420503563504	3489.558974358974	3642.490842490842	0.3633049817739976	-0.0583941605839416	0.5944517833553501
5323.272705078125	-10.53846153846154	3.640804951653631	22.72898318654924	-35.59548354157096	-2.485463667031964	10.12701856609233	3512.861538461538	3645.421245421245	0.3718104495747266	-0.04987834549878346	0.583883751651255
5342.803955078125	-10.57692307692308	3.730099464186734	22.14887294450945	-37.42194585951605	-5.717335855993635	10.11296446738216	3495.384615384615	3643.956043956044	0.3523693803159174	-0.04866180048661801	0.5904887714663144
5362.335205078125	-10.03846153846154	3.167449344090657	22.81984048777484	-39.68471778824238	-6.596306339299119	9.718639216530248	3511.405128205128	3638.095238095238	0.3718104495747266	-0.03163017031630171	0.5997357992073976
5381.866455078125	-10.30769230769231	2.520724271725072	24.65609410605407	-41.48170347910553	-9.343161620329717	10.52546705124082	3491.015384615384	3641.025641025641	0.370595382746051	-0.024330900243309	0.5944517833553501
5401.397705078125	-10.15384615384616	2.459167333867094	23.73394099895301	-42.38285040282084	-9.785519022789124	10.53005494645338	3501.210256410256	3642.490842490842	0.3633049817739976	-0.008515815085158151	0.5918097754293263
5420.928955078125	-10.03846153846154	2.004211061156618	25.21252386524604	-42.34370638753311	-8.361639161240905	11.36022883552823	3508.492307692307	3643.956043956044	0.3657351154313487	-0.01338199513381995	0.5918097754293263
5440.460205078125	-10.57692307692308	1.670759684670813	25.11586192030547	-41.90208862018443	-12.57668134300888	12.53815203195543	3512.861538461538	3649.81684981685	0.370595382746051	0.00364963503649635	0.5944517833553501
5459.991455078125	-10.11538461538462	0.2997551887663977	25.8968559462955	-41.9139356242094	-14.91604601149049	12.92304012061698	3520.14358974359	3648.351648351648	0.3742405832320777	0.006082725060827251	0.5918097754293263
5479.522705078125	-11.23076923076923	-0.1069470961384492	26.19350865307631	-42.34446261595864	-16.75685673486644	14.13342707921908	3520.14358974359	3654.212454212454	0.3839611178614824	-0.00121654501216545	0.5878467635402906
5499.053955078125	-10.96153846153846	-1.188527745273142	26.15715649442631	-42.78077222673987	-14.40395502921025	13.75315592707734	3509.948717948718	3652.747252747252	0.3778857837181044	0.01824817518248175	0.5812417437252312
5518.585205078125	-11.80769230769231	-0.8899966126747552	25.5382921721993	-42.81726216374388	-16.75890512881436	13.32180806014521	3517.230769230769	3652.747252747252	0.3851761846901579	0.02554744525547445	0.5865257595772787
5538.116455078125	-12.23076923076923	-0.7568978259530701	25.07566052842274	-43.69206100112552	-13.45360343236644	12.95544580017739	3518.687179487179	3646.886446886447	0.3803159173754556	0.03163017031630171	0.5878467635402906
5557.647705078125	-11.5	-2.224079263410729	24.62704009361335	-43.1805919005171	-9.696103223949949	13.80423264186771	3509.948717948718	3657.142857142857	0.3863912515188335	0.04379562043795621	0.5852047556142669
5577.178955078125	-11.61538461538462	-2.723732832419782	24.72510315945064	-42.77423337928235	-10.20244988461686	12.57061579413033	3520.14358974359	3648.351648351648	0.393681652490887	0.05717761557177616	0.570673712021136
5596.710205078125	-12.19230769230769	-3.253502802241794	24.86744780439736	-42.80010700315146	-16.28168093644453	13.73457201576911	3512.861538461538	3649.81684981685	0.3900364520048603	0.06812652068126521	0.5746367239101717
5616.241455078125	-12.19230769230769	-3.338955780008622	23.37086592350804	-45.02638899487378	-14.80570132014591	13.77159463184932	3524.51282051282	3652.747252747252	0.3973268529769137	0.06812652068126521	0.571994715984148
5635.772705078125	-13.07692307692308	-4.261409127301842	24.22430251893823	-47.2258484377979	-11.91363455786032	14.23067315920754	3525.969230769231	3655.677655677655	0.3888213851761846	0.07542579075425791	0.5693527080581242
5655.303955078125	-12.34615384615385	-4.347485680852374	25.87428404261871	-46.73854780770397	-10.50329173348668	15.05623011176258	3504.123076923077	3652.747252747252	0.393681652490887	0.08637469586374696	0.5746367239101717
5674.835205078125	-13.57692307692308	-4.394692677218698	23.69617232247336	-48.57031828221651	-11.87302344633657	14.24452396876696	3528.882051282051	3649.81684981685	0.3997569866342648	0.09245742092457421	0.571994715984148
5694.366455078125	-11.34615384615385	-5.060933362074275	24.0082065652522	-46.31238004759307	-11.46348443983966	14.63420324179182	3498.297435897436	3646.886446886447	0.4058323207776428	0.09124087591240876	0.5640686922060766
5713.897705078125	-12.26923076923077	-5.653900043111412	23.81038677095523	-45.4542619083393	-17.57758228157775	15.38080761259415	3514.317948717948	3655.677655677655	0.3985419198055893	0.1046228710462287	0.5680317040951123
5733.428955078125	-11.88461538461539	-6.553773788261379	24.18868941306891	-46.83958092140027	-22.69292469938704	15.75167064385278	3527.425641025641	3655.677655677655	0.4034021871202916	0.1046228710462287	0.570673712021136
5752.960205078125	-12.61538461538462	-6.872636570795098	21.63182853975488	-47.25077313673791	-22.6560095155287	16.98064151376311	3518.687179487179	3660.07326007326	0.4034021871202916	0.121654501216545	0.5667107001321005
5772.491455078125	-13.53846153846154	-7.304705302703701	23.00449590441584	-50.80001058064808	-17.86119116560758	16.6559188063953	3527.425641025641	3660.07326007326	0.4070473876063183	0.1411192214111922	0.5667107001321005
5792.022705078125	-13.26923076923077	-8.590295313173616	23.55322719714233	-51.7038115826471	-17.3724783300111	16.26168067946513	3518.687179487179	3655.677655677655	0.4082624544349939	0.1386861313868613	0.560105680317041
5811.553955078125	-13.26923076923077	-9.049123914516228	23.41773418734988	-52.55614710286888	-15.45209291730514	17.10573441940666	3511.405128205128	3660.07326007326	0.4155528554070473	0.1557177615571776	0.5561426684280053
5831.085205078125	-12.96153846153846	-9.778107101065467	23.020739668658	-52.04638315561508	-15.42666637667347	19.14170737187105	3499.753846153846	3661.538461538461	0.4106925880923451	0.1605839416058394	0.5587846763540291
5850.616455078125	-13.19230769230769	-9.632652275666686	23.6710753217959	-52.93520861284087	-15.86123106357162	19.55441324488045	3509.948717948718	3660.07326007326	0.4289185905224787	0.1788321167883212	0.5442536327608983
5870.147705078125	-13.38461538461539	-10.48953008560695	24.39958120342428	-52.10922117895275	-21.5292755751849	19.08130966011931	3527.425641025641	3664.468864468864	0.4313487241798298	0.1812652068126521	0.5363276089828269
5889.678955078125	-14.15384615384616	-11.61904908542218	23.95245427110919	-50.82540974205264	-26.27199417035562	18.61288109449248	3514.317948717948	3663.003663003663	0.4191980558930741	0.1982968369829684	0.5284015852047557
5909.210205078125	-13.92307692307692	-12.07475210937981	23.42991316129827	-49.00378111821044	-23.50955345820252	18.62228921537559	3525.969230769231	3661.538461538461	0.4191980558930741	0.2043795620437956	0.52443857331572
5928.741455078125	-13.88461538461539	-11.91692584837101	23.19244626470407	-47.6443357290186	-24.4734420922209	19.41538240575573	3525.969230769231	3665.934065934066	0.4216281895504253	0.2068126520681265	0.5310435931307794
5948.272705078125	-14.88461538461539	-12.90252971608056	23.47263965018168	-48.52349379803859	-23.96914382550191	19.83738023441924	3534.707692307692	3667.399267399267	0.4277035236938031	0.2262773722627737	0.5297225891677675
5967.803955078125	-15.53846153846154	-13.17595614953501	22.41319209213525	-48.96416264045817	-24.41724554957465	20.24546917090883	3515.774358974359	3665.934065934066	0.4277035236938031	0.2201946472019465	0.5099075297225891
5987.335205078125	-14.15384615384616	-14.19649565806491	22.05555213401491	-48.504159021627	-22.09141791826763	19.85596414572747	3524.51282051282	3668.864468864469	0.433778857837181	0.2372262773722628	0.5085865257595773
6006.866455078125	-15.11538461538462	-14.43611042680298	21.53629057091828	-48.55562450340424	-23.5230904953771	18.61767227885578	3517.230769230769	3661.538461538461	0.4349939246658566	0.2579075425790754	0.5085865257595773
6026.397705078125	-13.53846153846154	-16.21491038985034	20.43782718482478	-48.18044776260605	-28.24652773175989	17.75035960847173	3515.774358974359	3658.608058608058	0.4374240583232077	0.2603406326034063	0.5006605019815059
6045.928955078125	-13.19230769230769	-16.11707057954056	19.04583666933547	-49.15845932950316	-38.5313607160768	18.47361792490977	3531.794871794872	3664.468864468864	0.44228432563791	0.2688564476885645	0.4914134742404227
6065.460205078125	-13.80769230769231	-16.45130719960584	19.06535998029192	-51.02965558526441	-52.05176181702079	20.39794220298856	3524.51282051282	3665.934065934066	0.4410692588092345	0.2712895377128954	0.4808454425363276
6084.991455078125	-14.38461538461539	-17.28131736158157	18.83509884830941	-52.83753935522344	-61.80112567237371	23.17567025927747	3546.358974358974	3676.190476190476	0.4507897934386391	0.2834549878345499	0.4821664464993395
6104.522705078125	-16.96153846153846	-16.07625331034058	18.85112705549054	-56.8581529595252	-64.00307157516158	24.41834673221098	3540.533333333333	3677.655677655677	0.4459295261239368	0.2919708029197081	0.4597093791281374
6124.053955078125	-19.26923076923077	-17.54481277329556	19.58679251093182	-58.48330527850322	-51.25089540594805	25.78660981301126	3523.05641025641	3679.120879120879	0.4520048602673147	0.2980535279805353	0.4649933949801849
6143.585205078125	-18.42307692307692	-17.42069809693909	18.30413561618526	-57.39895244134237	-30.63856993184258	25.16556300876847	3540.533333333333	3680.58608058608	0.4507897934386391	0.3090024330900243	0.4306472919418758
6163.116455078125	-16.96153846153846	-18.87926495042187	18.61709367493995	-57.29915001853615	-24.51258258664739	26.45031465391072	3531.794871794872	3682.051282051282	0.4629404617253949	0.3102189781021898	0.4398943196829591
6182.647705078125	-16.23076923076923	-19.79446634230461	19.41562480753834	-58.25659611813159	-26.85604404302484	25.21196470442454	3534.707692307692	3679.120879120879	0.4617253948967193	0.329683698296837	0.4240422721268164
6202.178955078125	-17.07692307692308	-20.52752971608056	18.45340888095091	-58.22929910686884	-27.77152884995823	26.42702668216094	3549.271794871795	3684.981684981685	0.4592952612393682	0.3394160583941606	0.4319682959048877
6221.710205078125	-16.76923076923077	-20.94626470407095	17.92861981893207	-60.02846441355117	-31.91888584585329	27.62803456118718	3541.989743589743	3679.120879120879	0.4605103280680437	0.3564476885644769	0.404227212681638
6241.241455078125	-18.26923076923077	-21.59785520724272	17.39276036213586	-60.91245617667406	-31.88401905594287	28.04538641202364	3546.358974358974	3686.446886446886	0.4678007290400972	0.3564476885644769	0.40554821664465
6260.772705078125	-18.34615384615385	-21.81727689844183	16.90230646055306	-60.8447844592335	-25.31197838062287	28.11043010160243	3539.076923076923	3683.516483516483	0.4580801944106925	0.3564476885644769	0.4002642007926024
6280.303955078125	-18.73076923076923	-22.27926187103529	17.30924739791833	-61.25161744293279	-22.47405976703561	28.55104088288142	3530.338461538461	3683.516483516483	0.4483596597812879	0.3673965936739659	0.3923381770145311
6299.835205078125	-16.84615384615385	-23.01254850033873	17.47357886309047	-60.32194281706465	-16.88354155080442	27.7813227881728	3537.620512820513	3677.655677655677	0.4556500607533414	0.391727493917275	0.381770145310436
6319.366455078125	-15.57692307692308	-23.17935117324629	16.85217404692985	-58.10798229183185	-18.36731388266429	27.33618219429575	3550.728205128205	3684.981684981685	0.4520048602673147	0.4014598540145986	0.3553500660501981
6338.897705078125	-15.80769230769231	-24.04778438135124	16.27383445217713	-54.18622218540722	-26.95449923091232	26.39476620913678	3539.076923076923	3684.981684981685	0.4605103280680437	0.3941605839416059	0.3527080581241744
6358.428955078125	-17.46153846153846	-22.64853421198497	17.1959413684794	-52.90459036432628	-33.09771954094749	26.32051768782562	3539.076923076923	3686.446886446886	0.4605103280680437	0.4111922141119221	0.3540290620871863
6377.960205078125	-18.03846153846154	-26.03905432037938	16.14502371127671	-51.48932026171884	-29.82893216812749	27.56354265644611	3528.882051282051	3677.655677655677	0.4605103280680437	0.4160583941605839	0.3289299867899604
6397.491455078125	-17.5	-25.78720668842767	16.47571903676788	-51.41899446599455	-24.18796173086338	28.02741236816764	3552.184615384615	3684.981684981685	0.4495747266099635	0.4233576642335767	0.3381770145310436
6417.022705078125	-17.03846153846154	-25.91721839009669	16.74553488945002	-50.99017262759994	-26.07922467527225	28.0042115203396	3550.728205128205	3684.981684981685	0.4495747266099635	0.4379562043795621	0.3130779392338177
6436.553955078125	-17.03846153846154	-27.16744934409066	15.79554412760978	-45.59997178343599	-26.23387640580599	28.35692625989874	3523.05641025641	3683.516483516483	0.4447144592952612	0.4391727493917275	0.3183619550858652
6456.085205078125	-16.80769230769231	-26.43373929913161	15.41773418734988	-43.03595191284857	-30.12509945225081	25.43523097358557	3546.358974358974	3683.516483516483	0.4520048602673147	0.4525547445255475	0.2985468956406869
6475.616455078125	-18.96153846153846	-26.94996766644085	14.53684486050379	-41.68617391186252	-32.02785103988634	26.2190322083116	3540.533333333333	3684.981684981685	0.4434993924665856	0.4489051094890511	0.2906208718626156
6495.147705078125	-18.92307692307692	-28.14168257683069	14.46874422615015	-39.3724109638235	-27.38563602655103	27.0586432595768	3527.425641025641	3682.051282051282	0.4471445929526123	0.4598540145985401	0.2879788639365918
6514.678955078125	-18.19230769230769	-27.54952423477243	12.97621173862167	-38.02576150358572	-26.02574542321032	26.65061240570171	3550.728205128205	3684.981684981685	0.4374240583232077	0.4695863746958638	0.2866578599735799
6534.210205078125	-17.42307692307692	-27.84345168442446	11.51873806737698	-37.20024853216214	-29.36221798190324	25.38450275448218	3533.251282051282	3680.58608058608	0.4349939246658566	0.4744525547445256	0.2694848084544254
6553.741455078125	-17.30769230769231	-28.76262548500339	11.20819732709244	-34.5424906237615	-33.66053078066662	25.72310531271666	3504.123076923077	3671.794871794872	0.4374240583232077	0.475669099756691	0.2549537648612946
6573.272705078125	-17.26923076923077	-28.60248968405494	8.93217651043912	-33.6998224917455	-36.51977914698972	24.86975961712103	3543.446153846154	3679.120879120879	0.4434993924665856	0.4768856447688565	0.2589167767503303
6592.803955078125	-15.69230769230769	-28.79232616862721	7.231693046745089	-31.57722769200321	-49.25432149113281	25.12935151098829	3521.6	3680.58608058608	0.4362089914945322	0.4854014598540146	0.2364597093791281
6612.335205078125	-16.96153846153846	-27.9719236928004	5.942338486173554	-35.84986054862375	-60.4767707555798	20.97822069384881	3547.815384615385	3676.190476190476	0.4410692588092345	0.4829683698296837	0.2351387054161163
6631.866455078125	-19.42307692307692	-27.38810278992425	6.135908726981585	-40.70006459002644	-51.41645800285779	20.70916259648393	3520.14358974359	3665.934065934066	0.4313487241798298	0.489051094890511	0.2324966974900925
6651.397705078125	-20.23076923076923	-28.13963478475088	7.981739237543882	-44.54060082163092	-30.18579364302333	20.14354807178608	3523.05641025641	3668.864468864469	0.4228432563791008	0.489051094890511	0.2100396301188904
6670.928955078125	-17	-28.85494549485742	7.824197819794297	-44.43786255457999	-14.26408700933815	18.2609214289218	3520.14358974359	3661.538461538461	0.4349939246658566	0.5012165450121655	0.2113606340819023
6690.460205078125	-15.30769230769231	-28.28722978382706	6.592258422122313	-46.24811863686175	-12.35559110008929	17.07361915291874	3528.882051282051	3657.142857142857	0.4240583232077764	0.5036496350364964	0.1955085865257596
6709.991455078125	-15.11538461538462	-29.97546498737451	8.119403214879597	-44.94013872944716	-14.75115231121715	16.6284204764272	3528.882051282051	3661.538461538461	0.4277035236938031	0.5072992700729927	0.1889035667107001
6729.522705078125	-15	-31.08402106300425	9.585668534827864	-41.32275510563188	-15.30550193873862	17.8111929398322	3520.14358974359	3657.142857142857	0.4277035236938031	0.5121654501216545	0.1955085865257596
6749.053955078125	-14.07692307692308	-30.89830325799101	8.992085976473486	-39.04093016645495	-23.27559507474474	21.79030641214159	3523.05641025641	3671.794871794872	0.4277035236938031	0.5231143552311436	0.1704095112285337
6768.585205078125	-14.73076923076923	-31.24640481616062	9.743317731107963	-36.83739325785346	-34.09344793384729	24.10907210630128	3530.338461538461	3673.260073260073	0.416767922235723	0.5218978102189781	0.1690885072655218
6788.116455078125	-15.23076923076923	-32.62530024019215	8.034242778838456	-34.16465980467957	-39.31503825510531	25.25461866447533	3546.358974358974	3679.120879120879	0.4143377885783718	0.5218978102189781	0.1611624834874505
6807.647705078125	-15.57692307692308	-32.60766305351974	7.498537291371559	-31.4435894104767	-39.84231380827762	26.44662500091994	3543.446153846154	3689.377289377289	0.4106925880923451	0.5255474452554745	0.1466314398943197
6827.178955078125	-16.84615384615385	-32.55402783765474	6.086007267352343	-29.66859257430886	-38.04211419642542	25.22238723275842	3541.989743589743	3680.58608058608	0.4155528554070473	0.5364963503649636	0.1519154557463673
6846.710205078125	-17.42307692307692	-31.56950945371682	5.513934224302519	-28.73673833262155	-31.05109426532977	24.05848909373414	3524.51282051282	3676.190476190476	0.4143377885783718	0.5255474452554745	0.1360634081902246
6866.241455078125	-16.80769230769231	-32.2560894869742	4.612166656402045	-28.28033771700319	-23.13105249012615	21.68414591349326	3539.076923076923	3671.794871794872	0.4094775212636695	0.5462287104622872	0.1294583883751651
6885.772705078125	-16.07692307692308	-32.16433146517213	5.062727104760732	-26.9856282010072	-20.87126251097454	19.24481712628808	3528.882051282051	3661.538461538461	0.4143377885783718	0.5425790754257908	0.1321003963011889
6905.303955078125	-15.42307692307692	-32.62841811911067	4.536290570918273	-24.84028831814406	-24.26393161231371	17.14862070991544	3507.035897435897	3658.608058608058	0.4046172539489671	0.5340632603406327	0.1215323645970938
6924.835205078125	-14.15384615384616	-32.52423477243333	3.827123237051179	-22.70461582348671	-28.59546366727001	15.0431323378887	3525.969230769231	3657.142857142857	0.4070473876063183	0.5450121654501217	0.1175693527080581
6944.366455078125	-14.03846153846154	-32.65893484017983	2.754434316684117	-18.79688233690622	-40.92251539886412	14.88078448570695	3520.14358974359	3657.142857142857	0.3997569866342648	0.537712895377129	0.1030383091149273
6963.897705078125	-14.96153846153846	-31.87233633060295	2.809124222454887	-16.69675085432379	-52.27214145926526	13.92996037966487	3515.774358974359	3649.81684981685	0.3948967193195626	0.5523114355231144	0.107001321003963
6983.428955078125	-14.46153846153846	-31.99310217404693	2.578185625423416	-14.97227057500409	-56.56675833036322	13.05344287754845	3523.05641025641	3652.747252747252	0.3948967193195626	0.5462287104622872	0.1017173051519155
7002.960205078125	-14.46153846153846	-32.07316622528792	2.73523434131921	-13.22532697852453	-62.24629148520317	13.38734137534138	3509.948717948718	3649.81684981685	0.3924665856622114	0.5389294403892945	0.1030383091149273
7022.491455078125	-15.42307692307692	-32.85937211307508	2.622451807599926	-12.72134565030273	-58.02715251553936	13.83265621706192	3531.794871794872	3651.282051282051	0.3888213851761846	0.5498783454987835	0.08190224570673713
7042.022705078125	-15.19230769230769	-33.08181160312865	1.975195541048223	-12.22219801618383	-54.27744502268411	14.2733250809554	3517.230769230769	3654.212454212454	0.3791008505467801	0.537712895377129	0.059445178335535
7061.553955078125	-16.07692307692308	-32.64625546591119	2.235850218636448	-12.64884023875927	-50.98568036341078	13.90234588446777	3505.579487179487	3652.747252747252	0.3888213851761846	0.5486618004866181	0.0607661822985469
7081.085205078125	-17	-32.79733017182978	3.020354745334729	-14.33777950600406	-39.67296948686798	13.62419912059952	3524.51282051282	3654.212454212454	0.3900364520048603	0.551094890510949	0.05548216644649934
7100.616455078125	-16.34615384615385	-33.43848155447435	1.731770031409743	-14.64746414518086	-29.77799329002964	14.95073552487804	3514.317948717948	3655.677655677655	0.3791008505467801	0.5486618004866181	0.05284015852047556
7120.147705078125	-15.80769230769231	-33.76401890743364	2.085560756297346	-15.4347820262458	-20.35449696394779	15.46100693225563	3518.687179487179	3655.677655677655	0.3863912515188335	0.5474452554744526	0.04491413474240423
7139.678955078125	-14.96153846153846	-33.861620065283	2.273310956457474	-13.09154245112485	-15.22726504268141	17.12149991694157	3499.753846153846	3658.608058608058	0.3766707168894289	0.5437956204379563	0.04623513870541612
7159.210205078125	-14.80769230769231	-33.5852143253064	3.683793188396871	-11.78185739035562	-13.89075258602445	15.48911512967596	3523.05641025641	3654.212454212454	0.3803159173754556	0.5535279805352799	0.02906208718626156
7178.741455078125	-15.11538461538462	-33.58912514627087	2.26394962123545	-10.9048789371548	-15.7955525676079	15.46129734532812	3520.14358974359	3658.608058608058	0.3730255164034022	0.5474452554744526	0.02906208718626156
7198.272705078125	-14.96153846153846	-33.71534920243887	2.652075506559093	-8.681251023716204	-16.34046194585064	15.02544870710518	3518.687179487179	3655.677655677655	0.370595382746051	0.5547445255474452	0.03038309114927345
7217.803955078125	-14.76923076923077	-33.61138141282257	3.030609102666749	-6.452789416174708	-16.4159398472848	14.59424604670931	3511.405128205128	3655.677655677655	0.3803159173754556	0.5559610705596108	0.02113606340819023
7237.335205078125	-14.26923076923077	-33.50658218882799	1.136801749091581	-4.246316663328526	-17.43807341789735	13.74563345286247	3525.969230769231	3655.677655677655	0.3669501822600243	0.5669099756690997	0.011889035667107
7256.866455078125	-14.96153846153846	-33.51595892098295	2.29794604914701	-2.492834219391443	-18.9161014281439	12.89699181770839	3518.687179487179	3655.677655677655	0.3560145808019441	0.5608272506082725	0.02642007926023778
7276.397705078125	-14.88461538461539	-32.42507082589149	1.52277206380489	-0.7371721596351858	-18.99362772352598	11.65417013823864	3517.230769230769	3652.747252747252	0.3633049817739976	0.5523114355231144	0.02245706737120212
7295.928955078125	-15.96153846153846	-31.37752509700068	2.145485619264643	-0.2969777796801519	-16.21395404653289	10.45307513529066	3512.861538461538	3645.421245421245	0.3669501822600243	0.5571776155717761	0.023778071334214
7315.460205078125	-15.73076923076923	-32.67851973886802	1.579833097247029	0.6305172303688122	-12.02393754516616	10.07753708489771	3504.123076923077	3642.490842490842	0.3584447144592952	0.5498783454987835	0.01321003963011889
7334.991455078125	-15.96153846153846	-32.74554258791648	1.31559093428589	2.094598736469778	-6.392407357180793	12.16002789824717	3483.733333333333	3642.490842490842	0.3450789793438639	0.559610705596107	0.02906208718626156
7354.522705078125	-15.26923076923077	-31.9770970622652	0.6625454209521464	2.544460504630607	-2.673870726570557	10.96822485095329	3518.687179487179	3643.956043956044	0.3547995139732685	0.5644768856447688	0.023778071334214
7374.053955078125	-14.84615384615385	-33.41662560817886	1.062049639711769	5.204398028850437	-5.57168181046948	10.91264736487211	3493.928205128205	3642.490842490842	0.3535844471445929	0.5571776155717761	0.02245706737120212
7393.585205078125	-14.46153846153846	-33.4550409558416	0.6751247151567408	8.221882670811498	-11.33858237020067	8.78398718632457	3479.364102564102	3639.560439560439	0.3572296476306197	0.559610705596107	0.01849405548216645
7413.116455078125	-15.57692307692308	-33.28974718236127	1.218128348832912	9.389967215203056	-16.62086688223122	4.637850842699126	3491.015384615384	3632.234432234432	0.3450789793438639	0.559610705596107	0.011889035667107
7432.647705078125	-15.73076923076923	-33.3821595738129	0.2233633060294389	10.59937539070152	-19.07876981784908	0.9277083438328611	3488.102564102564	3619.047619047619	0.3535844471445929	0.5523114355231144	0.009247027741083224
7452.178955078125	-14.84615384615385	-33.04786906448235	-0.06808523742070571	11.83077242089529	-20.59001708428855	-2.36502422158245	3486.646153846154	3616.117216117216	0.3535844471445929	0.5644768856447688	0.02509907529722589
7471.710205078125	-15.88461538461539	-32.38292942045945	0.4157017922029931	12.63334761269445	-20.21000140631916	-5.634555939169727	3477.907692307692	3604.395604395604	0.347509113001215	0.5681265206812652	0.01981505944517834
7491.241455078125	-15.88461538461539	-32.4206519061403	0.3787491531686891	13.53667415222893	-18.36714228899529	-6.033323878697956	3451.692307692307	3602.930402930403	0.3426488456865127	0.5669099756690997	0.009247027741083224
7510.772705078125	-16.26923076923077	-32.02733725441892	-1.594675740592474	12.63457830358453	-14.14635578561398	-7.614748116402188	3456.061538461538	3600	0.3365735115431349	0.5644768856447688	0.01453104359313078
7530.303955078125	-15.88461538461539	-32.55999414916548	-0.3464463878795343	11.74480392142965	-9.917776566671428	-8.78805437630958	3458.974358974359	3597.069597069597	0.3560145808019441	0.5656934306569343	0.01585204755614267
7549.835205078125	-15.57692307692308	-32.70543357763133	0.8486019584898689	10.85502953927477	-5.689197347728873	-9.961360636216973	3469.169230769231	3597.069597069597	0.3572296476306197	0.5644768856447688	0.01849405548216645
7569.366455078125	-15	-33.43359302826877	0.1411898749769045	9.916443753626364	-3.823360943951679	-11.97413274085333	3470.625641025641	3589.743589743589	0.3499392466585662	0.5632603406326034	0.02245706737120212
7588.897705078125	-14.96153846153846	-33.3181083328201	0.09772433331280395	9.005154979240716	-2.873009347107873	-12.77184286775328	3563.835897435898	3696.703296703297	0.3584447144592952	0.5620437956204379	0.02642007926023778
7608.428955078125	-14.96153846153846	-32.77998552688305	0.1146609595368602	8.512546192579341	-2.421211695369725	-14.39505186459378	3556.553846153846	3689.377289377289	0.3657351154313487	0.551094890510949	0.02509907529722589
7627.960205078125	-14.76923076923077	-32.9431545236189	0.3884954117139867	8.485249181316585	-1.505726888436336	-15.61011384233018	3531.794871794872	3683.516483516483	0.3608748481166464	0.559610705596107	0.023778071334214
7647.491455078125	-15.34615384615385	-32.97329401983125	0.5493163761778652	7.580973716853011	1.314557900080504	-16.79735803571874	3549.271794871795	3682.051282051282	0.3560145808019441	0.5669099756690997	0.023778071334214
7667.022705078125	-14.26923076923077	-33.01772956827001	-0.2289062018845844	7.142484490252603	2.26695789087223	-16.78344914354482	3539.076923076923	3676.190476190476	0.3718104495747266	0.5413625304136254	0.02245706737120212
7686.553955078125	-14.61538461538462	-32.55974009977212	0.2946972962985774	7.164473344947915	3.213613560050624	-16.36603921009387	3530.338461538461	3684.981684981685	0.3718104495747266	0.5450121654501217	0.03302509907529723
7706.085205078125	-14.53846153846154	-32.34955656833159	-0.6760177372667366	5.812515728142687	3.715863432821691	-16.75566040050423	3558.010256410256	3682.051282051282	0.3778857837181044	0.5608272506082725	0.01717305151915456
7725.616455078125	-14.15384615384616	-32.84911005727659	0.8401182484449098	5.410990901010831	4.691641570297169	-15.51739757493979	3547.815384615385	3692.307692307692	0.3645200486026731	0.5437956204379563	0.035667107001321
7745.147705078125	-14	-32.6273634292049	1.137402229475889	4.113152844266573	5.694493782121814	-14.26990087633573	3562.379487179487	3695.238095238095	0.3669501822600243	0.5571776155717761	0.03038309114927345
7764.678955078125	-14.11538461538462	-32.43569470961385	1.284735480692246	4.576285003846015	4.757679222452591	-13.46757381291597	3555.097435897435	3689.377289377289	0.3791008505467801	0.5583941605839417	0.04359313077939234
7784.210205078125	-13.88461538461539	-32.08382860134261	0.7683531440537046	5.088703029383529	3.852035525028373	-11.03277483830886	3445.866666666666	3588.278388278388	0.3730255164034022	0.559610705596107	0.02906208718626156
7803.741455078125	-13.65384615384616	-32.15306860873314	0.1534304366570178	3.744233184964922	3.89264663655212	-11.01892402874943	3488.102564102564	3594.139194139194	0.3791008505467801	0.551094890510949	0.023778071334214
7823.272705078125	-13.46153846153846	-32.08374391821149	0.3410420644207675	4.234662355807124	2.040347269949508	-9.001534987593269	3458.974358974359	3589.743589743589	0.3778857837181044	0.5498783454987835	0.02906208718626156
7842.803955078125	-13.69230769230769	-32.31089486974195	0.3908973332512162	3.380147219766168	2.560230967790998	-7.763301203336077	3460.430769230769	3600	0.3912515188335358	0.5462287104622872	0.02245706737120212
7862.335205078125	-14.42307692307692	-33.73063835683931	-0.9680821580341195	2.087142857124806	4.032514656424213	-6.511158526904964	3476.451282051281	3602.930402930403	0.3839611178614824	0.5340632603406327	0.02509907529722589
7881.866455078125	-14.65384615384616	-31.82762363737144	0.2657972531871651	2.604394576765218	3.596302435808567	-4.07171357447079	3456.061538461538	3610.25641025641	0.3791008505467801	0.5352798053527981	0.03302509907529723
7901.397705078125	-13.92307692307692	-32.95838209028762	0.3037198989961198	2.202869749633363	4.572080573284046	-2.83345074890635	3474.994871794872	3613.186813186813	0.3839611178614824	0.5316301703163017	0.02509907529722589
7920.928955078125	-14.57692307692308	-32.32569902075507	0.09264334544558728	1.355842385979029	4.630325509878214	-1.191744964679375	3483.733333333333	3617.582417582417	0.3851761846901579	0.5450121654501217	0.03963011889035667
7940.460205078125	-13.53846153846154	-32.65575537352959	0.1723840610950298	0.4648373129340694	2.795259108115596	-0.3848590473543072	3491.015384615384	3623.443223443223	0.3900364520048603	0.5498783454987835	0.023778071334214
7959.991455078125	-14.11538461538462	-32.88759469113753	0.8028114799531934	1.839258246899158	0.908092951602568	1.215178142965401	3469.169230769231	3613.186813186813	0.3888213851761846	0.5498783454987835	0.02774108322324967
7979.522705078125	-15.11538461538462	-31.9716773418735	0.2377132475210939	0.4749791636044125	1.402550108812384	0.4174389747582021	3493.928205128205	3623.443223443223	0.3791008505467801	0.5437956204379563	0.04227212681638045
7999.053955078125	-14.38461538461539	-32.53197942969761	0.598971484880212	1.413090486788268	1.868285657955545	1.637205012936162	3479.364102564102	3623.443223443223	0.3839611178614824	0.5571776155717761	0.035667107001321
8018.585205078125	-15.42307692307692	-32.12185902568209	0.3621820533349758	0.9746012601878604	2.82068564874727	1.651113905110084	3483.733333333333	3621.978021978022	0.3863912515188335	0.5498783454987835	0.02774108322324967
8038.116455078125	-13.96153846153846	-32.54190275297161	0.6720607255034798	0.5339324177682782	2.372583924674532	2.059202841599674	3499.753846153846	3629.304029304029	0.3827460510328068	0.5498783454987835	0.023778071334214
8057.647705078125	-14.5	-32.64593982878611	0.6431452854591366	0.9847431108582037	1.427976649444058	2.453411927222593	3495.384615384615	3627.838827838828	0.3803159173754556	0.559610705596107	0.02642007926023778
8077.178955078125	-14.76923076923077	-32.13558539139004	0.3946541848863705	1.401243482763299	-0.471079010526062	2.022093101597718	3488.102564102564	3621.978021978022	0.370595382746051	0.5389294403892945	0.03302509907529723
8096.710205078125	-15.30769230769231	-32.62916487035782	0.6120896717373899	1.847220481750327	-1.885117762565107	2.41165620939358	3489.558974358974	3623.443223443223	0.3766707168894289	0.5498783454987835	0.03830911492734478
8116.241455078125	-15.03846153846154	-32.70532579910082	0.3047514935024942	1.832244936977086	-0.961840240070467	1.604712209454014	3488.102564102564	3621.978021978022	0.3730255164034022	0.5498783454987835	0.0369881109643329
8135.772705078125	-14.96153846153846	-31.70066052842274	-0.00543511732462898	1.384088322170884	-0.9483032028958848	1.609329145973822	3496.841025641026	3626.373626373626	0.3839611178614824	0.5462287104622872	0.02774108322324967
8155.303955078125	-15.03846153846154	-32.13563928065529	0.6665794173800579	1.844566403466604	-0.9540475245092157	2.012830187250854	3470.625641025641	3621.978021978022	0.3778857837181044	0.5498783454987835	0.02906208718626156
8174.835205078125	-15.07692307692308	-32.39585514565499	0.2542957442877378	1.359445389191848	-0.9638886340183873	0.7930931903801425	3501.210256410256	3626.373626373626	0.3718104495747266	0.5474452554744526	0.03170409511228534
8194.366455078125	-15.19230769230769	-32.08947927572827	0.4355022479522079	1.785613149302738	-1.924081340371364	0.3710663204093814	3489.558974358974	3626.373626373626	0.3815309842041312	0.5486618004866181	0.02906208718626156
8213.897705078125	-15.53846153846154	-31.87476134753957	-0.3388556999445709	1.75831613803998	-1.008596533437975	-0.8439956573270243	3501.210256410256	3623.443223443223	0.3742405832320777	0.5498783454987835	0.04359313077939234
8233.428955078125	-15.34615384615385	-32.55141805752294	0.60936441460861	1.302671750847157	-0.5334207350160721	-1.242850720776999	3489.558974358974	3619.047619047619	0.3718104495747266	0.5474452554744526	0.02906208718626156
8252.960205078125	-15.07692307692308	-32.05173369464803	0.355915501632075	1.745994671550462	-1.016389248999226	-1.252113635123864	3479.364102564102	3614.652014652014	0.3766707168894289	0.5571776155717761	0.03302509907529723
8272.491455078125	-16.65384615384615	-32.21910605407403	0.6860719344706534	1.270541045481501	-0.08736740489125427	-2.462558676340462	3492.471794871794	3617.582417582417	0.3742405832320777	0.551094890510949	0.03434610303830912
8292.022705078125	-14.46153846153846	-32.84455256512903	0.9199359487590073	2.17699612576425	-1.507150478543631	-1.669494527267568	3467.71282051282	3617.582417582417	0.3693803159173754	0.5535279805352799	0.03038309114927345
8311.553955078125	-15.07692307692308	-33.8216111350619	0.3882490607870912	2.174342047480527	-0.576080240487739	-2.068320549410295	3470.625641025641	3611.721611721612	0.3791008505467801	0.5474452554744526	0.02509907529722589
8331.085205078125	-14.92307692307692	-33.14950421875962	1.244441707211923	1.726185432674324	-0.5625432033131568	-2.063703612890487	3483.733333333333	3614.652014652014	0.3791008505467801	0.5498783454987835	0.02509907529722589
8350.616455078125	-14.88461538461539	-32.36348309416765	0.3664624006897825	1.718697660287704	-0.1009044420658365	-2.46717561286027	3496.841025641026	3620.51282051282	0.3803159173754556	0.5523114355231144	0.03434610303830912
8370.147705078125	-15.07692307692308	-32.23264765658681	-0.2137710168134508	1.701542499695289	-0.5781286344356593	-2.879939568484166	3489.558974358974	3614.652014652014	0.3791008505467801	0.5450121654501217	0.02642007926023778
8389.678955078125	-14.73076923076923	-32.37192061341381	0.6344922091519367	2.149699114501491	-0.5916656716102415	-2.884556505003974	3476.451282051281	3613.186813186813	0.3742405832320777	0.5401459854014599	0.02774108322324967
8409.210205078125	-15.30769230769231	-32.73925294081419	0.3472624253248753	2.588188341101899	-1.544065662401967	-2.898465397177895	3479.364102564102	3608.791208791209	0.3754556500607533	0.5523114355231144	0.0369881109643329
8428.741455078125	-14.5	-32.68135277452732	0.4907156494426311	2.149699114501491	-0.5916656716102415	-2.884556505003974	3488.102564102564	3614.652014652014	0.3742405832320777	0.551094890510949	0.035667107001321
8448.272705078125	-14.30769230769231	-32.95999876824537	0.7691691814990453	1.701542499695289	-0.5781286344356593	-2.879939568484166	3488.102564102564	3614.652014652014	0.3803159173754556	0.551094890510949	0.04095112285336856
8467.803955078125	-14.53846153846154	-32.76604360411406	0.9175648210876395	2.634820128776247	-0.58182456210107	-1.664819508133263	3473.538461538461	3619.047619047619	0.3754556500607533	0.5547445255474452	0.02774108322324967
8487.335205078125	-14.26923076923077	-32.38491562480754	0.8227043172999938	1.713863966184807	-0.570335918874408	-2.471821590687326	3483.733333333333	3616.117216117216	0.3754556500607533	0.5498783454987835	0.03830911492734478
8506.866455078125	-14.46153846153846	-32.54200283303566	1.177064728706042	1.733673205060945	-1.024181964560477	-1.660231612920704	3488.102564102564	3616.117216117216	0.3876063183475091	0.5523114355231144	0.03170409511228534
8526.397705078125	-15.96153846153846	-32.00879934717004	1.016890435425264	1.314993217336675	-0.5256280194548209	-0.8347327429801598	3498.297435897436	3623.443223443223	0.3766707168894289	0.5559610705596108	0.023778071334214
8545.928955078125	-15.5	-32.31510593089857	0.486065775697481	1.32466060554247	0.4132349341623223	-0.8254407873260463	3496.841025641026	3623.443223443223	0.3693803159173754	0.5535279805352799	0.023778071334214
8565.460205078125	-14.65384615384616	-32.60131951715218	0.4890527806860875	2.684105994734318	-0.5506536998560649	-0.03234759694590383	3469.169230769231	3620.51282051282	0.3754556500607533	0.5425790754257908	0.023778071334214
8584.991455078125	-15.34615384615385	-33.23504187965757	0.1751709059555338	1.29783805674426	-1.002852211824644	-1.247496698604056	3505.579487179487	3619.047619047619	0.3742405832320777	0.5462287104622872	0.02906208718626156
8604.522705078125	-15.53846153846154	-32.91790355361213	-0.1048223193939768	1.770637604529498	-1.000803817876723	-0.4358776795301846	3486.646153846154	3616.117216117216	0.3766707168894289	0.5474452554744526	0.02906208718626156
8624.053955078125	-15.19230769230769	-33.09181960953377	0.5525189382275051	1.782959071019015	-0.9930111023154721	-0.02775970173334488	3482.276923076923	3623.443223443223	0.3912515188335358	0.5474452554744526	0.02774108322324967
8643.585205078125	-14.69230769230769	-32.86923384861736	0.4616924308677712	1.327314683826192	-0.5178353038935696	-0.42661476518332	3492.471794871794	3619.047619047619	0.3839611178614824	0.5413625304136254	0.03963011889035667
8663.116455078125	-15.46153846153846	-31.92632567592536	0.2393607193447067	1.753482443937083	-1.478028010246546	-0.8486416351540811	3488.102564102564	3619.047619047619	0.3718104495747266	0.5523114355231144	0.02774108322324967
8682.647705078125	-15.73076923076923	-32.01645162283673	1.168734987990392	2.198984980459562	-0.5604948093652366	-1.252084593816615	3498.297435897436	3617.582417582417	0.3778857837181044	0.5608272506082725	0.0369881109643329
8702.178955078125	-14.80769230769231	-32.14483124961507	0.8954086345999877	2.225807529257772	0.8555923366217294	-0.8300286825386052	3485.189743589744	3619.047619047619	0.3839611178614824	0.5498783454987835	0.03963011889035667
8721.710205078125	-14.84615384615385	-33.26111658557615	0.9789062018845846	2.669130449961077	0.3726238226385756	-0.8392915968854698	3480.820512820513	3616.117216117216	0.3766707168894289	0.5462287104622872	0.02509907529722589
8741.241455078125	-14.19230769230769	-32.5065359980292	1.05756913222886	2.194151286356665	-1.029926286173808	-1.256730571643672	3495.384615384615	3620.51282051282	0.3766707168894289	0.5462287104622872	0.03038309114927345
8760.772705078125	-15.42307692307692	-32.31663022725873	0.4853575167826568	2.189317592253767	-1.49935776298238	-1.261376549470729	3492.471794871794	3620.51282051282	0.3851761846901579	0.5462287104622872	0.02774108322324967
8780.303955078125	-15.92307692307692	-31.23432592227628	0.7162961138141282	3.09795228835569	-1.518639121770293	-0.8624924447135046	3469.169230769231	3616.117216117216	0.3742405832320777	0.5425790754257908	0.02642007926023778
8799.835205078125	-15.42307692307692	-32.49677434255097	-0.1228213339902691	2.647141595265765	-0.5740318465398188	-1.256701530336423	3480.820512820513	3614.652014652014	0.3766707168894289	0.5425790754257908	0.03170409511228534
8819.366455078125	-15.5	-31.92017460121944	-0.02973147748968397	2.191497208072942	-0.09885604811791622	-1.655556593786398	3496.841025641026	3620.51282051282	0.3730255164034022	0.537712895377129	0.02906208718626156
8838.897705078125	-14.38461538461539	-32.3425971546468	0.7452423477243333	1.317172833155849	0.8748736954096426	-1.228912787295829	3499.753846153846	3620.51282051282	0.3839611178614824	0.5450121654501217	0.02642007926023778
8858.428955078125	-14.61538461538462	-32.53510500708259	0.9860195848986884	0.8470273636543343	-0.05824493659416952	-1.641705784226975	3493.928205128205	3619.047619047619	0.3827460510328068	0.5474452554744526	0.02906208718626156
8877.960205078125	-15.53846153846154	-32.306645316253	0.1014965818808893	1.310159523233777	-0.9950594962633924	-0.8393787208072164	3476.451282051281	3619.047619047619	0.3839611178614824	0.551094890510949	0.0369881109643329
8897.491455078125	-15.38461538461539	-32.26966188335283	0.02155570610334423	0.386549282358614	-0.05250061498083854	-2.045206825504006	3489.558974358974	3614.652014652014	0.370595382746051	0.5498783454987835	0.04491413474240423
8917.022705078125	-15.03846153846154	-32.47437180513642	0.2955133337439182	0.8588743676793037	2.281119731887437	-2.02659387288853	3486.646153846154	3611.721611721612	0.3766707168894289	0.5535279805352799	0.03038309114927345
8936.553955078125	-14.57692307692308	-32.38343751924617	1.056491346923693	1.731019126777222	-0.09311172650458524	-2.05905763506343	3467.71282051282	3611.721611721612	0.3791008505467801	0.5523114355231144	0.035667107001321
8956.085205078125	-14.34615384615385	-31.83603036275174	0.3784412145100695	1.265707351378604	-0.5567988816998258	-2.467204654167519	3482.276923076923	3616.117216117216	0.370595382746051	0.5474452554744526	0.023778071334214
8975.616455078125	-14.76923076923077	-32.0131797745889	0.04360411406047904	1.251206269069912	-1.965093312125541	-2.481142587648689	3488.102564102564	3614.652014652014	0.3839611178614824	0.551094890510949	0.02509907529722589
8995.147705078125	-14.57692307692308	-32.63825675925356	0.3359148857547578	1.256039963172809	-1.495661835316969	-2.476496609821632	3493.928205128205	3617.582417582417	0.3693803159173754	0.551094890510949	0.03170409511228534
9014.678955078125	-14.88461538461539	-32.27495072981463	1.709074952269508	1.278028817868122	-0.5490061661385746	-2.059086676370679	3488.102564102564	3614.652014652014	0.3863912515188335	0.5413625304136254	0.03434610303830912
9034.210205078125	-15.26923076923077	-31.85469144546407	0.311495350126255	1.726185432674324	-0.5625432033131568	-2.063703612890487	3464.8	3610.25641025641	0.3778857837181044	0.5462287104622872	0.02906208718626156
9053.741455078125	-15.11538461538462	-32.71611904908542	0.9213370696557246	0.8395395912677141	0.4033938246531508	-2.045177784196758	3496.841025641026	3616.117216117216	0.370595382746051	0.551094890510949	0.02906208718626156
9073.272705078125	-14.11538461538462	-32.69205364291433	0.6411436841781117	1.741160977447565	-1.485820725807797	-1.256759612950921	3466.25641025641	3616.117216117216	0.3839611178614824	0.5474452554744526	0.02245706737120212
9092.803955078125	-15.23076923076923	-32.27502001601281	0.135616185255897	1.741160977447565	-1.485820725807797	-1.256759612950921	3476.451282051281	3619.047619047619	0.3815309842041312	0.5547445255474452	0.02642007926023778
9112.335205078125	-15.46153846153846	-32.82781609903308	1.083112643961323	1.290350284357639	-0.5412134505773234	-1.650968698573839	3492.471794871794	3619.047619047619	0.3730255164034022	0.5364963503649636	0.04227212681638045
9131.866455078125	-14.96153846153846	-32.78383476011579	0.307122621173862	0.8250385089590218	-1.004900605772564	-2.059115717677928	3489.558974358974	3616.117216117216	0.3766707168894289	0.551094890510949	0.02245706737120212
9151.397705078125	-14.84615384615385	-32.73454147933732	-0.3498491100572765	1.282862511971019	-0.079574689330003	-2.054440698543622	3488.102564102564	3616.117216117216	0.3742405832320777	0.5620437956204379	0.03963011889035667
9170.928955078125	-14.80769230769231	-32.25876855330418	0.8230430498244749	2.194151286356665	-1.029926286173808	-1.256730571643672	3470.625641025641	3617.582417582417	0.3827460510328068	0.5474452554744526	0.02642007926023778
9190.460205078125	-15.07692307692308	-32.01863028884646	0.6238221346307815	2.164674659274732	-1.514943194104882	-2.077612505064408	3470.625641025641	3613.186813186813	0.3730255164034022	0.5571776155717761	0.02245706737120212
9209.991455078125	-14.84615384615385	-32.82692307692308	0.4230769230769231	1.745994671550462	-1.016389248999226	-1.252113635123864	3486.646153846154	3617.582417582417	0.3766707168894289	0.5486618004866181	0.0369881109643329
9229.522705078125	-14.15384615384616	-31.96455626039293	0.8431976350311019	1.738506899163842	-0.5547504877519056	-1.655585635093647	3492.471794871794	3619.047619047619	0.3791008505467801	0.5498783454987835	0.02245706737120212
9249.053955078125	-14.96153846153846	-32.13100480384308	0.3579324998460307	1.748648749834185	-1.947459487055118	-0.8532876129811378	3476.451282051281	3617.582417582417	0.3766707168894289	0.5474452554744526	0.02245706737120212
9268.585205078125	-15	-32.38968097554967	-0.1313358379010903	2.647616057730313	-2.905603799460174	-0.4636954638780273	3456.061538461538	3616.117216117216	0.3693803159173754	0.5437956204379563	0.03302509907529723
9288.116455078125	-15.11538461538462	-32.12102759130381	0.01291802672907561	2.213960525232803	-1.483772331859877	-0.4451405938770492	3476.451282051281	3620.51282051282	0.3815309842041312	0.5425790754257908	0.03302509907529723
9307.647705078125	-15.88461538461539	-33.08579940875777	0.9438165917349266	1.349303538521505	0.4288203652848249	-0.009204831732366803	3482.276923076923	3621.978021978022	0.370595382746051	0.537712895377129	0.0369881109643329
9327.178955078125	-15.53846153846154	-32.54683746997598	0.5726427295682701	0.4503362306253771	1.386964677689881	-0.3987969808354773	3492.471794871794	3617.582417582417	0.3766707168894289	0.5462287104622872	0.02906208718626156
9346.710205078125	-15.53846153846154	-32.27970068362382	0.677341873498799	1.770637604529498	-1.000803817876723	-0.4358776795301846	3470.625641025641	3621.978021978022	0.3827460510328068	0.5523114355231144	0.03302509907529723
9366.241455078125	-15.88461538461539	-33.05346584960275	1.250215557061034	1.745994671550462	-1.016389248999226	-1.252113635123864	3479.364102564102	3617.582417582417	0.3791008505467801	0.5486618004866181	0.03434610303830912
9385.772705078125	-15.34615384615385	-31.87318316191415	1.313004249553489	1.755187597291709	2.254045657538272	-2.035827745928146	3488.102564102564	3614.652014652014	0.3851761846901579	0.5450121654501217	0.03963011889035667
9405.303955078125	-14.19230769230769	-31.95917503233356	0.6125977705241117	2.22315345097405	1.786662574677621	-1.228854704681331	3467.71282051282	3616.117216117216	0.3778857837181044	0.5547445255474452	0.02113606340819023
9424.835205078125	-14.76923076923077	-33.2911252078586	0.4793373160066514	1.748174287369637	0.3841124658652376	-1.646293679439534	3496.841025641026	3620.51282051282	0.3766707168894289	0.5571776155717761	0.02774108322324967
9444.366455078125	-14.61538461538462	-33.38116647163885	0.9814005050194002	2.642307901162867	-1.04346332334839	-1.26134750816348	3485.189743589744	3619.047619047619	0.3669501822600243	0.5450121654501217	0.03963011889035667
9463.897705078125	-15.34615384615385	-32.11953408880951	0.1690121327831495	2.62998643467335	-1.051256038909642	-1.66946548596032	3492.471794871794	3617.582417582417	0.3693803159173754	0.5486618004866181	0.03302509907529723
9483.428955078125	-14.96153846153846	-31.78303411960338	0.2670905955533656	2.632166050492524	0.3492456759548219	-2.063645530275989	3486.646153846154	3613.186813186813	0.3791008505467801	0.5498783454987835	0.03830911492734478
9502.960205078125	-14.88461538461539	-33.12717096754327	0.08931760793249977	2.661642677574457	0.8342625838858959	-1.242763596855253	3464.8	3616.117216117216	0.3742405832320777	0.5413625304136254	0.03434610303830912
9522.491455078125	-14.84615384615385	-33.80616801133214	1.308400566607132	3.11728706476728	0.3590867854639934	-0.8439085334052776	3467.71282051282	3617.582417582417	0.3778857837181044	0.5364963503649636	0.035667107001321
9542.022705078125	-15.23076923076923	-33.07797006836238	-0.1014965818808893	3.092644131788245	0.3435013543414909	-1.660144488998957	3482.276923076923	3619.047619047619	0.3827460510328068	0.5450121654501217	0.03830911492734478
9561.553955078125	-14.92307692307692	-32.17025928435056	0.3591180636817146	2.639653822879144	-0.1123930852924985	-1.660173530306206	3477.907692307692	3617.582417582417	0.3754556500607533	0.5474452554744526	0.03302509907529723
9581.085205078125	-15.5	-33.50528884646179	0.379826938473856	2.179175741583424	-0.1066487636791675	-2.063674571583238	3480.820512820513	3614.652014652014	0.3693803159173754	0.551094890510949	0.02642007926023778
9600.616455078125	-14.80769230769231	-31.7491300732894	0.3411190490854223	1.738032436699294	1.77682146516845	-2.448591701552043	3483.733333333333	3616.117216117216	0.3815309842041312	0.5486618004866181	0.03170409511228534
9620.147705078125	-14.57692307692308	-32.38112797930653	0.9410143499414917	1.294709515995989	2.259789979151603	-2.439328787205178	3505.579487179487	3617.582417582417	0.3718104495747266	0.5474452554744526	0.03434610303830912
9639.678955078125	-15.5	-31.72848278622898	0.001062388372236267	1.745520209085914	1.31518270392113	-2.04511970158226	3483.733333333333	3611.721611721612	0.3827460510328068	0.5559610705596108	0.03170409511228534
9659.210205078125	-15	-32.43587177434255	0.2551271786660099	1.743340593266739	-0.08531901094333398	-1.65093965726659	3476.451282051281	3620.51282051282	0.3754556500607533	0.5571776155717761	0.02113606340819023
9678.741455078125	-15.07692307692308	-32.58754696064544	0.2235018784258176	1.748174287369637	0.3841124658652376	-1.646293679439534	3486.646153846154	3617.582417582417	0.3766707168894289	0.5474452554744526	0.03830911492734478
9698.272705078125	-14.92307692307692	-33.4089425386463	0.7548192400073904	1.760495753859155	0.3919051814264888	-1.238175701642694	3474.994871794872	3616.117216117216	0.3718104495747266	0.551094890510949	0.0369881109643329
9717.803955078125	-14.57692307692308	-32.60284381351235	0.4883445217712633	2.669130449961077	0.3726238226385756	-0.8392915968854698	3472.082051282051	3619.047619047619	0.3791008505467801	0.5559610705596108	0.02509907529722589
9737.335205078125	-15.92307692307692	-30.93485557676911	1.127394223070764	1.760495753859155	0.3919051814264888	-1.238175701642694	3479.364102564102	3616.117216117216	0.3645200486026731	0.5486618004866181	0.03302509907529723
9756.866455078125	-14.88461538461539	-33.0940675617417	0.3572242409312065	1.753007981472534	0.8535439426738091	-1.641647701612477	3492.471794871794	3620.51282051282	0.3718104495747266	0.551094890510949	0.035667107001321
9776.397705078125	-15.42307692307692	-32.57144946726612	-0.2352189443862782	1.772817220348672	0.3996978969877401	-0.8300577238458541	3473.538461538461	3614.652014652014	0.3803159173754556	0.551094890510949	0.03302509907529723
9795.928955078125	-14.69230769230769	-32.59824782903246	0.3739299131612985	1.32466060554247	0.4132349341623223	-0.8254407873260463	3493.928205128205	3619.047619047619	0.3754556500607533	0.5498783454987835	0.03963011889035667
9815.460205078125	-14.73076923076923	-32.64136693970561	0.6452700622036092	2.691593767120938	-1.012292461103385	0.3711244030238792	3460.430769230769	3621.978021978022	0.3778857837181044	0.5547445255474452	0.03830911492734478
9834.991455078125	-15.34615384615385	-32.62763287553119	0.5739514688674017	1.319826911439572	-0.05619654264624922	-0.830086765153103	3505.579487179487	3620.51282051282	0.3851761846901579	0.551094890510949	0.03170409511228534
9854.522705078125	-15.38461538461539	-32.9425078524358	0.9715464679435856	2.684105994734318	-0.5506536998560649	-0.03234759694590383	3482.276923076923	3624.908424908425	0.3718104495747266	0.5523114355231144	0.04095112285336856
9874.053955078125	-15	-32.24956888587793	0.5553673708197326	2.676618222347698	-0.08901493860874465	-0.4358195969156868	3477.907692307692	3617.582417582417	0.3851761846901579	0.551094890510949	0.02642007926023778
9893.585205078125	-15.61538461538462	-32.39288353759931	0.6441768799655108	2.20381867456246	-0.09106333255666496	-1.247438615989558	3493.928205128205	3620.51282051282	0.3718104495747266	0.551094890510949	0.02509907529722589
9913.116455078125	-14.84615384615385	-32.36193570240808	0.2506312742501693	3.102785982458588	-1.049207644961721	-0.8578464668864478	3477.907692307692	3620.51282051282	0.3766707168894289	0.5583941605839417	0.03434610303830912
9932.647705078125	-14.42307692307692	-32.62359887910328	-0.5508252756050993	2.208652368665357	0.3783681442519066	-1.242792638162502	3505.579487179487	3619.047619047619	0.3742405832320777	0.5547445255474452	0.03434610303830912
9952.178955078125	-14.30769230769231	-31.82755435117325	-0.08382090287614719	3.09795228835569	-1.518639121770293	-0.8624924447135046	3463.343589743589	3616.117216117216	0.3693803159173754	0.5559610705596108	0.03302509907529723
9971.710205078125	-14.76923076923077	-32.57901705980169	-0.5106854714540861	3.115107448948105	-1.04141492940047	-0.4497284890896082	3469.169230769231	3611.721611721612	0.3730255164034022	0.5523114355231144	0.03963011889035667
9991.241455078125	-15.26923076923077	-33.54912391451624	0.4177341873498799	2.216140141051977	-0.08327061699541369	-0.8393206381927187	3495.384615384615	3620.51282051282	0.370595382746051	0.5413625304136254	0.023778071334214
10010.77270507813	-15	-32.42971300117016	-0.05281147995319335	2.647141595265765	-0.5740318465398188	-1.256701530336423	3482.276923076923	3620.51282051282	0.3778857837181044	0.5462287104622872	0.02509907529722589
10030.30395507813	-14.88461538461539	-32.51206349695141	0.1031748475703642	3.073309355376655	-1.534224552892796	-1.678728400307184	3479.364102564102	3617.582417582417	0.3730255164034022	0.5425790754257908	0.02774108322324967
10049.83520507813	-15.11538461538462	-32.13257529100203	0.5903030116400813	3.521465970182857	-1.547761590067378	-1.683345336826992	3457.517948717949	3616.117216117216	0.3900364520048603	0.5450121654501217	0.02113606340819023
10069.36645507813	-15.38461538461539	-32.85089610149658	0.2371127671367863	2.612356811616386	0.8030917216408909	-2.875235508042612	3485.189743589744	3614.652014652014	0.3742405832320777	0.5498783454987835	0.01981505944517834
10088.89770507813	-14.53846153846154	-31.96078401182485	1.039200591242225	3.072834892912107	0.79734740002756	-2.47173446676558	3486.646153846154	3617.582417582417	0.3827460510328068	0.5486618004866181	0.0369881109643329
10108.42895507813	-14.80769230769231	-32.8138279854653	-0.2701391882736959	3.087810437685347	-0.1259301224670807	-1.664790466826014	3466.25641025641	3616.117216117216	0.3718104495747266	0.5450121654501217	0.0369881109643329
10127.96020507813	-15.03846153846154	-32.73919905154893	0.07533719283118789	3.080797127763275	-1.995863314140116	-1.275256400337401	3473.538461538461	3614.652014652014	0.3791008505467801	0.551094890510949	0.03170409511228534
10147.49145507813	-15.19230769230769	-32.7731030978629	0.001308739299131556	2.62998643467335	-1.051256038909642	-1.66946548596032	3486.646153846154	3616.117216117216	0.3803159173754556	0.5498783454987835	0.02642007926023778
10167.02270507813	-15.34615384615385	-33.59225072365585	0.7279207981770033	1.738506899163842	-0.5547504877519056	-1.655585635093647	3485.189743589744	3616.117216117216	0.3815309842041312	0.5486618004866181	0.03170409511228534
10186.55395507813	-15.11538461538462	-33.70614183654616	0.4224764426926158	3.560609985470585	-0.1238817285191604	-0.8531714477521423	3470.625641025641	3619.047619047619	0.3742405832320777	0.5498783454987835	0.023778071334214
10206.08520507813	-14.5	-33.24411067315391	-0.2175432653815359	3.112453370664383	-0.1103446913445781	-0.8485545112323344	3463.343589743589	3619.047619047619	0.3730255164034022	0.5523114355231144	0.011889035667107
10225.61645507813	-14.53846153846154	-32.56049454948574	0.255496705056353	2.21130644694908	-0.5527020938039853	-0.8439666160197754	3470.625641025641	3616.117216117216	0.3754556500607533	0.5547445255474452	0.03302509907529723
10245.14770507813	-14.38461538461539	-31.86529223378703	-0.04308061834082633	1.290350284357639	-0.5412134505773234	-1.650968698573839	3504.123076923077	3619.047619047619	0.3742405832320777	0.5559610705596108	0.02774108322324967
10264.67895507813	-14.88461538461539	-32.28880796945249	0.4788600110857916	1.75831613803998	-1.008596533437975	-0.8439956573270243	3496.841025641026	3620.51282051282	0.3803159173754556	0.5498783454987835	0.02906208718626156
10284.21020507813	-15.07692307692308	-32.55367370819733	0.4529161790971239	2.228461607541495	-0.07547790143416243	-0.431202660395879	3470.625641025641	3616.117216117216	0.370595382746051	0.5535279805352799	0.02906208718626156
10303.74145507813	-15	-33.3619972901398	0.4075568146825153	1.309685060769229	1.336512456656963	-1.632384787265612	3504.123076923077	3619.047619047619	0.3803159173754556	0.5450121654501217	0.04359313077939234
10323.27270507813	-15.07692307692308	-32.28191784196589	0.3266613290632505	2.66429675585818	-0.09680765416999591	-0.8439375747125265	3472.082051282051	3617.582417582417	0.3754556500607533	0.5498783454987835	0.035667107001321
10342.80395507813	-15.76923076923077	-31.91560941060541	0.01123976103960112	2.622498662286729	-0.5896172776623212	-2.072937485930102	3473.538461538461	3613.186813186813	0.3657351154313487	0.5486618004866181	0.03170409511228534
10362.33520507813	-15.15384615384616	-31.90778776867648	0.9278499722855208	2.62998643467335	-1.051256038909642	-1.66946548596032	3480.820512820513	3617.582417582417	0.3730255164034022	0.5535279805352799	0.03170409511228534
10381.86645507813	-15.38461538461539	-32.4359487590072	0.6435917965141345	2.174342047480527	-0.576080240487739	-2.068320549410295	3483.733333333333	3613.186813186813	0.3876063183475091	0.5523114355231144	0.03302509907529723
10401.39770507813	-15.11538461538462	-32.33504495904416	1.098401798361766	1.723531354390602	0.368527034742735	-2.462529635033213	3504.123076923077	3617.582417582417	0.3863912515188335	0.5425790754257908	0.023778071334214
10420.92895507813	-14.61538461538462	-33.19563342982077	1.320133029500524	2.184009435686322	0.3627827131294041	-2.059028593756181	3477.907692307692	3613.186813186813	0.3754556500607533	0.559610705596107	0.03963011889035667
10440.46020507813	-14.80769230769231	-32.70143037506929	-0.1207889388433823	2.65680898347156	0.3648311070773244	-1.24740957468231	3474.994871794872	3617.582417582417	0.3669501822600243	0.551094890510949	0.02774108322324967
10459.99145507813	-14.92307692307692	-32.33346677341874	0.8271848247829031	2.213486062768255	0.8477996210604781	-1.238146660335445	3482.276923076923	3617.582417582417	0.3803159173754556	0.5498783454987835	0.03434610303830912
10479.52270507813	-14.26923076923077	-32.57891697973764	0.9073874484202749	1.738506899163842	-0.5547504877519056	-1.655585635093647	3483.733333333333	3616.117216117216	0.3730255164034022	0.5559610705596108	0.02509907529722589
10499.05395507813	-14.88461538461539	-31.94853575167827	0.7729414300671307	2.647141595265765	-0.5740318465398188	-1.256701530336423	3479.364102564102	3619.047619047619	0.3754556500607533	0.5498783454987835	0.03963011889035667
10518.58520507813	-15.34615384615385	-32.44517922029932	-0.8564236004187966	2.639653822879144	-0.1123930852924985	-1.660173530306206	3480.820512820513	3613.186813186813	0.3681652490886999	0.5450121654501217	0.02642007926023778
10538.11645507813	-14.26923076923077	-31.78674478043974	-0.2396840549362567	2.647141595265765	-0.5740318465398188	-1.256701530336423	3469.169230769231	3616.117216117216	0.3815309842041312	0.5413625304136254	0.03434610303830912
10557.64770507813	-14.92307692307692	-31.67986697049948	0.8395023711276712	2.20381867456246	-0.09106333255666496	-1.247438615989558	3482.276923076923	3617.582417582417	0.3839611178614824	0.5413625304136254	0.04623513870541612
10577.17895507813	-14.46153846153846	-32.51967728028577	0.06078709121143078	1.312339139052952	0.4054422186010711	-1.233558765122886	3492.471794871794	3617.582417582417	0.3815309842041312	0.5547445255474452	0.03302509907529723
10596.71020507813	-14.88461538461539	-32.48819825090843	0.8329894684978755	2.223627913438598	-0.544909378242734	-0.4358486382229357	3473.538461538461	3617.582417582417	0.3742405832320777	0.5523114355231144	0.03830911492734478
10616.24145507813	-15.57692307692308	-32.26970037568516	0.2157880150274065	1.312339139052952	0.4054422186010711	-1.233558765122886	3491.015384615384	3617.582417582417	0.3620899149453219	0.5559610705596108	0.03302509907529723
10635.77270507813	-15	-31.8561772494919	0.1165547822873685	1.718697660287704	-0.1009044420658365	-2.46717561286027	3486.646153846154	3614.652014652014	0.3876063183475091	0.5486618004866181	0.03302509907529723
10655.30395507813	-15.69230769230769	-32.45987559278192	0.224548869865123	2.186663513970045	-0.5682875249264878	-1.660202571613455	3479.364102564102	3619.047619047619	0.3863912515188335	0.5583941605839417	0.023778071334214
10674.83520507813	-15.5	-32.59840949682823	1.18970561064236	2.642307901162867	-1.04346332334839	-1.26134750816348	3458.974358974359	3614.652014652014	0.3742405832320777	0.5571776155717761	0.023778071334214
10694.36645507813	-15.42307692307692	-32.90864229845415	1.239807230399704	1.748174287369637	0.3841124658652376	-1.646293679439534	3483.733333333333	3617.582417582417	0.3863912515188335	0.5462287104622872	0.03434610303830912
10713.89770507813	-15.15384615384616	-32.02326476565868	0.9324690521648088	1.731019126777222	-0.09311172650458524	-2.05905763506343	3488.102564102564	3614.652014652014	0.370595382746051	0.5474452554744526	0.04095112285336856
10733.42895507813	-14.80769230769231	-32.86617755743056	0.424262486912607	1.713863966184807	-0.570335918874408	-2.471821590687326	3477.907692307692	3616.117216117216	0.3766707168894289	0.5413625304136254	0.04227212681638045
10752.96020507813	-15.15384615384616	-32.95016012810249	1.123391020508715	2.624678278105904	0.8108844372021422	-2.467117530245772	3470.625641025641	3614.652014652014	0.3827460510328068	0.5401459854014599	0.02509907529722589
10772.49145507813	-15.42307692307692	-32.97407926341073	0.6655016320748906	3.080322665298727	0.3357086387802397	-2.068262466795797	3461.887179487179	3608.791208791209	0.3803159173754556	0.5486618004866181	0.03963011889035667
10792.02270507813	-14.53846153846154	-32.30182607624561	0.7836115045882861	3.050846038216794	-0.1493082691508345	-2.889144400216533	3476.451282051281	3613.186813186813	0.3791008505467801	0.5450121654501217	0.035667107001321
10811.55395507813	-14.65384615384616	-33.24337162037322	1.822427172507237	3.095298210071968	-0.587568883714401	-1.261318466856231	3476.451282051281	3617.582417582417	0.3778857837181044	0.5425790754257908	0.02245706737120212
10831.08520507813	-14.34615384615385	-33.34185040339964	0.6694432469052165	4.006586984457614	-1.537920480558206	-0.4636083399562806	3453.148717948718	3613.186813186813	0.3766707168894289	0.5498783454987835	0.02774108322324967
10850.61645507813	-15.23076923076923	-32.1626224056168	0.2849664346862104	2.661642677574457	0.8342625838858959	-1.242763596855253	3492.471794871794	3617.582417582417	0.3778857837181044	0.5486618004866181	0.02774108322324967
10870.14770507813	-15.38461538461539	-32.15418488637063	0.01693662622405623	2.213486062768255	0.8477996210604781	-1.238146660335445	3491.015384615384	3620.51282051282	0.3766707168894289	0.5462287104622872	0.02642007926023778
10889.67895507813	-14.57692307692308	-32.57435948759007	0.9872051487343723	2.678797838166872	1.311486776255719	-0.8299996412313563	3469.169230769231	3616.117216117216	0.3766707168894289	0.5425790754257908	0.035667107001321
10909.21020507813	-14.61538461538462	-32.81917841965881	-0.1949251709059554	2.65680898347156	0.3648311070773244	-1.24740957468231	3467.71282051282	3619.047619047619	0.3815309842041312	0.5523114355231144	0.03434610303830912
10928.74145507813	-13.96153846153846	-32.69510223563466	0.6397271663484634	2.639653822879144	-0.1123930852924985	-1.660173530306206	3485.189743589744	3617.582417582417	0.3742405832320777	0.5535279805352799	0.03434610303830912
10948.27270507813	-14.30769230769231	-31.98845230030179	0.2687688612428405	2.62998643467335	-1.051256038909642	-1.66946548596032	3476.451282051281	3616.117216117216	0.3851761846901579	0.5450121654501217	0.02774108322324967
10967.80395507813	-15.26923076923077	-32.45363213647842	1.412376054689906	3.107619676561485	-0.5797761681531497	-0.8532004890593912	3473.538461538461	3619.047619047619	0.3754556500607533	0.5462287104622872	0.02906208718626156
10987.33520507813	-15.61538461538462	-32.70929050933054	1.079910081911683	2.198510517995014	1.771077143555119	-2.045090660275011	3486.646153846154	3613.186813186813	0.3803159173754556	0.5474452554744526	0.04227212681638045
11006.86645507813	-15.34615384615385	-33.05489776436534	0.7833497567284598	2.198510517995014	1.771077143555119	-2.045090660275011	3483.733333333333	3611.721611721612	0.3778857837181044	0.551094890510949	0.02774108322324967
11026.39770507813	-14.69230769230769	-32.09707766212971	0.3154215680236499	2.188843129789219	0.8322141899379756	-2.054382615929124	3486.646153846154	3614.652014652014	0.370595382746051	0.5462287104622872	0.04359313077939234
11045.92895507813	-14.84615384615385	-32.1617755743056	-0.1419905154893146	3.085630821866173	-1.526431837331544	-1.270610422510344	3472.082051282051	3617.582417582417	0.3681652490886999	0.551094890510949	0.04227212681638045
11065.46020507813	-14.73076923076923	-32.80688396871343	1.228813820286999	3.095298210071968	-0.587568883714401	-1.261318466856231	3470.625641025641	3617.582417582417	0.3730255164034022	0.5535279805352799	0.04491413474240423
11084.99145507813	-14.80769230769231	-31.87076584344399	0.6536767875839133	2.188843129789219	0.8322141899379756	-2.054382615929124	3486.646153846154	3611.721611721612	0.3742405832320777	0.5498783454987835	0.04359313077939234
11104.52270507813	-15.03846153846154	-32.02324167025928	0.8159296668103714	3.043358265830174	0.3123304920964859	-3.292616400186316	3479.364102564102	3614.652014652014	0.3754556500607533	0.5535279805352799	0.04227212681638045
