Time Stamp	Accelerometer X	Accelerometer Y	Accelerometer Z	Gyroscope X	Gyroscope Y	Gyroscope Z	VSenseReg	VSenseBatt	Magnetometer X	Magnetometer Y	Magnetometer Z
1454.132080078125	-10.52880691114714	-31.35052040435677	7.119308885285741	9.455312004856852	-16.75471191398911	7.173120625675476	3486.646153846154	3642.490842490842	0.2025641025641026	0.5875634517766497	0.08897742363877821
1473.663330078125	-5.906657777810608	-32.87889102902667	5.334222218939172	3.169658491250261	0.02992240436050896	1.115692182149875	3466.25641025641	3627.838827838828	0.2038461538461538	0.5799492385786802	0.09428950863213811
1493.194580078125	-5.786961697894622	-33.14901483897258	5.303830210537849	6.627937611664448	-0.2494111233268909	0.3407554554756372	3476.451282051281	3627.838827838828	0.1987179487179487	0.58248730964467	0.102257636122178
1512.725830078125	-6.13795516914065	-33.57758835609101	6.204483085935046	4.891766674505844	-0.2905351236604382	0.5541081751548098	3473.538461538461	3623.443223443223	0.2128205128205128	0.5888324873096447	0.09694555112881806
1532.257080078125	-5.941990980642731	-32.53705064801238	5.800901935726922	4.887041589194427	1.967155638946281	-0.3559582560946065	3470.625641025641	3623.443223443223	0.2064102564102564	0.581218274111675	0.09163346613545816
1551.788330078125	-5.821540825333978	-32.69255145872037	5.845917466602154	4.545657507386364	2.704144293708498	-0.3666886763131798	3480.820512820513	3621.978021978022	0.2141025641025641	0.5850253807106599	0.09163346613545816
1571.319580078125	-5.583626037700077	-32.53899924038446	5.637396229992379	4.550945102853901	1.947905639819602	0.06164405723432453	3483.733333333333	3626.373626373626	0.2141025641025641	0.5761421319796954	0.08897742363877821
1590.850830078125	-6.026107629026917	-33.22440052545204	5.38923709730835	5.227863160846372	-0.2712851245337597	0.1365058618258789	3476.451282051281	3624.908424908425	0.2076923076923077	0.583756345177665	0.09694555112881806
1610.382080078125	-5.577747327495251	-33.23724442999902	6.225267250474913	4.86712872966775	0.8603606557628593	-0.6507885792560911	3486.646153846154	3626.373626373626	0.2102564102564103	0.5862944162436548	0.09561752988047809
1629.913330078125	-6.183476084421972	-33.76391992396457	5.652391557802802	5.225500618190663	0.8575602567695997	-0.3185273537988293	3458.974358974359	3617.582417582417	0.2076923076923077	0.5761421319796954	0.09827357237715803
1649.444580078125	-5.412561110885402	-33.24408250877497	6.743888911459853	4.517531999580322	1.980981236999509	-1.063151250944965	3485.189743589744	3623.443223443223	0.2115384615384615	0.5850253807106599	0.09030544488711818
1668.975830078125	-5.265349589352086	-33.3096892224467	5.465041064791389	4.531032243327222	0.8411106566361808	-0.2331862659271602	3472.082051282051	3620.51282051282	0.2051282051282051	0.583756345177665	0.09428950863213811
1688.507080078125	-5.582518008551523	-33.30934911905526	5.748199144847725	4.875341377947113	0.4767287292884267	-0.2491563277857907	3470.625641025641	3620.51282051282	0.2153846153846154	0.581218274111675	0.1035856573705179
1708.038330078125	-5.945392014557041	-33.03361560375893	5.460798544295927	4.169735301992479	0.4713043282149769	-0.5387470093072181	3491.015384615384	3629.304029304029	0.208974358974359	0.5774111675126903	0.09561752988047809
1727.569580078125	-6.028816144723381	-32.45243415536785	5.118385527661947	4.166810249180651	0.09869760080051343	-0.5120465272300142	3472.082051282051	3626.373626373626	0.2012820512820513	0.5913705583756345	0.09163346613545816
1747.100830078125	-5.978401434035948	-33.50181455162369	6.159856596405306	3.461766683382137	1.594725308444886	-1.283370906453354	3499.753846153846	3626.373626373626	0.2141025641025641	0.581218274111675	0.08764940239043824
1766.632080078125	-5.632471040427059	-32.4142811722456	4.752895957294093	3.47290438447333	1.583700109384917	-0.9084391370602574	3479.364102564102	3623.443223443223	0.2064102564102564	0.583756345177665	0.09694555112881806
1786.163330078125	-5.698212872097733	-33.04326653764282	6.178712790226689	4.178510460427965	1.589124510458367	-0.6188484555388298	3469.169230769231	3623.443223443223	0.2166666666666667	0.583756345177665	0.09030544488711818
1805.694580078125	-5.981940971593826	-33.65208577253638	5.805902840617393	3.475829437285158	1.956306836799381	-0.9351396191374612	3491.015384615384	3620.51282051282	0.2102564102564103	0.5799492385786802	0.102257636122178
1825.225830078125	-6.181444697649624	-32.84289470152773	5.855530235037604	4.15331000543375	1.238568181163842	-1.342011512247819	3473.538461538461	3623.443223443223	0.2166666666666667	0.5799492385786802	0.09296148738379813
1844.757080078125	-5.550001046471974	-32.60988355844791	4.999895352802636	4.511681893956665	1.235767782170582	-1.009750286790557	3474.994871794872	3626.373626373626	0.208974358974359	0.5850253807106599	0.09561752988047809
1864.288330078125	-6.259744193003904	-33.07458144198913	6.025580699609604	4.150384952621922	0.8659614537493783	-1.315311030170615	3477.907692307692	3626.373626373626	0.2076923076923077	0.583756345177665	0.09694555112881806
1883.819580078125	-6.029616387997336	-32.45162590966115	5.038361200266419	3.809000870813858	1.602950108511596	-1.326041450389188	3476.451282051281	3620.51282051282	0.2102564102564103	0.5799492385786802	0.09163346613545816
1903.350830078125	-6.102729691364637	-32.65008916556787	5.727030863536361	3.800788222534493	1.986582034986028	-1.727673701859489	3476.451282051281	3620.51282051282	0.2012820512820513	0.5736040609137055	0.09296148738379813
1922.882080078125	-5.138312816326933	-32.93338097858671	6.168718367306736	4.495256597397935	2.003031635119447	-1.813014789731158	3467.71282051282	3621.978021978022	0.2038461538461538	0.5888324873096447	0.09030544488711818
1942.413330078125	-5.143329726082883	-33.38985236127166	5.667027391711695	4.500544192865471	1.246792981230551	-1.384682056183654	3466.25641025641	3624.908424908425	0.2076923076923077	0.5748730964467005	0.09827357237715803
1961.944580078125	-5.981079171144952	-32.8068023448359	5.892082885504885	4.48648143896245	0.8852114528760569	-1.732913343499546	3479.364102564102	3619.047619047619	0.2076923076923077	0.5799492385786802	0.099601593625498
1981.475830078125	-5.54559970846522	-32.61432890983474	5.440029153478042	4.855991028576557	0.8713858548228283	-1.025720348649188	3476.451282051281	3626.373626373626	0.2064102564102564	0.598984771573604	0.1035856573705179
2001.007080078125	-5.543999221917309	-32.61594540124813	5.600077808269097	5.220213022723128	1.613798910658496	-0.7468600873463335	3472.082051282051	3624.908424908425	0.217948717948718	0.5888324873096447	0.08764940239043824
2020.538330078125	-6.109208584024928	-32.45123779167329	5.07914159750718	5.23135072381432	1.602773711598527	-0.3719283179532371	3458.974358974359	3620.51282051282	0.2115384615384615	0.583756345177665	0.102257636122178
2040.069580078125	-6.104945749661743	-32.10938940822626	5.505425033825667	4.856553538732677	2.372837963540651	-1.5074540463511	3476.451282051281	3623.443223443223	0.2141025641025641	0.5761421319796954	0.08764940239043824
2059.600830078125	-5.190251067093627	-33.07476949915851	4.974893290637276	4.512244404112785	2.737219890888405	-1.491483984492469	3489.558974358974	3626.373626373626	0.2064102564102564	0.5875634517766497	0.09561752988047809
2079.132080078125	-6.017428067363248	-32.92547457504004	6.257193263675233	4.178510460427965	1.589124510458367	-0.6188484555388298	3477.907692307692	3624.908424908425	0.2141025641025641	0.5875634517766497	0.08499335989375829
2098.663330078125	-6.350893748622659	-32.17790500619881	4.910625137734178	4.525744647859686	1.597349310525077	-0.6615189994746644	3470.625641025641	3626.373626373626	0.2115384615384615	0.5786802030456852	0.099601593625498
2118.194580078125	-5.915952911223473	-32.63873371351045	4.404708877652652	3.834763835964194	3.454958546523944	-1.084612091382111	3483.733333333333	3623.443223443223	0.2051282051282051	0.58248730964467	0.08897742363877821
2137.725830078125	-4.836010454870588	-32.76486020981147	4.398954512941164	4.201348372766472	3.068526221056252	-0.3507186144545491	3470.625641025641	3621.978021978022	0.208974358974359	0.5901015228426395	0.1035856573705179
2157.257080078125	-5.429458555400841	-32.99624685904515	5.054144459915813	3.478191979940866	0.8274614554960214	-0.480106403512753	3476.451282051281	3626.373626373626	0.2102564102564103	0.583756345177665	0.09163346613545816
2176.788330078125	-4.902306301115539	-33.0086706358733	5.769369888446087	3.824863657216466	-0.6657658531550919	-0.0410432497466755	3470.625641025641	3617.582417582417	0.2102564102564103	0.5875634517766497	0.09296148738379813
2196.319580078125	-5.543198978643354	-32.61675364695482	5.680102135664626	3.133320335164853	-0.3096087258740474	0.01759735604778967	3479.364102564102	3620.51282051282	0.217948717948718	0.58248730964467	0.09561752988047809
2215.850830078125	-5.901656257348387	-32.38394256469351	5.834374265161223	3.495179786655716	1.561649711264979	-0.1585755982740645	3480.820512820513	3620.51282051282	0.2064102564102564	0.5786802030456852	0.09163346613545816
2235.382080078125	-5.221521496381054	-33.89087867327052	5.847850361894631	3.492817244000009	2.690495092568339	-0.6136088138987725	3486.646153846154	3626.373626373626	0.2051282051282051	0.5786802030456852	0.09561752988047809
2254.913330078125	-4.900151799993352	-32.3954620666221	5.984820000664817	3.492254733843888	1.189042983850516	-0.1318751161968605	3461.887179487179	3619.047619047619	0.2102564102564103	0.5875634517766497	0.08897742363877821
2274.444580078125	-5.537274100557339	-32.43043008151401	6.272589944266133	3.128032739697317	0.4466299280148485	-0.4107353774997146	3482.276923076923	3624.908424908425	0.2012820512820513	0.5799492385786802	0.09030544488711818
2293.975830078125	-5.665326566968666	-32.26725093659241	5.467343303133382	3.475266927129038	0.454854728081558	-0.4534059214355491	3476.451282051281	3624.908424908425	0.2051282051282051	0.5862944162436548	0.09561752988047809
2313.507080078125	-5.949701016801416	-32.26003274226134	5.029898319858466	3.145020546412167	1.180818183783806	-0.08920457226102602	3467.71282051282	3620.51282051282	0.2038461538461538	0.58248730964467	0.08233731739707835
2333.038330078125	-5.264964857008838	-33.27161626365184	5.503514299116161	3.478754490096987	2.328913564213844	-0.9618401012146651	3482.276923076923	3627.838827838828	0.2	0.5875634517766497	0.09163346613545816
2352.569580078125	-5.742641147524232	-32.96147090253898	5.735885247576801	2.800711411792275	1.54520011113156	-0.07323451040239537	3470.625641025641	3619.047619047619	0.2076923076923077	0.5748730964467005	0.09030544488711818
2372.100830078125	-6.05780895853878	-32.9631514134143	6.219104146121959	3.481117032752695	1.200068182910485	-0.5068068855899569	3486.646153846154	3626.373626373626	0.2115384615384615	0.5901015228426395	0.09428950863213811
2391.632080078125	-6.341383165097574	-32.95674146478991	5.861683490242571	3.119820091417952	0.8302618544892809	-0.8123676289700149	3488.102564102564	3626.373626373626	0.2128205128205128	0.5748730964467005	0.09428950863213811
2411.163330078125	-5.660571275206125	-33.15666916588796	5.942872479387579	3.467054278849673	0.8384866545559904	-0.8550381729058494	3458.974358974359	3621.978021978022	0.2115384615384615	0.5774111675126903	0.08632138114209827
2430.694580078125	-6.182121826573741	-33.14990310900667	5.787817342626004	2.773148414142352	2.323489163140394	-1.251430782736092	3485.189743589744	3627.838827838828	0.2025641025641026	0.5901015228426395	0.07702523240371846
2450.225830078125	-6.138309122896438	-32.69261547818228	6.169087710356255	3.470541841817622	2.712545490688277	-1.363472352684966	3470.625641025641	3626.373626373626	0.2025641025641026	0.5786802030456852	0.08764940239043824
2469.757080078125	-5.065876641883748	-33.04192613015895	5.412335811625194	3.470541841817622	2.712545490688277	-1.363472352684966	3474.994871794872	3627.838827838828	0.208974358974359	0.5786802030456852	0.08897742363877821
2489.288330078125	-5.748519857729058	-33.26322571292442	5.148014227094267	3.095182146579858	1.981157633912579	-2.017264383380916	3469.169230769231	3621.978021978022	0.2128205128205128	0.58248730964467	0.07968127490039841
2508.819580078125	-6.313898502067706	-32.6752702052193	4.610149793229448	3.430716122764265	0.4989555243214341	-1.953132999007935	3460.430769230769	3620.51282051282	0.2243589743589744	0.581218274111675	0.08764940239043824
2528.350830078125	-5.699182397602717	-33.61921039380587	6.081760239728261	3.072344234241351	0.5017559233146937	-2.285394224465197	3477.907692307692	3620.51282051282	0.2076923076923077	0.583756345177665	0.08366533864541832
2547.882080078125	-5.466238351843576	-33.03756080309952	5.376164815642416	3.769737661916621	0.8908122508625761	-2.39743579441407	3479.364102564102	3620.51282051282	0.2	0.5901015228426395	0.09030544488711818
2567.413330078125	-5.745426609689345	-32.99711912421376	5.457339031065444	3.783800415819643	1.25239377921707	-2.049204507098177	3467.71282051282	3620.51282051282	0.208974358974359	0.5774111675126903	0.08897742363877821
2586.944580078125	-6.186123042943517	-33.14586188047319	5.387695705648363	3.781437873163935	2.381239160520429	-2.504237722722885	3474.994871794872	3619.047619047619	0.2051282051282051	0.5786802030456852	0.08897742363877821
2606.475830078125	-5.746288410138221	-32.84240255191424	5.371158986177951	3.795500627066957	2.742820688874924	-2.156006435406993	3466.25641025641	3621.978021978022	0.2115384615384615	0.583756345177665	0.09163346613545816
2626.007080078125	-5.235541142969002	-32.83825729175516	4.445885703099895	3.80663832815815	2.731795489814955	-1.781074666013896	3466.25641025641	3620.51282051282	0.2	0.5913705583756345	0.08233731739707835
2645.538330078125	-6.420375178669701	-33.45695953108206	5.962482133029979	4.142734814498677	2.751045488941633	-2.198676979342827	3480.820512820513	3620.51282051282	0.2102564102564103	0.5862944162436548	0.08233731739707835
2665.069580078125	-5.867015572734111	-32.99431427153854	5.298442726588882	6.606224719638182	1.27409138351087	-0.8908417810124676	3463.343589743589	3624.908424908425	0.2038461538461538	0.5862944162436548	0.09428950863213811
2684.600830078125	-5.539013090748818	-33.08251985526677	6.098690925118159	6.930620994731397	-0.1970855270203054	-1.201642166032583	3498.297435897436	3626.373626373626	0.2064102564102564	0.58248730964467	0.07702523240371846
2704.132080078125	-5.834252381954883	-32.91048201730249	4.574761804511648	7.932497837973203	-2.38600109318702	-1.919314444163056	3474.994871794872	3620.51282051282	0.2038461538461538	0.5786802030456852	0.08632138114209827
2723.663330078125	-6.385811440524074	-32.87494582968607	5.418855947592682	6.549973704026096	-0.1722347299071077	-2.283766930276038	3467.71282051282	3620.51282051282	0.1935897435897436	0.5888324873096447	0.08897742363877821
2743.194580078125	-6.827769795864097	-32.86856789079265	5.223020413590346	5.798016791207101	2.4967391552805	-5.009851602696471	3483.733333333333	3613.186813186813	0.2025641025641026	0.581218274111675	0.08897742363877821
2762.725830078125	-6.338936267394518	-33.07459744685461	6.106373260548129	5.101748383844073	5.110587045168265	-5.861277428151422	3467.71282051282	3611.721611721612	0.2051282051282051	0.5850253807106599	0.09428950863213811
2782.257080078125	-6.551844068289067	-32.75186826025881	4.815593171093243	5.42085706346975	4.395648788525985	-6.600410546719042	3464.8	3610.25641025641	0.2141025641025641	0.5850253807106599	0.09030544488711818
2801.788330078125	-6.420806078894138	-32.3796012449323	5.919392110586233	6.070774633968419	4.45619918489928	-8.185478712163096	3464.8	3602.930402930403	0.2128205128205128	0.583756345177665	0.09163346613545816
2821.319580078125	-7.344518887587981	-32.86665130815153	5.548111241201941	6.077187249748198	6.702864748446029	-8.720613374019417	3448.779487179487	3601.465201465201	0.2256410256410256	0.5786802030456852	0.08366533864541832
2840.850830078125	-6.983399261067673	-32.75599751555242	5.660073893232773	6.378070600315558	9.385487834773796	-11.19977790885426	3467.71282051282	3597.069597069597	0.2282051282051282	0.581218274111675	0.099601593625498
2860.382080078125	-7.661856589018447	-33.44306330662982	5.814341098155377	8.44032534303574	12.45979125072964	-13.16913210665928	3453.148717948718	3594.139194139194	0.2128205128205128	0.58248730964467	0.08764940239043824
2879.913330078125	-8.104784469863455	-33.01262922389945	5.521553013654612	10.175821268007	18.13411695852001	-15.2827191350689	3525.969230769231	3692.307692307692	0.217948717948718	0.5850253807106599	0.08233731739707835
2899.444580078125	-5.454511710021385	-33.35709701903224	6.548828997861502	10.83507650709727	20.81393964585452	-17.42962244444648	3533.251282051282	3687.912087912088	0.2166666666666667	0.5850253807106599	0.09694555112881806
2918.975830078125	-5.420040307638137	-33.54422082774702	5.99596923618626	12.53963437348189	18.25784175334679	-17.83100355897832	3531.794871794872	3692.307692307692	0.2153846153846154	0.5748730964467005	0.09827357237715803
2938.507080078125	-5.777758900244137	-33.15830966459957	6.224109975586424	15.26305688982315	14.24701655044131	-18.62852614640194	3528.882051282051	3687.912087912088	0.217948717948718	0.581218274111675	0.1062416998671979
2958.038330078125	-6.705442146720295	-33.71827266258173	5.455785327970471	16.9594021079284	12.07455058440801	-19.43153951240409	3537.620512820513	3683.516483516483	0.2307692307692308	0.5723350253807106	0.102257636122178
2977.569580078125	-7.373250083409973	-33.03147895421746	6.674991659002798	19.32265270324717	10.69682327051697	-21.49809023861159	3525.969230769231	3680.58608058608	0.2269230769230769	0.567258883248731	0.102257636122178
2997.100830078125	-6.891341737118854	-32.92282176858687	6.865826288114663	20.33094216226875	10.75457326789701	-22.75089717859839	3528.882051282051	3677.655677655677	0.2320512820512821	0.5786802030456852	0.1155378486055777
3016.632080078125	-7.170006758977807	-32.19060086574011	6.999324102219381	22.71939321258173	9.727402283300489	-24.09428484809691	3524.51282051282	3671.794871794872	0.2294871794871795	0.5723350253807106	0.1128818061088977
3036.163330078125	-6.247709765307116	-33.16365929088596	7.229023469288509	26.12794643519483	3.113754389567211	-24.41531337945868	3495.384615384615	3668.864468864469	0.2423076923076923	0.5710659898477157	0.1155378486055777
3055.694580078125	-7.043123878889952	-32.42952180539807	7.687612111004821	27.79144106018262	2.475816129431645	-26.82485575134202	3523.05641025641	3667.399267399267	0.25	0.5723350253807106	0.1155378486055777
3075.225830078125	-9.044824703632981	-32.67703474163838	7.517529636701864	28.11932489824378	2.878698055032756	-27.64409031614125	3511.405128205128	3665.934065934066	0.2423076923076923	0.5736040609137055	0.1142098273572377
3094.757080078125	-10.23972333743304	-32.13172558303877	8.027666256695881	26.7033876610231	5.125540015492575	-29.13333811043352	3525.969230769231	3667.399267399267	0.2641025641025641	0.5520304568527918	0.1261620185922975
3114.288330078125	-9.387631070614697	-31.57541569560223	9.236892938530234	27.36849300573703	8.55057615765601	-31.33364238396551	3515.774358974359	3661.538461538461	0.2602564102564103	0.5507614213197969	0.1367861885790173
3133.819580078125	-8.706126662505403	-32.50681207086954	9.387333749459835	28.02313566154712	6.353435791422587	-32.00864411816015	3508.492307692307	3658.608058608058	0.2653846153846154	0.5571065989847716	0.1341301460823373
3153.350830078125	-8.70966620006328	-31.65708329178224	9.033379993671922	31.14183073265283	4.180793428476221	-31.85754435172634	3511.405128205128	3660.07326007326	0.258974358974359	0.5482233502538071	0.1394422310756972
3172.882080078125	-10.05944022367415	-30.88458075870449	10.05597763258492	32.52727991941176	2.339633792610774	-31.51979234769056	3491.015384615384	3657.142857142857	0.2615384615384616	0.549492385786802	0.147410358565737
3192.413330078125	-10.49568915104038	-31.15320011129537	10.43108489596222	32.84402605638173	2.753540917271853	-32.71395868188289	3492.471794871794	3655.677655677655	0.2743589743589744	0.5482233502538071	0.1447543160690571
3211.944580078125	-11.86568470661235	-30.82181229247537	9.431529338765136	33.53140680327805	6.15652666131535	-34.16439941662868	3498.297435897436	3648.351648351648	0.2641025641025641	0.5444162436548223	0.1580345285524568
3231.475830078125	-11.13547379941964	-31.5316330010477	10.4526200580361	32.80937543076468	6.918366113190765	-35.25725460109071	3499.753846153846	3649.81684981685	0.2923076923076923	0.5393401015228426	0.1713147410358566
3251.007080078125	-10.73311148127492	-30.53801894237386	10.6888518725077	34.1807618636206	4.715624948970823	-35.26773388437082	3504.123076923077	3655.677655677655	0.2846153846153846	0.5355329949238579	0.1606905710491368
3270.538330078125	-9.647274925423483	-30.40086770993766	11.27250745765174	34.51978340277295	5.107481675511965	-35.71203667977696	3501.210256410256	3643.956043956044	0.2769230769230769	0.5241116751269035	0.1819389110225763
3290.069580078125	-12.56536325504492	-30.45052157394309	11.46367449550817	34.8564423992696	6.628183783356466	-36.6113726908078	3501.210256410256	3649.81684981685	0.2974358974358974	0.5304568527918782	0.1872509960159363
3309.600830078125	-13.20239321984653	-28.71635207872424	11.76067801534743	35.8969074392213	10.7846077822956	-38.15788493364384	3483.733333333333	3639.560439560439	0.2948717948717949	0.5088832487309645	0.1899070385126162
3329.132080078125	-12.32743307811729	-29.33544643725539	11.25669218827139	35.90152002250149	15.66157083586353	-39.62978650882678	3495.384615384615	3639.560439560439	0.2987179487179487	0.5241116751269035	0.201859229747676
3348.663330078125	-12.00109263985483	-29.26812720297739	11.89073601451764	36.9508727229199	13.8011612008714	-38.87443219146207	3479.364102564102	3641.025641025641	0.3166666666666667	0.515228426395939	0.201859229747676
3368.194580078125	-11.68306242020651	-29.42318387866834	11.6937579793488	37.62779078091236	11.58197043651804	-38.79957038687051	3498.297435897436	3645.421245421245	0.3141025641025641	0.5126903553299492	0.2151394422310757
3387.725830078125	-12.23205146672281	-28.81332032630227	12.79485332771932	37.60911544372915	6.343425854595616	-37.67590009900346	3491.015384615384	3642.490842490842	0.3179487179487179	0.5063451776649746	0.2124833997343957
3407.257080078125	-12.74475317419573	-28.93087621713924	13.52468258042753	36.91115950589776	4.452917418329911	-37.08212483135268	3505.579487179487	3649.81684981685	0.3333333333333333	0.4911167512690355	0.2284196547144754
3426.788330078125	-13.06170614328294	-28.46921525682268	13.82938567170574	37.24669348208217	2.970715308738766	-37.0179934469797	3499.753846153846	3645.421245421245	0.3346153846153846	0.4936548223350253	0.2324037184594953
3446.319580078125	-13.30445316914804	-28.54096383762202	13.55468308519636	37.98571266131038	2.943064112632309	-35.60360745727898	3499.753846153846	3649.81684981685	0.3217948717948718	0.4936548223350253	0.2363877822045153
3465.850830078125	-15.05514291729301	-28.37892103814944	14.48570827069891	38.70301894851234	4.438915423363613	-35.42081870406637	3505.579487179487	3651.282051282051	0.3358974358974359	0.4784263959390863	0.2390438247011952
3485.382080078125	-14.89955961997063	-27.37606016844505	14.04403800293751	38.72349431819514	7.047162515264857	-35.6077220786068	3498.297435897436	3648.351648351648	0.3423076923076923	0.483502538071066	0.248339973439575
3504.913330078125	-13.93263429005495	-27.93111629012143	14.73657099450541	40.49476588909568	11.55956724457197	-36.14148058321242	3493.928205128205	3649.81684981685	0.35	0.4758883248730964	0.2443559096945551
3524.444580078125	-13.60406240420165	-26.44297389483326	15.59375957983535	41.18282164817935	9.329351281158637	-35.69168700922777	3470.625641025641	3646.886446886447	0.3512820512820513	0.4682741116751269	0.2536520584329349
3543.975830078125	-14.69128399648878	-26.11718777893095	14.87160035112212	39.44665071102074	9.288227280825089	-35.4783342895486	3488.102564102564	3649.81684981685	0.3576923076923077	0.4619289340101522	0.2656042496679947
3563.507080078125	-13.99997660827353	-26.55848516410527	16.00233917264695	38.74689474068977	10.02801633458057	-35.82132593522443	3514.317948717948	3652.747252747252	0.3666666666666666	0.450507614213198	0.2762284196547145
3583.038330078125	-14.0638101675217	-25.95862865388001	17.61898324783041	37.36560812908612	8.110033099121472	-34.76727781030888	3507.035897435897	3651.282051282051	0.3641025641025641	0.4467005076142132	0.2802124833997344
3602.569580078125	-15.07040848110133	-25.21119512639534	16.95915188986682	38.71651919225924	3.299044843000285	-34.59085371904857	3499.753846153846	3646.886446886447	0.3641025641025641	0.4454314720812183	0.2868525896414342
3622.100830078125	-15.75157432474857	-25.12629454738856	16.84256752514303	40.74716086420542	3.77612636611485	-36.74823631170626	3501.210256410256	3645.421245421245	0.3730769230769231	0.4479695431472081	0.2815405046480743
3641.632080078125	-15.42998917824865	-24.16955708381502	17.00108217513509	41.76186293900678	6.080541927041635	-38.53617791354937	3491.015384615384	3642.490842490842	0.3730769230769231	0.4276649746192893	0.2868525896414342
3661.163330078125	-16.50111356929429	-24.09079837193584	17.88864307057038	42.78477766208751	8.001325561493987	-39.92248726392219	3476.451282051281	3636.630036630037	0.3807692307692308	0.4149746192893401	0.3054448871181938
3680.694580078125	-16.45971698473259	-23.59260892234316	18.02830152674105	43.42940763711864	8.81811461175618	-41.93588816291374	3496.841025641026	3638.095238095238	0.3858974358974359	0.4251269035532995	0.3134130146082337
3700.225830078125	-15.85571182870362	-22.75650028377857	18.42881712963818	43.07103574859573	8.820915010749438	-42.26814938837101	3499.753846153846	3638.095238095238	0.3769230769230769	0.4073604060913705	0.3014608233731739
3719.757080078125	-15.01254535224862	-22.88348304038274	18.74546477513779	43.75965401783552	8.09215115605393	-42.30008951208827	3509.948717948718	3639.560439560439	0.3858974358974359	0.4048223350253807	0.3293492695883134
3739.288330078125	-17.0893908671313	-23.25048445496661	19.06091328686998	45.86713457710781	5.489152068313067	-40.86948232359046	3495.384615384615	3636.630036630037	0.3948717948717949	0.3934010152284264	0.3346613545816733
3758.819580078125	-16.9299910249639	-21.78993983401723	19.00089750361033	46.22730649813032	2.856054179298625	-39.60045418480658	3474.994871794872	3641.025641025641	0.3794871794871795	0.3845177664974619	0.3346613545816733
3778.350830078125	-17.20622453841353	-21.13709783158696	19.37754615864761	45.16917863927642	3.598643632047361	-40.27570705593968	3509.948717948718	3639.560439560439	0.3987179487179487	0.3769035532994924	0.3306772908366534
3797.882080078125	-19.03525994979397	-21.09131052763117	20.47400502060318	45.89177252194591	4.338256288889769	-39.66458556917957	3492.471794871794	3641.025641025641	0.4064102564102564	0.3718274111675127	0.3373173970783532
3817.413330078125	-18.16260820212421	-19.93884263893147	19.7391797875785	47.32289753338186	5.45590007422009	-38.79057388297522	3480.820512820513	3638.095238095238	0.408974358974359	0.3604060913705584	0.3359893758300133
3836.944580078125	-17.67897625493535	-19.13961859789992	20.10237450646535	46.29525772498971	5.792807202374457	-38.31433096385182	3504.123076923077	3646.886446886447	0.3974358974358974	0.348984771573604	0.3399734395750332
3856.475830078125	-17.51406704561264	-19.45386920700816	20.59329543873645	46.30054532045725	5.036568548485561	-37.88599823030432	3495.384615384615	3643.956043956044	0.4205128205128205	0.3375634517766497	0.3625498007968127
3876.007080078125	-17.90807297726201	-18.34053860065768	21.19270227379892	47.36744833774663	5.411799277980214	-37.29084680540284	3511.405128205128	3646.886446886447	0.417948717948718	0.3299492385786802	0.3585657370517928
3895.538330078125	-17.59315139494714	-17.72322478341108	20.68486050528591	47.03900198952935	3.50746524366128	-35.98987854290169	3498.297435897436	3648.351648351648	0.4166666666666667	0.3286802030456852	0.3678618857901726
3915.069580078125	-17.98768056258333	-17.3016734010216	21.23194374166669	47.04428958499688	2.751226589772385	-35.56154580935419	3493.928205128205	3645.421245421245	0.4243589743589744	0.3134517766497462	0.3784860557768924
3934.600830078125	-19.26549547985665	-17.44492648842171	21.45045201433543	45.6664905363612	2.707302190445578	-35.01593186421776	3504.123076923077	3654.212454212454	0.4333333333333334	0.3121827411167513	0.3718459495351925
3954.132080078125	-19.05911273950358	-16.45337305617831	22.08872604964217	45.67234064198485	3.452515645274505	-35.06933282837216	3502.666666666666	3652.747252747252	0.4346153846153846	0.2956852791878172	0.3784860557768924
3973.663330078125	-18.65514993481095	-15.46137548891786	22.48500651890482	45.36493217360648	5.657880811574638	-34.43700163811336	3493.928205128205	3654.212454212454	0.441025641025641	0.2918781725888325	0.3837981407702523
3993.194580078125	-19.06616103603188	-14.83086966130011	21.38389639681232	45.37370733204197	6.775700993818028	-34.51710308434497	3508.492307692307	3657.142857142857	0.4358974358974359	0.2791878172588833	0.397078353253652
4012.725830078125	-18.81228755080006	-14.57805111215348	22.77124491999414	44.32030455849949	5.260599683960046	-34.28228952422865	3517.230769230769	3655.677655677655	0.4307692307692308	0.2779187817258883	0.3904382470119522
4032.257080078125	-19.61464223585508	-13.49074980332483	22.53577641449154	43.96485772278841	5.636006810367769	-34.64125123176311	3525.969230769231	3655.677655677655	0.4487179487179487	0.2677664974619289	0.4050464807436919
4051.788330078125	-18.81628876716984	-12.57400988362	22.3711232830165	43.64811158581843	5.222099685706689	-33.44708489757079	3508.492307692307	3657.142857142857	0.4269230769230769	0.2474619289340101	0.4090305444887118
4071.319580078125	-18.97344177245267	-12.65220842520742	22.65582275473282	43.3120150994779	5.202849686580011	-33.02948258424186	3499.753846153846	3658.608058608058	0.4358974358974359	0.248730964467005	0.4090305444887118
4090.850830078125	-20.29196075606985	-12.02511963636945	22.80392439301547	42.63104696836137	4.046529506083263	-32.11417651135238	3495.384615384615	3657.142857142857	0.4435897435897436	0.2246192893401015	0.4116865869853917
4110.382080078125	-19.08265774333859	-11.58497721768956	23.73422566614097	43.00055655797548	4.032703908030035	-31.40698351650202	3505.579487179487	3663.003663003663	0.4397435897435897	0.2258883248730964	0.4143426294820717
4129.913330078125	-19.16651277372937	-10.92643748314872	23.34872262706324	43.37422872274487	0.2597354386522645	-29.30799039270034	3502.666666666666	3667.399267399267	0.4307692307692308	0.217005076142132	0.4116865869853917
4149.444580078125	-18.64343868228249	-9.742434623202374	23.65613177175091	42.31497584357875	-2.000579326034645	-29.01977586842961	3520.14358974359	3667.399267399267	0.4461538461538462	0.2195431472081218	0.4143426294820717
4168.975830078125	-20.28026489283512	-10.26770168900576	23.97351071648858	42.65343487257498	-3.110174708211325	-28.98234496613383	3525.969230769231	3667.399267399267	0.4384615384615385	0.2119289340101523	0.4236387782204515
4188.507080078125	-20.49083352108272	-9.793488912937223	22.91664789172831	40.94010184775488	-1.671896997946988	-28.50086240537038	3514.317948717948	3660.07326007326	0.4423076923076923	0.1979695431472081	0.4169986719787516
4208.038330078125	-20.56120753016609	-8.840872702224552	23.87924698339064	39.56579036208714	0.1582374388584915	-28.46368264001306	3508.492307692307	3663.003663003663	0.4461538461538462	0.1941624365482233	0.4249667994687915
4227.569580078125	-20.92374297170955	-8.411634983188735	23.62570282904464	39.94756267310468	3.13629085918094	-28.34502527117343	3504.123076923077	3665.934065934066	0.4551282051282051	0.1624365482233502	0.4276228419654714
4247.100830078125	-19.76182297880094	-8.502097252949511	23.81770211990599	38.56155097618963	3.475998386328565	-28.2010435775073	3515.774358974359	3664.468864468864	0.4512820512820513	0.1725888324873096	0.4262948207171314
4266.632080078125	-20.15619825349983	-7.46531668704209	24.38017465001668	37.18667698036577	3.804680714416222	-27.68213011444806	3517.230769230769	3668.864468864469	0.4653846153846154	0.1510152284263959	0.4382470119521912
4286.163330078125	-20.80427773119952	-7.104602568411567	23.57222688004845	37.2124399455161	5.65668915242857	-27.44070075544099	3505.579487179487	3665.934065934066	0.4666666666666667	0.1573604060913706	0.4342629482071713
4305.694580078125	-20.99233182272026	-7.92236024366792	24.76681772797392	36.51032143252942	7.525323587487407	-28.23872561674153	3523.05641025641	3667.399267399267	0.4576923076923077	0.1484771573604061	0.4395750332005312
4325.225830078125	-21.19769886968716	-6.453401064692897	24.23011303128459	35.13072235139414	10.11169667818178	-28.62987858493172	3517.230769230769	3663.003663003663	0.4461538461538462	0.1256345177664975	0.4409030544488711
4344.757080078125	-21.07784889683387	-6.10829569112087	24.21511031661317	35.1230722132709	11.99678071337404	-29.51324453410393	3505.579487179487	3667.399267399267	0.4564102564102564	0.1345177664974619	0.4448871181938911
4364.288330078125	-20.3165060639973	-4.655713490747341	24.34939360026986	34.09363237237917	14.96398533154959	-29.97376852830716	3525.969230769231	3667.399267399267	0.45	0.116751269035533	0.4395750332005312
4383.819580078125	-20.31641372823492	-4.886575980636574	24.35862717650781	34.10713261612607	13.82411475118626	-29.14380354328935	3495.384615384615	3665.934065934066	0.4602564102564102	0.1142131979695431	0.4608233731739708
4403.350830078125	-19.30810720305126	-4.904965571072066	25.18927969487339	33.07128015945456	14.54465380581505	-29.06919287563625	3531.794871794872	3668.864468864469	0.4461538461538462	0.1040609137055838	0.4608233731739708
4422.882080078125	-18.46849565344788	-4.143742466940719	25.15043465521211	32.39559962380555	12.63209497142941	-27.72555406919928	3520.14358974359	3665.934065934066	0.4602564102564102	0.1040609137055838	0.4621513944223107
4442.413330078125	-19.48260394236771	-3.619493095131689	23.73960576322894	33.47307783203001	11.49484839314628	-26.27373717720278	3507.035897435897	3671.794871794872	0.458974358974359	0.1065989847715736	0.451527224435591
4461.944580078125	-19.83442843547515	-2.970304203247018	24.55715645248463	31.7480445959626	11.44269919375276	-25.68545268813051	3524.51282051282	3674.725274725275	0.4461538461538462	0.08756345177664975	0.4555112881806109
4481.475830078125	-19.08007234199197	-3.049126934588114	23.99276580080344	32.46186332019659	11.06449166835178	-24.99422975513879	3515.774358974359	3673.260073260073	0.4512820512820513	0.08375634517766496	0.4634794156706507
4501.007080078125	-19.91117361216271	-2.088176190177198	24.88263878372871	30.74031764709713	12.88640130509054	-24.91437944584563	3530.338461538461	3676.190476190476	0.4576923076923077	0.0748730964467005	0.4661354581673307
4520.538330078125	-18.71282777656715	-2.252351637974868	24.71722234328466	29.69569003199014	12.48912017747595	-24.75966733196093	3518.687179487179	3673.260073260073	0.4474358974358975	0.06725888324873096	0.4648074369189907
4540.069580078125	-19.10418674969499	-1.757079075115758	25.58132503050157	29.37073124674081	12.45884497928931	-23.9671332492389	3509.948717948718	3673.260073260073	0.4384615384615385	0.06345177664974619	0.4727755644090305
4559.600830078125	-18.74748385047516	-1.603502849481627	25.25161495248401	27.61003486677533	6.433962942204405	-22.57670927753827	3520.14358974359	3679.120879120879	0.4487179487179487	0.05710659898477157	0.4661354581673307
4579.132080078125	-18.26031236572841	-0.6540075875373805	25.96876342715877	28.35377913131496	4.148620983491229	-20.25225685658814	3523.05641025641	3683.516483516483	0.4487179487179487	0.04695431472081218	0.4913678618857901
4598.663330078125	-18.72535404609155	0.06645374039861962	27.46459539084497	29.7867041752505	2.635967278800368	-18.44147825705718	3517.230769230769	3683.516483516483	0.4448717948717949	0.04441624365482233	0.4727755644090305
4618.194580078125	-19.82019333877499	-0.5616047278372625	25.98066612250123	29.47873319671601	3.339880336382679	-17.32741336909646	3527.425641025641	3687.912087912088	0.4384615384615385	0.03553299492385786	0.4661354581673307
4637.725830078125	-19.42435608117176	-0.2537080503242216	25.56439188282468	28.41588025255071	6.340160551738134	-18.91273267147898	3540.533333333333	3690.84249084249	0.4384615384615385	0.03299492385786802	0.4767596281540504
4657.257080078125	-20.89425708492305	0.8662765788492008	26.57429150769526	28.86031619496011	13.01120564902531	-17.9362848152321	3530.338461538461	3690.84249084249	0.45	0.02284263959390863	0.4820717131474103
4676.788330078125	-20.22261721409462	1.598689540081723	25.73827859053767	27.14630815795267	20.08268506674648	-19.35503656319909	3537.620512820513	3686.446886446886	0.4371794871794872	0.01903553299492386	0.4767596281540504
4696.319580078125	-18.69139049040139	1.149073626074634	26.86095095986103	27.20132165122129	25.66076077890346	-19.38061202496405	3523.05641025641	3687.912087912088	0.4461538461538462	0.01142131979695431	0.4807436918990704
4715.850830078125	-17.34430959319326	2.110060381432878	25.56904068067462	26.84643732566633	27.537620014029	-20.22130743020043	3543.446153846154	3689.377289377289	0.4230769230769231	0.006345177664974619	0.4860557768924302
4735.382080078125	-17.34015448388618	1.721248336417348	25.98455161138217	25.46751325671839	24.49079139726655	-18.71222608966017	3541.989743589743	3690.84249084249	0.4320512820512821	0.001269035532994924	0.4900398406374502
4754.913330078125	-17.17743055427312	1.870743321354307	26.25694457268856	27.23945983980629	23.36999441911683	-17.34575028553535	3528.882051282051	3695.238095238095	0.4205128205128205	-0.006345177664974619	0.4887118193891102
4774.444580078125	-17.18440190433277	1.300861307991476	25.55980956672367	25.8411854214878	20.71782292788878	-16.61323296585848	3543.446153846154	3696.703296703297	0.4192307692307692	-0.01015228426395939	0.4887118193891102
4793.975830078125	-16.70333996919679	1.525757984273373	25.66600308032103	24.77551992654189	16.21084259965512	-15.78988377973144	3450.235897435897	3589.743589743589	0.4166666666666667	-0.01903553299492386	0.4913678618857901
4813.507080078125	-17.34338623556946	2.801435482540538	25.66137644305407	24.04651342809262	13.22456437926596	-15.86587060463523	3546.358974358974	3698.168498168498	0.417948717948718	-0.02030456852791878	0.49800796812749
4833.038330078125	-16.17734191194123	3.399115331060642	26.26580880587698	23.71626704737575	13.95052783496821	-15.50166925546071	3448.779487179487	3588.278388278388	0.408974358974359	-0.01522842639593909	0.49667994687915
4852.569580078125	-17.29255601395132	3.713173881783139	26.74439860486818	23.03878647922716	14.66826649060375	-15.09479736235035	3441.497435897436	3589.743589743589	0.417948717948718	-0.03045685279187817	0.5086321381142098
4872.100830078125	-16.38124697600378	4.212751753456127	25.87530239962179	23.04463658485082	15.41347994543268	-15.14819832650476	3466.25641025641	3597.069597069597	0.4102564102564102	-0.03299492385786802	0.49535192563081
4891.632080078125	-15.89241344753421	4.006722197394161	26.75865524657957	22.01643426630255	14.24893496486922	-14.19022170967945	3457.517948717949	3592.673992673992	0.4051282051282051	-0.03934010152284264	0.5099601593625498
4911.163330078125	-16.01335606024232	4.393489620844736	26.66439397576863	22.04163472129677	14.59949129416375	-13.46705865297046	3451.692307692307	3600	0.4038461538461539	-0.04441624365482233	0.50199203187251
4930.694580078125	-15.05015493940927	4.149887258034134	26.98450605907273	24.18072835134306	14.59371409926416	-11.84842306961999	3429.846153846153	3598.534798534799	0.391025641025641	-0.03426395939086294	0.5152722443559097
4950.225830078125	-15.98496342888238	5.404813063171204	25.50365711176197	22.44804497715241	16.4266489350629	-12.14350452971993	3469.169230769231	3602.930402930403	0.4064102564102564	-0.04949238578680203	0.5059760956175299
4969.757080078125	-14.62486318917874	4.814188744147451	25.51368108212589	22.84331753191685	18.26483177502202	-11.19488217586249	3458.974358974359	3601.465201465201	0.408974358974359	-0.06218274111675126	0.5126162018592297
4989.288330078125	-15.06785262719867	4.398531153470655	25.21473728013316	22.90541865315259	20.45637134326892	-9.855357990753333	3456.061538461538	3605.860805860806	0.3948717948717949	-0.06345177664974619	0.50199203187251
5008.819580078125	-15.1770224302034	5.350331116043892	26.29775697966027	20.45779153441569	19.664609487033	-9.878194988441178	3456.061538461538	3607.326007326007	0.4025641025641026	-0.07106598984771573	0.5139442231075697
5028.350830078125	-14.37055880372249	5.989649007144325	26.94411962775145	17.3098459351917	18.11118457583473	-9.762289934102949	3476.451282051281	3608.791208791209	0.3871794871794872	-0.06598984771573603	0.5219123505976095
5047.882080078125	-13.93951145763697	6.263521956828721	26.04885423630322	16.24710549305762	13.97681097501553	-8.965641230053105	3470.625641025641	3605.860805860806	0.3782051282051282	-0.06472081218274112	0.5166002656042497
5067.413330078125	-14.73498712839472	7.15156776890944	26.50128716052756	15.91753412452809	9.069572723260954	-6.701205572148139	3454.605128205128	3608.791208791209	0.3846153846153846	-0.07106598984771573	0.5179282868525896
5086.944580078125	-13.49656818749823	6.794610792450134	26.34318125017697	15.55859972584906	7.57092101353639	-6.551733099903489	3472.082051282051	3611.721611721612	0.3884615384615385	-0.07360406091370558	0.5232403718459495
5106.475830078125	-14.89174001204058	7.072965104468681	26.82599879594165	15.22722832481995	5.293980251802993	-5.224064355325141	3466.25641025641	3616.117216117216	0.3794871794871795	-0.08502538071065989	0.5073041168658699
5126.007080078125	-14.36494171151107	6.945514205549255	27.50582884889314	14.51577214324165	4.543342395900616	-5.460254072692161	3491.015384615384	3617.582417582417	0.3756410256410256	-0.07994923857868019	0.5192563081009296
5145.538330078125	-15.12357602865117	5.720965635091529	27.64239713488285	13.4764321236022	3.389822614397128	-4.877209225259949	3480.820512820513	3620.51282051282	0.3756410256410256	-0.08883248730964466	0.5272244355909694
5165.069580078125	-13.96750396735992	7.251794391648907	27.24960326400764	13.83716655478082	2.258176834100509	-4.089914784177979	3458.974358974359	3620.51282051282	0.3756410256410256	-0.08883248730964466	0.5166002656042497
5184.600830078125	-14.61168995374594	6.877806853283397	26.83100462540612	12.45351740052147	1.469038979944776	-3.490899874887137	3482.276923076923	3616.117216117216	0.3782051282051282	-0.07868020304568528	0.5245683930942895
5204.132080078125	-14.72750793164199	7.451706087881485	27.24920683580116	12.04710714466584	-0.3581186609543748	-4.814453998137668	3463.343589743589	3616.117216117216	0.3807692307692308	-0.09263959390862943	0.5232403718459495
5223.663330078125	-14.45758402862163	7.574467561215531	26.24159713783759	10.34727436359264	-0.05971153105336567	-3.50300645235641	3461.887179487179	3621.978021978022	0.382051282051282	-0.08756345177664975	0.5192563081009296
5243.194580078125	-14.89755716507049	7.617301967490423	26.24428349295108	10.71093384758309	-0.8187505839355211	-2.742412493351644	3450.235897435897	3617.582417582417	0.3782051282051282	-0.09137055837563451	0.5152722443559097
5262.725830078125	-15.09839975968079	7.773999141892981	26.16002403192109	8.958337613865757	-0.09261073132020349	-3.332324276613072	3480.820512820513	3620.51282051282	0.3807692307692308	-0.08756345177664975	0.5205843293492696
5282.257080078125	-14.96626913043104	7.414393360196883	27.37308695689643	7.913709998758765	-0.4898918589347953	-3.177612162728364	3458.974358974359	3617.582417582417	0.382051282051282	-0.09517766497461928	0.5152722443559097
5301.788330078125	-14.33345583211142	7.222944236586383	26.65441678885765	7.941835506564808	0.2332711977741935	-2.48114958809658	3485.189743589744	3624.908424908425	0.3846153846153846	-0.09390862944162436	0.5245683930942895
5321.319580078125	-14.88941622868737	8.262925775589624	27.05837713126328	7.640277143810102	3.183849818903254	-1.902219361992183	3464.8	3623.443223443223	0.3871794871794872	-0.08883248730964466	0.5179282868525896
5340.850830078125	-14.36991245338583	7.373611577919686	27.00875466141707	5.915806417898812	4.633152728227559	-1.795668570621827	3479.364102564102	3626.373626373626	0.3833333333333334	-0.08756345177664975	0.5325365205843293
5360.382080078125	-13.73729921588471	7.682364515735861	26.27007841152941	6.248415341271389	2.778343891221952	-1.704836704171642	3482.276923076923	3624.908424908425	0.3871794871794872	-0.09771573604060913	0.5298804780876494
5379.913330078125	-14.38079268405288	7.576908303201095	25.92073159471248	5.925256588521642	0.1177712030141226	0.02446429187700605	3464.8	3626.373626373626	0.3833333333333334	-0.100253807106599	0.5099601593625498
5399.444580078125	-13.97626047549224	7.145253849477934	26.3739524507758	4.146897389653973	-1.008097382382908	-0.8068768503914989	3486.646153846154	3626.373626373626	0.3756410256410256	-0.09517766497461928	0.5192563081009296
5418.975830078125	-15.29017806028417	7.267695225502398	26.98219397158274	3.821938604404638	-1.038372580569555	-0.01434276766947157	3473.538461538461	3619.047619047619	0.3897435897435898	-0.08502538071065989	0.5166002656042497
5438.507080078125	-14.73147836942431	7.378793153118547	26.8521630575695	3.81957606174893	0.09047280073380398	-0.4693759832941797	3489.558974358974	3626.373626373626	0.3730769230769231	-0.09771573604060913	0.5152722443559097
5458.038330078125	-14.41326347825124	7.762011497649131	26.67365217487654	4.51640697926808	-1.021922980436136	-0.09968385554114062	3477.907692307692	3621.978021978022	0.3730769230769231	-0.09010152284263959	0.5219123505976095
5477.569580078125	-14.93125910276724	7.880571693794914	26.87408972327587	4.535757328638638	-1.416580105970538	0.676880165322256	3469.169230769231	3624.908424908425	0.3807692307692308	-0.09771573604060913	0.5179282868525896
5497.100830078125	-15.04483024377872	6.836817007754972	27.51697562212759	3.488767170875939	-0.6850158522817704	0.3765590635822554	3486.646153846154	3623.443223443223	0.3782051282051282	-0.08883248730964466	0.5126162018592297
5516.632080078125	-14.37065113948487	8.220511497033559	26.9348860515135	4.177385440115724	-1.413779706977278	0.3446189398649943	3473.538461538461	3627.838827838828	0.3833333333333334	-0.09137055837563451	0.5112881806108898
5536.163330078125	-14.6915745463544	6.609259522587173	26.84254536456005	3.854789197522096	-2.572900286467285	1.59218623821173	3469.169230769231	3623.443223443223	0.3833333333333334	-0.09263959390862943	0.5245683930942895
5555.694580078125	-14.8486044372874	7.223244327814117	27.13955627126031	2.810724092571226	-1.468729305364054	1.265164654394525	3477.907692307692	3626.373626373626	0.3833333333333334	-0.09010152284263959	0.5073041168658699
5575.225830078125	-15.46347443468969	7.551955332882734	25.65255653103159	2.144943735669949	0.7394362599293384	1.565234619196067	3488.102564102564	3626.373626373626	0.3858974358974359	-0.1053299492385787	0.5219123505976095
5594.757080078125	-15.09590669409654	7.540711914883663	26.40933059034562	0.7560069859430649	0.7065370596625006	1.735916794939405	3486.646153846154	3626.373626373626	0.3807692307692308	-0.08502538071065989	0.5166002656042497
5614.288330078125	-14.62723314041315	7.739659317971124	25.27668595868529	0.05568850545596601	-0.05512599529984514	1.874658846965482	3488.102564102564	3624.908424908425	0.3717948717948718	-0.08883248730964466	0.5152722443559097
5633.819580078125	-13.82433983007758	7.305660151455273	25.56601699224256	-0.6147044347255026	-2.723923483574384	3.646630386949964	3467.71282051282	3626.373626373626	0.3923076923076923	-0.1027918781725888	0.5126162018592297
5653.350830078125	-14.45613743501101	7.9576218862842	26.38625649889874	-1.662819612800443	-4.995263447321262	4.309776680613788	3492.471794871794	3632.234432234432	0.3923076923076923	-0.09137055837563451	0.5046480743691899
5672.882080078125	-14.33380978586721	7.107917114495113	26.61902141327886	-2.708009738063555	-6.893996683653677	4.946222492200407	3488.102564102564	3632.234432234432	0.3858974358974359	-0.09644670050761421	0.5152722443559097
5692.413330078125	-15.25236718116154	7.731044699126997	26.76328188384653	-3.035331065968598	-5.795426500536965	5.283723359297726	3473.538461538461	3633.699633699634	0.3782051282051282	-0.08248730964467005	0.5139442231075697
5711.944580078125	-15.69597219093066	7.854470374378425	26.40278090693417	-3.703473965525583	-2.458415553940212	5.12876010847456	3493.928205128205	3632.234432234432	0.3884615384615385	-0.08121827411167512	0.5192563081009296
5731.475830078125	-16.1294510454255	6.659976325110526	27.05489545744983	-5.058435101822766	-1.022938242669135	5.942503894695276	3482.276923076923	3638.095238095238	0.3884615384615385	-0.08248730964467005	0.5166002656042497
5751.007080078125	-15.49819206577261	7.354712447968797	26.18079342273897	-7.116639771418876	-0.7217307137748664	6.921690215019272	3496.841025641026	3638.095238095238	0.3884615384615385	-0.08121827411167512	0.5139442231075697
5770.538330078125	-15.09870754555539	6.543540774857095	26.12924544446127	-7.12833998266619	-2.21215762343272	7.028492143328087	3498.297435897436	3639.560439560439	0.3807692307692308	-0.07233502538071066	0.5139442231075697
5790.069580078125	-14.89075509724187	6.610431878983517	26.92449027581307	-8.156542301214453	-3.376702603996177	7.986468760153395	3477.907692307692	3641.025641025641	0.3923076923076923	-0.07741116751269035	0.5179282868525896
5809.600830078125	-15.09606058703384	5.92548273136572	26.3939412966157	-10.91157788832971	-1.963099293931968	8.595962952724353	3514.317948717948	3642.490842490842	0.3974358974358974	-0.07233502538071066	0.50199203187251
5829.132080078125	-15.0662213620633	6.319960498760853	25.37786379367019	-10.86995213677677	-2.379806817586307	10.12239051237394	3489.558974358974	3641.025641025641	0.3858974358974359	-0.06472081218274112	0.5192563081009296
5848.663330078125	-14.97665690369873	6.386423472735711	26.33430963012755	-13.26661583536911	-0.9690039065153577	11.06414593040216	3489.558974358974	3645.421245421245	0.3987179487179487	-0.06472081218274112	0.5152722443559097
5868.194580078125	-15.61431782954326	5.698153315530997	26.56821704567419	-13.941733860862	-1.380110632183178	11.92605103913723	3472.082051282051	3645.421245421245	0.3846153846153846	-0.05583756345177664	0.5219123505976095
5887.725830078125	-16.17668017231085	4.744600820187798	26.33198276891559	-15.35002095995944	-1.018352706915614	11.32016919401717	3502.666666666666	3643.956043956044	0.391025641025641	-0.05456852791878172	0.5099601593625498
5907.257080078125	-15.41575285040499	5.236064225062881	26.42471495950153	-17.04344112525286	1.526719986532144	12.0964820779421	3508.492307692307	3649.81684981685	0.3846153846153846	-0.05583756345177664	0.5192563081009296
5926.788330078125	-15.06586740830751	4.434987620852123	25.41325916924899	-17.71563409793392	1.488219988278787	12.93168670459997	3499.753846153846	3648.351648351648	0.3923076923076923	-0.04695431472081218	0.5126162018592297
5946.319580078125	-15.97517583807016	4.933389134912398	26.4824161929842	-19.4242420374426	0.6688069359364059	14.32323569661284	3493.928205128205	3652.747252747252	0.391025641025641	-0.03426395939086294	0.5245683930942895
5965.850830078125	-15.44943939880801	3.460856869719164	27.05606011919931	-20.07708466075309	0.2356498121486474	15.9350043441341	3480.820512820513	3654.212454212454	0.3961538461538461	-0.04187817258883248	0.5179282868525896
5985.382080078125	-16.25131701575741	3.355368647453441	26.86829842425943	-23.54830151475806	3.156306028917199	15.39824238808862	3501.210256410256	3651.282051282051	0.3987179487179487	-0.02791878172588832	0.5086321381142098
6004.913330078125	-15.57549125703445	2.622015400374021	26.45087429655538	-25.27569729348118	4.233002210827042	15.53149366153618	3495.384615384615	3655.677655677655	0.3923076923076923	-0.01903553299492386	0.5112881806108898
6024.444580078125	-14.18549023518534	2.27196052215258	25.45097648146574	-26.65405885227299	2.687625702782412	16.55884130437453	3508.492307692307	3657.142857142857	0.3987179487179487	-0.008883248730964466	0.5059760956175299
6043.975830078125	-14.82135061366348	2.081871812107804	25.86493863365232	-27.68811127644491	0.7778672673900284	17.57021888535424	3517.230769230769	3660.07326007326	0.3923076923076923	-0.005076142131979695	0.5152722443559097
6063.507080078125	-15.57512191398493	2.698565440817085	26.48780860150716	-27.3186016868308	0.7640416693368	18.2774118802046	3502.666666666666	3660.07326007326	0.4	-0.002538071065989848	0.5232403718459495
6083.038330078125	-16.12558833269929	2.002228831410903	27.44116673007055	-28.35501665365843	-0.01687138475222455	18.83375624555961	3515.774358974359	3660.07326007326	0.3974358974358974	0.01269035532994924	0.5298804780876494
6102.569580078125	-15.01385221107217	1.383990733182887	26.6147788927834	-28.67468784344023	-0.8033852368277679	20.05462306182914	3491.015384615384	3661.538461538461	0.3923076923076923	0.01395939086294416	0.5112881806108898
6122.100830078125	-14.22091577377985	-0.1553366069438955	25.90842262201555	-30.0952376639411	-3.43350632993588	20.03727684271981	3520.14358974359	3665.934065934066	0.3948717948717949	0.02791878172588832	0.5192563081009296
6141.632080078125	-14.99484643331573	-0.1352051023511147	28.5153566684272	-28.68222547953225	-6.052955017810163	21.55322511908928	3508.492307692307	3668.864468864469	0.3858974358974359	0.02030456852791878	0.5232403718459495
6161.163330078125	-14.92276421262833	-0.3587773760146161	27.72357873716686	-27.97718191373373	-7.548982725454535	22.32454949831262	3508.492307692307	3665.934065934066	0.3974358974358974	0.04822335025380711	0.5112881806108898
6180.694580078125	-16.35976352195683	-1.501254227438988	28.02364780431712	-28.65995007734986	-6.075005415930101	22.30308865787547	3521.6	3668.864468864469	0.4038461538461539	0.04949238578680203	0.5192563081009296
6200.225830078125	-15.52736955111277	-0.6942798302991802	27.26304488872309	-29.34328075112211	-6.10248021512349	22.76336151514024	3508.492307692307	3673.260073260073	0.4025641025641026	0.04949238578680203	0.5139442231075697
6219.757080078125	-16.05692253521994	-2.67943131635094	26.30774647800623	-28.29167801007922	-1.957081415244325	21.5917810416973	3524.51282051282	3670.32967032967	0.3871794871794872	0.05710659898477157	0.5033200531208499
6239.288330078125	-17.01090546910876	-3.483600860815534	26.90945308912371	-29.98802322818447	0.2153845507889706	22.39479440769944	3520.14358974359	3670.32967032967	0.3897435897435898	0.06725888324873096	0.5086321381142098
6258.819580078125	-16.00286056191851	-2.84788006323153	27.71394380814844	-29.6373014777848	2.097668186987967	21.84368968398449	3504.123076923077	3667.399267399267	0.4	0.08502538071065989	0.4913678618857901
6278.350830078125	-15.20806202008488	-3.042934282791199	27.19379799151249	-29.63437642497297	2.47027491440243	21.81698920190729	3523.05641025641	3667.399267399267	0.4064102564102564	0.08629441624365482	0.50066401062417
6297.882080078125	-15.04813894193065	-3.890610437880807	27.18610580693454	-29.93177221257238	1.661710664206948	23.78771955696301	3523.05641025641	3679.120879120879	0.3961538461538461	0.09137055837563451	0.5152722443559097
6317.413330078125	-15.89079757169257	-4.033371375667433	26.92024283074362	-30.29306915390712	1.291904335785744	23.48215881358296	3515.774358974359	3671.794871794872	0.3974358974358974	0.1078680203045685	0.5152722443559097
6336.944580078125	-14.8170416114191	-4.691711049389783	26.29583885808978	-31.67671830816647	0.5027664816300106	24.0811737228738	3533.251282051282	3679.120879120879	0.3897435897435898	0.1154822335025381	0.4926958831341301
6356.475830078125	-15.77525660108365	-4.914683140597819	26.47433989163474	-31.31013377136419	0.1163341561623186	24.81506719980136	3533.251282051282	3679.120879120879	0.3974358974358974	0.1243654822335025	0.49667994687915
6376.007080078125	-15.53814205672371	-6.760322676555211	26.18579432762944	-33.04922976133462	-0.2973965715856923	25.05512040155774	3534.707692307692	3679.120879120879	0.3935897435897436	0.1218274111675127	0.50066401062417
6395.538330078125	-15.0654518973768	-6.603893583649429	25.45481026231974	-34.84513927707327	-3.658905521469503	24.38398215175246	3523.05641025641	3673.260073260073	0.3884615384615385	0.1319796954314721	0.49933598937583
6415.069580078125	-14.69371365818286	-7.042426128312236	26.62863418171432	-33.07083015132966	-5.908547880922582	26.20549117150199	3508.492307692307	3677.655677655677	0.3974358974358974	0.1421319796954315	0.4913678618857901
6434.600830078125	-14.54310110273523	-6.611467886237415	25.68988972647685	-34.75660017849984	-5.248559222667079	27.86517000459914	3546.358974358974	3684.981684981685	0.3897435897435898	0.1560913705583756	0.50199203187251
6454.132080078125	-15.62158157618378	-7.140664146515925	25.84184238162247	-34.34433981702055	-2.676188126939001	29.13532316369526	3528.882051282051	3687.912087912088	0.3935897435897436	0.1598984771573604	0.4913678618857901
6473.663330078125	-16.3013008262204	-8.672609242440471	25.86991737795982	-36.07353562824326	1.030805544992024	28.3318075238162	3530.338461538461	3687.912087912088	0.3897435897435898	0.184010152284264	0.4913678618857901
6493.194580078125	-15.82103913435838	-9.446904320451878	25.89608656416165	-37.47304756890521	2.510383652502978	27.64582423246453	3541.989743589743	3687.912087912088	0.3858974358974359	0.1852791878172589	0.49535192563081
6512.725830078125	-14.58580577726398	-9.839105395732609	25.41942227360194	-38.1868662931392	2.88859117790396	26.95460129947281	3524.51282051282	3679.120879120879	0.3884615384615385	0.1941624365482233	0.4873837981407702
6532.257080078125	-14.42622126357182	-9.840285754561695	25.37787364281818	-38.22669201219256	0.6750012115371182	26.36494065314984	3533.251282051282	3679.120879120879	0.3858974358974359	0.200507614213198	0.4714475431606905
6551.788330078125	-13.35083403816299	-11.57719608299384	24.91659618370138	-36.16196222478545	-4.514194569985051	27.23258767740188	3528.882051282051	3682.051282051282	0.382051282051282	0.2043147208121827	0.4714475431606905
6571.319580078125	-14.50073499266854	-10.5373345804817	25.92650073314595	-36.48748352019091	-6.045921876889521	28.50685545782581	3521.6	3684.981684981685	0.3897435897435898	0.215736040609137	0.4714475431606905
6590.850830078125	-15.58383225423606	-12.52340634629851	25.6167745763943	-35.77658984876874	-6.796736129704967	29.22477887289475	3501.210256410256	3676.190476190476	0.3858974358974359	0.2284263959390863	0.4767596281540504
6610.382080078125	-14.47166523238449	-13.21900273067628	24.83347676155089	-34.73139972350563	-4.898002893372553	28.58833306130813	3520.14358974359	3684.981684981685	0.3794871794871795	0.25	0.4541832669322709
6629.913330078125	-14.75073037588042	-13.48637770497616	24.92696241195785	-34.37359034513884	-6.402255401083636	29.4023279844673	3523.05641025641	3683.516483516483	0.3756410256410256	0.248730964467005	0.450199203187251
6649.444580078125	-14.84072573446943	-13.47548239280126	23.92742655305674	-33.96189249381565	-5.33133641407338	31.15421484126534	3534.707692307692	3690.84249084249	0.3705128205128205	0.2677664974619289	0.451527224435591
6668.975830078125	-14.0461888106292	-14.01642622434143	23.38111893707995	-34.23881291173228	-3.531653572367618	32.93804182178063	3541.989743589743	3692.307692307692	0.3794871794871795	0.2626903553299492	0.4594953519256308
6688.507080078125	-15.19656683324038	-14.78377519073491	24.3433166759618	-36.274742179146	-3.252496441593287	34.66709168089082	3539.076923076923	3696.703296703297	0.3833333333333334	0.2677664974619289	0.450199203187251
6708.038330078125	-13.48698127307625	-15.17507199111607	23.3018726923754	-41.21567224129681	-7.794823575260905	34.08515800334656	3537.620512820513	3687.912087912088	0.3705128205128205	0.2855329949238579	0.4316069057104913
6727.569580078125	-13.0461925040597	-17.25719172474586	23.38074959403043	-45.41285803890798	-14.6224926676417	35.82767674675245	3521.6	3695.238095238095	0.358974358974359	0.2956852791878172	0.4435590969455511
6747.100830078125	-12.50057371287025	-17.44057439615489	21.94262871297489	-45.14055020427156	-21.2991385629154	35.51575134142009	3556.553846153846	3695.238095238095	0.3628205128205128	0.3032994923857868	0.4289508632138114
6766.632080078125	-13.1859100551183	-16.92838469048436	21.40899448817055	-46.16987754313206	-25.46658776091449	37.43719535364922	3546.358974358974	3701.098901098901	0.3615384615384615	0.3109137055837563	0.4223107569721115
6786.163330078125	-15.37769635815442	-16.91468052441788	22.23036418455826	-43.00550664734934	-24.68042670266509	38.12455480225159	3543.446153846154	3702.564102564103	0.3743589743589744	0.3134517766497462	0.4103585657370518
6805.694580078125	-16.22110906330909	-17.17206446144243	21.88909366909079	-43.57464775942905	-17.31089294886905	39.92547686493776	3549.271794871795	3705.494505494505	0.3653846153846154	0.3362944162436548	0.4143426294820717
6825.225830078125	-15.3384542747149	-19.02969964407642	22.1545725285102	-44.20712751508797	-8.001149164580919	38.96837413148624	3546.358974358974	3708.424908424908	0.3653846153846154	0.3362944162436548	0.401062416998672
6844.757080078125	-14.4571845225564	-19.42439747837188	22.28154774436043	-44.18552712509293	-2.389997855244029	37.81800336154198	3552.184615384615	3708.424908424908	0.367948717948718	0.3578680203045685	0.3944223107569721
6864.288330078125	-15.22685296330084	-21.06087850706615	21.31470366991565	-42.50448218323417	-0.7922957508928136	35.24825809719542	3547.815384615385	3699.6336996337	0.3653846153846154	0.3654822335025381	0.3917662682602922
6883.819580078125	-13.8612433564419	-21.42629805614753	21.87566435581032	-42.51618239448148	-2.282722660550667	35.35506002550423	3533.251282051282	3699.6336996337	0.3423076923076923	0.3730964467005076	0.3837981407702523
6903.350830078125	-13.956532632074	-21.17928665698988	20.34673679260033	-42.14903534752309	-1.167702877300537	35.60721980472988	3543.446153846154	3698.168498168498	0.3551282051282051	0.3870558375634517	0.3811420982735724
6922.882080078125	-12.99411636522118	-21.46055785574199	20.58836347788189	-44.20487747446349	-1.995340729709627	37.04143934067859	3537.620512820513	3702.564102564103	0.35	0.4035532994923858	0.3705179282868525
6942.413330078125	-13.04302292512308	-21.1819314610103	19.69770748769164	-43.83424286453715	0.9937378896727896	36.78516494012512	3539.076923076923	3701.098901098901	0.3538461538461539	0.3959390862944162	0.3598937583001328
6961.944580078125	-13.12480040086032	-22.71779774897723	19.51995991396769	-42.47050656980447	0.6760807606451021	35.89131970767279	3543.446153846154	3702.564102564103	0.3384615384615385	0.4073604060913705	0.350597609561753
6981.475830078125	-12.2126757303451	-22.25750520465914	18.73242696548981	-41.78717589603222	0.7035555598384901	35.43104685040803	3544.902564102564	3693.772893772893	0.3435897435897436	0.4137055837563451	0.3413014608233732
7001.007080078125	-12.13271419126799	-23.18134328220394	18.72858087320083	-41.793588511812	-1.54311000370826	35.96618151226435	3555.097435897435	3702.564102564103	0.3423076923076923	0.4200507614213198	0.350597609561753
7020.538330078125	-11.16157219487032	-24.27911977548867	19.84278051296825	-40.13706901276012	-5.929165936108397	34.57350749993924	3546.358974358974	3701.098901098901	0.3256410256410257	0.4289340101522842	0.3346613545816733
7040.069580078125	-12.21992408769189	-25.13479974835427	18.00759123081109	-38.03195099614352	-7.403319642545903	35.54908147281233	3525.969230769231	3693.772893772893	0.3256410256410257	0.4365482233502538	0.3293492695883134
7059.600830078125	-12.60657393693837	-25.4135141698461	19.34260630616323	-35.94325827608566	-8.110209496034541	35.72139094274483	3514.317948717948	3698.168498168498	0.3115384615384615	0.4568527918781726	0.3240371845949535
7079.132080078125	-11.38760706331648	-26.13543994297343	17.2392936683521	-34.94554400799915	-6.539982190876714	33.61191853566303	3530.338461538461	3690.84249084249	0.3282051282051282	0.4581218274111675	0.3147410358565737
7098.663330078125	-11.03045787457849	-26.09769908513726	16.95421254215127	-32.50669204769774	-6.86604051688418	33.71485697958249	3530.338461538461	3696.703296703297	0.3230769230769231	0.465736040609137	0.3081009296148738
7118.194580078125	-10.99063099797723	-27.67484730742761	16.93690020227687	-31.5265280964822	-7.531453576213133	31.76558746496391	3540.533333333333	3687.912087912088	0.3282051282051282	0.4631979695431472	0.296148738379814
7137.725830078125	-13.03220486720271	-27.22978077643295	16.77951327972934	-30.17392950284072	-7.838085506180851	30.49681046311849	3534.707692307692	3689.377289377289	0.3025641025641025	0.4644670050761421	0.298804780876494
7157.257080078125	-12.67904150554076	-27.22647577171152	16.09584944592386	-31.25084520090905	-5.199386819179891	28.56325987342008	3528.882051282051	3683.516483516483	0.3115384615384615	0.4720812182741117	0.2895086321381142
7176.788330078125	-11.60533171314849	-27.76938420048925	15.46682868515105	-30.22208037220467	-2.533389729898611	27.12354955889286	3537.620512820513	3684.981684981685	0.3051282051282052	0.4771573604060914	0.2841965471447543
7196.319580078125	-10.21266834348411	-27.77597420385028	14.73316565158885	-30.28418149344041	-4.724929298145516	25.7840253737837	3514.317948717948	3680.58608058608	0.308974358974359	0.4936548223350253	0.2695883134130146
7215.850830078125	-11.37745074502649	-28.52877474752324	14.25492549735119	-29.31043015800465	-7.637007921021219	24.36989052102144	3501.210256410256	3676.190476190476	0.3038461538461538	0.4911167512690355	0.2602921646746348
7235.382080078125	-10.94709591715882	-28.52343312366959	13.29040828411837	-30.7755307828703	-10.22302821788946	22.85281722433972	3502.666666666666	3665.934065934066	0.2948717948717949	0.4949238578680203	0.2749003984063745
7254.913330078125	-10.75976512244338	-28.89725261094757	12.02348775566234	-32.92159953885249	-13.96536869525444	22.25105000054748	3508.492307692307	3667.399267399267	0.2961538461538462	0.4974619289340101	0.2563081009296149
7274.444580078125	-8.911339200963248	-29.4241627916425	12.86607990367533	-34.68465846147367	-18.86140535103598	23.1864407566234	3509.948717948718	3665.934065934066	0.2833333333333333	0.5050761421319797	0.252324037184595
7293.975830078125	-9.675498274552387	-28.8354390503944	12.4501725447613	-33.65521862058195	-21.82860996921153	23.64696475082663	3524.51282051282	3670.32967032967	0.2833333333333333	0.516497461928934	0.2284196547144754
7313.507080078125	-10.28293524308313	-28.09115848140911	11.70647569168719	-32.16199248791025	-18.5194266156343	25.86050062214013	3533.251282051282	3677.655677655677	0.2910256410256411	0.5012690355329948	0.2231075697211155
7333.038330078125	-11.40464362704724	-27.53977147514383	11.53563729527622	-31.36210970978976	-12.22378864475485	27.19591018592148	3523.05641025641	3684.981684981685	0.2717948717948718	0.5228426395939086	0.2177954847277556
7352.569580078125	-9.844070135782816	-28.3636430090132	11.59298642171835	-34.01701848911551	-3.774758310055713	28.79782229659794	3511.405128205128	3679.120879120879	0.2756410256410257	0.5279187817258882	0.2177954847277556
7372.100830078125	-9.33272268615813	-29.86010393313413	10.72773138418695	-32.97475341666422	-2.248631801137762	28.18807696708853	3540.533333333333	3686.446886446886	0.2833333333333333	0.5279187817258882	0.201859229747676
7391.632080078125	-8.411302882230043	-30.63996870433227	10.86971177699559	-32.32067327101026	-5.947224276089007	27.9948089305958	3528.882051282051	3684.981684981685	0.2807692307692308	0.5291878172588832	0.1938911022576361
7411.163330078125	-9.325797503979672	-32.17479067482668	11.42024960203286	-30.29756923515609	-10.71971253395684	27.33602839519825	3511.405128205128	3680.58608058608	0.2717948717948718	0.5380710659898477	0.1965471447543161
7430.694580078125	-8.804939470829902	-32.45008805753872	11.50605291700985	-27.91260574781106	-13.62094235468564	26.50107490547885	3531.794871794872	3680.58608058608	0.2782051282051282	0.5393401015228426	0.1806108897742364
7450.225830078125	-8.573180400687964	-31.90570317992054	10.6819599312037	-25.52235466499849	-17.27841082930334	26.09445414930695	3518.687179487179	3680.58608058608	0.2692307692307692	0.5545685279187816	0.1766268260292165
7469.757080078125	-7.265633983500215	-33.09863275358786	9.436601649978515	-23.44299961353223	-20.60457297375319	26.82859876317297	3539.076923076923	3684.981684981685	0.2641025641025641	0.5545685279187816	0.1859229747675963
7489.288330078125	-9.018201225480238	-32.24238599303419	10.17987745197617	-21.32674389582445	-22.08975187925066	28.17910450543916	3525.969230769231	3679.120879120879	0.2666666666666667	0.5571065989847716	0.1713147410358566
7508.819580078125	-8.427076908303199	-32.20096001492146	9.292309169679889	-19.5624474508598	-21.32546482220813	28.66221436039178	3518.687179487179	3684.981684981685	0.2653846153846154	0.5507614213197969	0.1580345285524568
7528.350830078125	-7.917099105820477	-32.27296067235209	8.290089417952288	-20.56961188956914	-18.38031060215252	28.95155390497475	3534.707692307692	3684.981684981685	0.2628205128205128	0.5469543147208121	0.1620185922974768
7547.882080078125	-8.243947390776027	-32.07053621223929	7.60526092239733	-17.39354078253911	-16.10372263424526	29.5321114252683	3524.51282051282	3687.912087912088	0.2551282051282051	0.5507614213197969	0.1447543160690571
7567.413330078125	-7.768194761976872	-31.57104636732643	7.180523802312825	-17.70972440935295	-15.01617765018852	30.24454406175872	3534.707692307692	3695.238095238095	0.2487179487179487	0.5558375634517766	0.1420982735723771
7586.944580078125	-6.299909634067218	-31.65093742343826	6.009036593278202	-17.02166865026929	-17.24639361360185	30.69433763574337	3539.076923076923	3689.377289377289	0.2435897435897436	0.5571065989847716	0.1314741035856574
7606.475830078125	-6.024876485528524	-32.3025670573085	5.512351447147625	-17.75708776449833	-22.47933739753776	31.15348547269589	3540.533333333333	3687.912087912088	0.2487179487179487	0.5621827411167513	0.1381142098273572
7626.007080078125	-5.739209335022462	-33.54186011008885	6.079066497753778	-16.75453590906918	-30.3014546711613	32.33604750329586	3559.466666666666	3695.238095238095	0.2333333333333333	0.565989847715736	0.1181938911022576
7645.538330078125	-6.02569211809621	-33.2632817299536	5.430788190379105	-15.7466964581725	-38.87981059867374	33.94694226744334	3547.815384615385	3696.703296703297	0.2294871794871795	0.5685279187817258	0.1221779548472776
7665.069580078125	-6.771784160846436	-32.84665184369894	6.821583915356421	-15.06505331486861	-43.35669212563381	34.93187050328431	3536.164102564102	3699.6336996337	0.2397435897435898	0.5799492385786802	0.1115537848605578
7684.600830078125	-7.258724806187234	-33.37330333036627	6.127519381276523	-12.66197700049648	-42.52082947315801	33.45498042339977	3546.358974358974	3693.772893772893	0.2294871794871795	0.5710659898477157	0.1168658698539177
7704.132080078125	-6.897836019072876	-33.68549331304408	6.216398092712491	-10.52873347607385	-43.27182012288653	35.12701697090465	3541.989743589743	3699.6336996337	0.2256410256410256	0.583756345177665	0.1075697211155378
7723.663330078125	-8.006478892660294	-33.8011486261054	7.352110733970818	-9.1111087083848	-41.01430575719289	35.17106367209119	3534.707692307692	3702.564102564103	0.2256410256410256	0.583756345177665	0.08632138114209827
7743.194580078125	-8.324586058777253	-33.45370654217344	7.541394122274709	-9.427404837229874	-32.79210695696149	33.50152830214925	3555.097435897435	3701.098901098901	0.217948717948718	0.5862944162436548	0.09428950863213811
7762.725830078125	-8.489264428694016	-33.71661215778828	7.07355713059847	-9.732000754827633	-23.07948124707224	31.72519100389849	3543.446153846154	3693.772893772893	0.2076923076923077	0.5850253807106599	0.08499335989375829
7782.257080078125	-7.657686090417641	-34.87035243329356	6.231390958235918	-8.670497835037015	-14.81335804751404	29.51004168882012	3543.446153846154	3687.912087912088	0.2141025641025641	0.581218274111675	0.07968127490039841
7801.788330078125	-8.092626927816825	-34.40952372598193	6.737307218317445	-7.953866560022411	-7.684305029325911	27.79259613330228	3541.989743589743	3690.84249084249	0.2	0.581218274111675	0.08366533864541832
7821.319580078125	-6.185245853200912	-34.33905553442092	5.475414679908846	-5.84469847028175	-5.782947790913305	27.77800222869435	3518.687179487179	3687.912087912088	0.1923076923076923	0.5901015228426395	0.07171314741035856
7840.850830078125	-4.906245960310396	-34.15853773393265	5.375403968960409	-5.556640351273946	-7.593655831679037	26.36910701757216	3539.076923076923	3686.446886446886	0.1961538461538462	0.5875634517766497	0.0597609561752988
7860.382080078125	-4.825422620784411	-34.23709238377698	5.457737921558922	-5.26914474242226	-10.90581598116259	25.44194550415186	3530.338461538461	3684.981684981685	0.1948717948717949	0.5888324873096447	0.06772908366533864
7879.913330078125	-5.272413275174114	-33.6487087459203	4.758672482588553	-2.833217834932678	-11.60448103458452	25.57158443014853	3524.51282051282	3682.051282051282	0.1871794871794872	0.5939086294416244	0.0743691899070385
7899.444580078125	-5.073402006517674	-34.22663320418637	4.659799348232632	-0.7755756754926884	-13.40714067219661	25.07413180752644	3508.492307692307	3682.051282051282	0.1884615384615385	0.5939086294416244	0.06905710491367861
7918.975830078125	-4.906876921353322	-33.58097738635622	5.312307864667782	0.5775854283049081	-12.21232049344651	23.32362110797911	3528.882051282051	3683.516483516483	0.1730769230769231	0.5888324873096447	0.06374501992031872
7938.507080078125	-5.14908532193787	-31.99942382484275	5.091467806213088	1.216365297712384	-12.14074489801324	21.36362117314195	3531.794871794872	3677.655677655677	0.1782051282051282	0.5964467005076142	0.06241699867197875
7958.038330078125	-6.909885836063395	-33.55793838249904	5.011416393660595	3.938550291710185	-12.01982050217972	19.1475979746898	3505.579487179487	3667.399267399267	0.158974358974359	0.5939086294416244	0.05577689243027888
7977.569580078125	-5.520146432207699	-32.25388287270099	3.985356779230116	5.269998503481515	-9.301497816591857	16.16549003865436	3499.753846153846	3663.003663003663	0.1615384615384616	0.5964467005076142	0.06374501992031872
7997.100830078125	-5.682501018771244	-32.32682781719488	3.749898122875507	5.887627991018847	-6.20496760560301	12.49215916962719	3505.579487179487	3655.677655677655	0.1628205128205128	0.5964467005076142	0.05843293492695883
8016.632080078125	-5.470070285982324	-33.45676747269631	4.992971401767675	6.17208604502748	-2.755080666326378	9.209730131851748	3498.297435897436	3649.81684981685	0.1615384615384616	0.6053299492385786	0.06772908366533864
8036.163330078125	-4.433802029663172	-33.38647533465557	4.619797033682854	6.467119289971183	-0.8176710348275372	6.783966561171315	3488.102564102564	3643.956043956044	0.1628205128205128	0.5939086294416244	0.06241699867197875
8055.694580078125	-3.712993980939437	-33.58679915617424	4.700601906056364	7.802167566741688	-3.359943329282036	5.675392451789114	3467.71282051282	3632.234432234432	0.1602564102564103	0.5951776649746192	0.0650730411686587
8075.225830078125	-3.041107881411334	-33.47001950131301	3.889211858866633	7.372356888391423	-8.167954789496895	4.565442185156215	3489.558974358974	3633.699633699634	0.1641025641025641	0.5977157360406091	0.0650730411686587
8094.757080078125	-2.763104599182767	-33.54772589328695	3.689540081723305	6.975959313314738	-13.00904184689166	4.580287226702604	3488.102564102564	3630.769230769231	0.1564102564102564	0.5964467005076142	0.0650730411686587
8114.288330078125	-4.756987662711002	-34.34159630681572	4.301233728899739	8.299869888994051	-15.54028894228619	3.096781347927307	3495.384615384615	3630.769230769231	0.1551282051282051	0.5901015228426395	0.06640106241699867
8133.819580078125	-4.481077324429704	-32.18641959463369	3.892267557029644	8.616616025964021	-15.12638181762511	1.90261501373498	3456.061538461538	3621.978021978022	0.1576923076923077	0.5939086294416244	0.0597609561752988
8153.350830078125	-5.712740365378767	-32.72090146173668	4.725963462123255	7.873996781736632	-9.838135641476288	-1.385304802618978	3479.364102564102	3621.978021978022	0.1512820512820513	0.5939086294416244	0.05577689243027888
8172.882080078125	-4.755448733338012	-32.1893044716363	4.455126666198831	7.53373772024081	-6.098242769278425	-2.359502618241375	3466.25641025641	3620.51282051282	0.1666666666666667	0.6040609137055837	0.0650730411686587
8192.413330078125	-4.192701658227178	-33.19767901749825	4.729834177282201	8.187705363863548	-2.662181428055022	-4.934738661166458	3461.887179487179	3611.721611721612	0.15	0.5875634517766497	0.05577689243027888
8211.944580078125	-4.389943158104679	-33.04461894877581	5.005684189532079	7.812908178781905	-1.892117176112896	-6.07026438956432	3474.994871794872	3614.652014652014	0.1487179487179487	0.6027918781725888	0.06640106241699867
8231.475830078125	-3.669843016892521	-32.47499701447702	5.015698310748005	7.790632776599519	-1.870066777992958	-6.820127928350513	3460.430769230769	3600	0.15	0.5901015228426395	0.06241699867197875
8251.007080078125	-4.141194307684922	-32.97893221077669	5.880569231507915	7.441036046512091	-0.7494461967563088	-7.232490600039387	3474.994871794872	3605.860805860806	0.1538461538461539	0.6002538071065989	0.0597609561752988
8270.538330078125	-3.785938002075707	-33.20851031021123	5.406199792429205	7.79119528675564	-0.368614669275136	-7.301861626052425	3464.8	3605.860805860806	0.1628205128205128	0.5926395939086294	0.07304116865869853
8290.069580078125	-4.141871436609037	-33.28594061825564	5.812856339096316	7.469161554318134	-0.02628314004732005	-6.536028025407602	3456.061538461538	3605.860805860806	0.1705128205128205	0.5964467005076142	0.06905710491367861
8309.600830078125	-4.182560113659168	-33.55407582366578	5.743988634083222	7.113714718607048	0.349123986360403	-6.894989732942068	3461.887179487179	3610.25641025641	0.1730769230769231	0.6015228426395939	0.0650730411686587
8329.132080078125	-4.269385277739817	-32.46945933102124	5.061472226018247	6.789318443513834	1.820300896891578	-6.584189347921953	3457.517948717949	3604.395604395604	0.1641025641025641	0.5926395939086294	0.06640106241699867
8348.663330078125	-4.341959955826571	-33.01462044461516	5.804004417342872	7.500774625092126	2.570938752793955	-6.347999630554932	3470.625641025641	3613.186813186813	0.1666666666666667	0.5939086294416244	0.06241699867197875
8368.194580078125	-4.709081406901544	-33.11921239441406	5.091859309845576	6.445009308893941	2.184682824239332	-6.568219286063322	3473.538461538461	3605.860805860806	0.1717948717948718	0.6027918781725888	0.07038512616201859
8387.725830078125	-4.392097659226867	-32.65782751802702	4.790234077313349	6.092487525994685	2.932696678061519	-6.953881475674992	3472.082051282051	3607.326007326007	0.1653846153846154	0.5888324873096447	0.06640106241699867
8407.257080078125	-4.511516731855715	-33.08029117774881	4.848326814428509	6.442646766238234	3.313528205542691	-7.02325250168803	3473.538461538461	3607.326007326007	0.1717948717948718	0.5926395939086294	0.06640106241699867
8426.788330078125	-3.949092831913209	-33.28064700899842	5.090716808679068	5.765166198089643	4.031266861178231	-6.616380608577672	3476.451282051281	3608.791208791209	0.1807692307692308	0.5901015228426395	0.07968127490039841
8446.319580078125	-3.712686195064838	-32.35634078913836	4.731380493516182	6.473134816699985	2.907845880948321	-5.871756711431537	3456.061538461538	3608.791208791209	0.1717948717948718	0.598984771573604	0.05710491367861886
8465.850830078125	-3.990981873874274	-32.54756984584852	4.901812612572683	5.431432254404823	2.883171480748192	-5.743745079624033	3474.994871794872	3610.25641025641	0.1717948717948718	0.5951776649746192	0.06374501992031872
8485.382080078125	-4.592524742906459	-34.54001154812602	4.747525709354105	6.145250978638822	2.50496395534721	-5.052522146632306	3460.430769230769	3611.721611721612	0.1564102564102564	0.5977157360406091	0.07304116865869853
8504.913330078125	-4.827484786144218	-33.08116344291742	5.251521385578139	6.173376486444866	3.228127012056199	-4.35605957200052	3474.994871794872	3619.047619047619	0.1705128205128205	0.5913705583756345	0.0743691899070385
8524.444580078125	-4.512039967842531	-32.77207040170981	4.796003215746817	5.479470621737545	4.713129520640602	-4.752452181830764	3477.907692307692	3617.582417582417	0.1833333333333333	0.5913705583756345	0.06905710491367861
8543.975830078125	-4.272601640129368	-33.42774926654626	4.739835987063144	4.815490297335853	4.290997595912813	-3.515615303702601	3464.8	3614.652014652014	0.1782051282051282	0.5888324873096447	0.08100929614873838
8563.507080078125	-4.065834167433055	-34.39812287550799	5.41658325669465	3.779075330508228	3.510084541823789	-2.959270938347594	3476.451282051281	3623.443223443223	0.1858974358974359	0.5951776649746192	0.07968127490039841
8583.038330078125	-3.868454163911983	-32.89747667906428	5.154583608801691	5.519971352978247	1.293517779550617	-2.26255722677735	3470.625641025641	3620.51282051282	0.1794871794871795	0.5850253807106599	0.0650730411686587
8602.569580078125	-4.63162832270241	-32.77128616330133	4.837167729759077	5.18443737679384	2.775719889141762	-2.326688611150331	3467.71282051282	3620.51282051282	0.1666666666666667	0.5951776649746192	0.07038512616201859
8622.100830078125	-4.260151701501872	-32.55570831994464	5.984829849812805	5.565084667499141	2.750869092028564	-1.244563846906876	3450.235897435897	3620.51282051282	0.1743589743589744	0.5964467005076142	0.08366533864541832
8641.632080078125	-3.313109339085236	-33.39837495213929	4.689066091476423	5.215487937411712	3.871489673265214	-1.65692651859575	3469.169230769231	3621.978021978022	0.1730769230769231	0.5977157360406091	0.08100929614873838
8661.163330078125	-4.148535000794088	-32.62536426458258	5.146499920591244	5.237200829437978	2.347987166427453	-0.4253292821076449	3474.994871794872	3623.443223443223	0.1653846153846154	0.5939086294416244	0.07171314741035856
8680.694580078125	-4.030316293076172	-33.20168823630075	4.968370692382791	4.536882348950879	1.586324111465108	-0.286587230081568	3480.820512820513	3620.51282051282	0.158974358974359	0.5901015228426395	0.06108897742363877
8700.225830078125	-4.547557842199414	-32.96850504091705	5.244215780058676	4.181435513239793	1.961731237872831	-0.6455489376160337	3474.994871794872	3621.978021978022	0.1769230769230769	0.6027918781725888	0.07304116865869853
8719.757080078125	-4.346469018889434	-33.7408355216909	5.35309811105653	4.859478591544505	2.745444690955115	-1.534154528428303	3485.189743589744	3624.908424908425	0.1756410256410256	0.5964467005076142	0.07171314741035856
8739.288330078125	-4.114740727334955	-33.11949648077631	4.525927266504401	4.861841134200214	1.616599309651755	-1.079121312803595	3483.733333333333	3624.908424908425	0.1794871794871795	0.5977157360406091	0.07038512616201859
8758.819580078125	-4.670100941455433	-33.58012112605308	4.989905854456677	5.219650512567006	0.1123468019406728	-0.2651263896444214	3460.430769230769	3617.582417582417	0.1679487179487179	0.5926395939086294	0.06640106241699867
8778.350830078125	-3.425403168717137	-32.6357274149803	5.459683128286383	5.5774598909338	-1.39190570577041	0.5488685335147525	3457.517948717949	3621.978021978022	0.1679487179487179	0.5862944162436548	0.08366533864541832
8797.882080078125	-5.071816909263493	-33.18977261395156	4.818309073650696	4.519332032079908	-0.649316253021673	-0.1263843376183445	3474.994871794872	3620.51282051282	0.1756410256410256	0.5951776649746192	0.06640106241699867
8817.413330078125	-4.908108064851716	-33.50281085449977	5.189193514828507	4.858353571232264	-0.2574595264805311	-0.5706871330244794	3476.451282051281	3626.373626373626	0.1743589743589744	0.5926395939086294	0.06772908366533864
8836.944580078125	-4.510485649175811	-33.65825564817858	4.951435082418901	4.508756841144836	0.8631610547561188	-0.9830498047133531	3491.015384615384	3623.443223443223	0.1730769230769231	0.5888324873096447	0.0743691899070385
8856.475830078125	-4.186899894491002	-33.70353879887178	5.310010550899781	4.861278624044092	0.1151472009339323	-0.5973876151016833	3477.907692307692	3626.373626373626	0.1743589743589744	0.5875634517766497	0.06905710491367861
8876.007080078125	-4.550851151057614	-32.73440956820104	4.914884894238617	4.155672548089458	0.1097227998604825	-0.8869782966231106	3480.820512820513	3626.373626373626	0.1833333333333333	0.5951776649746192	0.06905710491367861
8895.538330078125	-4.515256330232083	-32.73036033723483	4.474366976791713	3.816651008937102	-0.2821339266806595	-0.4426755012169758	3476.451282051281	3627.838827838828	0.182051282051282	0.5951776649746192	0.07702523240371846
8915.069580078125	-4.830316416190522	-33.00138041964757	4.968358380947808	4.855428518420435	-0.6300662538949945	-0.5439866509472754	3466.25641025641	3627.838827838828	0.1730769230769231	0.5926395939086294	0.0650730411686587
8934.600830078125	-4.916279779822297	-33.07148049930256	4.372022017770325	4.522257084891737	-0.2767095256072096	-0.1530848196955485	3447.323076923077	3614.652014652014	0.1769230769230769	0.5939086294416244	0.07038512616201859
8954.132080078125	-4.788719770810327	-33.00339303148157	5.128022918967365	3.831276272996244	1.580899710391658	-0.5761779116029954	3479.364102564102	3627.838827838828	0.1807692307692308	0.5926395939086294	0.0650730411686587
8973.663330078125	-5.029527745665452	-32.92325389995482	5.047225433454846	4.517531999580322	1.980981236999509	-1.063151250944965	3480.820512820513	3627.838827838828	0.1807692307692308	0.5913705583756345	0.0743691899070385
8993.194580078125	-4.351855271694903	-33.27385694481891	4.814472830509705	4.159160111057407	1.983781635992769	-1.395412476402226	3474.994871794872	3624.908424908425	0.1705128205128205	0.598984771573604	0.07038512616201859
9012.725830078125	-4.547742513724173	-32.50678006113858	5.225748627582784	4.475343737871256	0.8962366519360259	-2.107845112892642	3476.451282051281	3619.047619047619	0.1730769230769231	0.5901015228426395	0.06905710491367861
9032.257080078125	-4.268723538109431	-33.12397384189409	5.127646189056857	5.208512811475814	0.1233720010006418	-0.6400581590375178	3451.692307692307	3620.51282051282	0.1782051282051282	0.5926395939086294	0.07038512616201859
9051.788330078125	-4.744045266684148	-33.7008219729567	5.595473331585109	4.489406491774278	1.25781818029052	-1.75961382557675	3477.907692307692	3621.978021978022	0.1730769230769231	0.5913705583756345	0.06905710491367861
9071.319580078125	-4.829823958791165	-32.23264703239016	5.017604120883517	4.847215870141072	-0.2464343274205621	-0.9456189024175759	3460.430769230769	3621.978021978022	0.1679487179487179	0.5926395939086294	0.0743691899070385
9090.850830078125	-3.231485756285295	-33.47773784769031	4.851424371470465	4.847778380297191	1.255017781297261	-1.427352600119488	3482.276923076923	3623.443223443223	0.1679487179487179	0.5951776649746192	0.06905710491367861
9110.382080078125	-5.107642569494972	-33.6166656201947	5.235743050502737	4.86712872966775	0.8603606557628593	-0.6507885792560911	3477.907692307692	3626.373626373626	0.1564102564102564	0.5951776649746192	0.07038512616201859
9129.913330078125	-4.065003145571639	-33.4758852845111	5.49968544283616	4.511681893956665	1.235767782170582	-1.009750286790557	3473.538461538461	3624.908424908425	0.1653846153846154	0.5939086294416244	0.05843293492695883
9149.444580078125	-4.422598623827797	-33.3977907745493	5.74013761722025	4.85070343310902	1.627624508711724	-1.454053082196692	3483.733333333333	3623.443223443223	0.1743589743589744	0.598984771573604	0.06374501992031872
9168.975830078125	-4.139978553480258	-33.01862166098493	6.002144651974199	4.841928274673534	0.5098043264683339	-1.37395163596508	3467.71282051282	3621.978021978022	0.1794871794871795	0.5875634517766497	0.06640106241699867
9188.507080078125	-4.504806999789475	-32.85629877636648	5.519300021052553	4.15331000543375	1.238568181163842	-1.342011512247819	3498.297435897436	3626.373626373626	0.1730769230769231	0.5951776649746192	0.07702523240371846
9208.038330078125	-4.638476558412219	-32.64898482984981	4.152344158778114	4.861841134200214	1.616599309651755	-1.079121312803595	3477.907692307692	3624.908424908425	0.1705128205128205	0.5850253807106599	0.07304116865869853
9227.569580078125	-4.307488553443324	-32.20174425332994	5.25114465566763	4.875903888103235	1.97818083800625	-0.7308900254877029	3467.71282051282	3626.373626373626	0.1717948717948718	0.6015228426395939	0.07702523240371846
9247.100830078125	-3.704683762325286	-34.36442324620531	5.531623767471464	4.167372759336772	1.600149709518336	-0.9937802249319263	3495.384615384615	3626.373626373626	0.1807692307692308	0.5939086294416244	0.06772908366533864
9266.632080078125	-4.274325241027118	-33.11831612194722	4.567475897288159	4.158035090745166	-1.019122581442877	-0.4319450809984025	3470.625641025641	3623.443223443223	0.1692307692307692	0.5913705583756345	0.0650730411686587
9286.163330078125	-4.904368466475347	-33.85274169501375	5.563153352465303	4.502344225365058	-1.383504508790631	-0.4479151428570332	3479.364102564102	3627.838827838828	0.1743589743589744	0.5939086294416244	0.0597609561752988
9305.694580078125	-4.629289150055463	-32.61980257382859	5.071084994453697	4.531032243327222	0.8411106566361808	-0.2331862659271602	3472.082051282051	3621.978021978022	0.1679487179487179	0.6040609137055837	0.07968127490039841
9325.225830078125	-4.598203392292795	-34.34196841993812	4.179660770720452	4.539807401762707	1.958930838879571	-0.3132877121587719	3456.061538461538	3616.117216117216	0.1730769230769231	0.5888324873096447	0.0743691899070385
9344.757080078125	-4.267415448142389	-33.39452578199156	5.258455185761086	4.531594753483343	2.342562765354003	-0.7149199636290723	3486.646153846154	3626.373626373626	0.1807692307692308	0.6002538071065989	0.06905710491367861
9364.288330078125	-5.066923113857381	-33.42548457808096	5.307688614261812	4.528107190515393	0.4685039292217173	-0.2064857838499563	3470.625641025641	3617.582417582417	0.1717948717948718	0.5901015228426395	0.06905710491367861
9383.819580078125	-4.867881066613482	-33.08036319964346	5.211893338651873	5.216725459755178	-0.2602599254737907	-0.2384259075672175	3464.8	3620.51282051282	0.182051282051282	0.6015228426395939	0.0597609561752988
9403.350830078125	-3.823225645211529	-32.98008055987481	5.677435478847107	4.839003221861706	0.1371975990538704	-1.347251153887876	3482.276923076923	3623.443223443223	0.1743589743589744	0.5951776649746192	0.07702523240371846
9422.882080078125	-4.591878392569803	-33.15604897735065	4.812160743019724	4.494694087241814	0.5015795264016244	-1.331281092029246	3477.907692307692	3624.908424908425	0.1730769230769231	0.5939086294416244	0.07569721115537847
9442.413330078125	-4.230743376755765	-33.08387226639975	4.925662324423547	4.508756841144836	0.8631610547561188	-0.9830498047133531	3474.994871794872	3624.908424908425	0.1756410256410256	0.5875634517766497	0.06241699867197875
9461.944580078125	-4.351932218163552	-33.08147153657789	4.806778183644751	4.858916081388385	1.243992582237292	-1.052420830726391	3485.189743589744	3626.373626373626	0.1769230769230769	0.6002538071065989	0.07171314741035856
9481.475830078125	-4.108677345605372	-33.27946665016934	5.132265439462826	4.525182137703565	0.09589720180725386	-0.1797853017727524	3469.169230769231	3620.51282051282	0.1743589743589744	0.5888324873096447	0.06772908366533864
9501.007080078125	-5.05707396587024	-33.05081683293259	6.292603412976005	4.158597600901286	0.4823295272749459	-0.9136787787003144	3486.646153846154	3623.443223443223	0.182051282051282	0.5926395939086294	0.0650730411686587
9520.538330078125	-5.027958037705002	-32.8479162280718	5.204196229499921	4.519894542236029	0.8521358556961498	-0.6081180353202567	3466.25641025641	3623.443223443223	0.182051282051282	0.5913705583756345	0.07702523240371846
9540.069580078125	-3.861913714076772	-33.25023637955169	5.808628592322835	4.17322286496043	2.345363164347263	-1.047181189086334	3470.625641025641	3623.443223443223	0.1756410256410256	0.5939086294416244	0.0743691899070385
9559.600830078125	-4.182867899533767	-33.78453419070166	5.713210046623403	3.470541841817622	2.712545490688277	-1.363472352684966	3486.646153846154	3626.373626373626	0.1756410256410256	0.5913705583756345	0.06772908366533864
9579.132080078125	-3.911789799483658	-32.54755384098304	4.821020051634157	4.156235058245579	1.611174908578305	-1.368711994325023	3476.451282051281	3626.373626373626	0.1769230769230769	0.5913705583756345	0.06374501992031872
9598.663330078125	-4.425676482573779	-32.70237444490817	5.432351742622064	3.797863169722665	1.613975307571565	-1.700973219782285	3498.297435897436	3629.304029304029	0.182051282051282	0.5939086294416244	0.08100929614873838
9618.194580078125	-4.673286525257525	-32.61536522487451	4.671347474247555	3.794375606754715	-0.2600835285607214	-1.192539040003169	3476.451282051281	3623.443223443223	0.1692307692307692	0.5951776649746192	0.07569721115537847
9637.725830078125	-4.139347592437332	-33.59618200856136	6.065240756266827	4.497056629897522	-0.6272658549017349	-0.8762478764045374	3464.8	3623.443223443223	0.1717948717948718	0.598984771573604	0.08100929614873838
9657.257080078125	-4.902767979927437	-33.85435818642714	5.723202007256359	3.797300659566544	0.112523198853742	-1.219239522080373	3483.733333333333	3624.908424908425	0.1743589743589744	0.5939086294416244	0.07968127490039841
9676.788330078125	-4.069204422759904	-32.97164199455096	5.079557724009637	3.100469742047395	1.224918980023682	-1.588931649833412	3479.364102564102	3620.51282051282	0.1743589743589744	0.5888324873096447	0.0743691899070385
9696.319580078125	-3.785322430326512	-32.74759357613946	5.467756967348842	3.817213519093222	1.219318182037163	-0.9244091989188878	3460.430769230769	3621.978021978022	0.1858974358974359	0.5901015228426395	0.07038512616201859
9715.850830078125	-4.938685975921296	-33.05038870278102	6.131402407870453	4.15331000543375	1.238568181163842	-1.342011512247819	3479.364102564102	3626.373626373626	0.1641025641025641	0.5901015228426395	0.07968127490039841
9735.382080078125	-3.706422752516765	-33.01651301995806	5.35772474832349	3.444778876667287	0.8605370526759284	-1.604901711692042	3483.733333333333	3620.51282051282	0.1641025641025641	0.5926395939086294	0.07835325365205843
9754.913330078125	-4.588200351368355	-33.35207149127181	5.179964863164555	3.811363413469565	0.4741047272082364	-0.8710082347644801	3479.364102564102	3624.908424908425	0.1743589743589744	0.5964467005076142	0.06640106241699867
9774.444580078125	-3.791093415475228	-34.31868795806233	4.890658452477244	3.803150765190201	0.8577366536826689	-1.27264048623478	3483.733333333333	3624.908424908425	0.1743589743589744	0.5951776649746192	0.07171314741035856
9793.975830078125	-5.026957733612557	-33.34892653520516	5.304226638744331	4.169735301992479	0.4713043282149769	-0.5387470093072181	3474.994871794872	3620.51282051282	0.1769230769230769	0.6015228426395939	0.06640106241699867
9813.507080078125	-4.758341920559235	-32.95561312177363	4.165807944076537	3.806075818002029	1.230343381097132	-1.299340968311984	3486.646153846154	3627.838827838828	0.1602564102564103	0.5913705583756345	0.0650730411686587
9833.038330078125	-3.148554083518313	-32.82765268333881	5.144591648168735	4.164447706524943	1.227542982103873	-0.9670797428547224	3474.994871794872	3624.908424908425	0.182051282051282	0.598984771573604	0.07038512616201859
9852.569580078125	-3.954217466725269	-32.46777882014593	4.57825332747309	4.5169694894242	0.4795291282816863	-0.5814175532430527	3466.25641025641	3626.373626373626	0.1717948717948718	0.5901015228426395	0.08499335989375829
9872.100830078125	-3.713070927408086	-33.39441374793321	4.692907259191409	4.155672548089458	0.1097227998604825	-0.8869782966231106	3483.733333333333	3624.908424908425	0.1743589743589744	0.5774111675126903	0.07038512616201859
9891.632080078125	-4.307780950024193	-33.47067970201402	5.221904997580802	4.160960143556994	-0.6465158540284135	-0.4586455630756064	3476.451282051281	3626.373626373626	0.1756410256410256	0.6002538071065989	0.06374501992031872
9911.163330078125	-5.388431313888654	-32.57460744989553	5.156868611134707	4.150384952621922	0.8659614537493783	-1.315311030170615	3504.123076923077	3629.304029304029	0.1833333333333333	0.5964467005076142	0.07038512616201859
9930.694580078125	-4.471474405142241	-33.19611854311403	4.852559485775982	4.172660354804308	0.8439110556294402	-0.5654474913844221	3479.364102564102	3624.908424908425	0.1705128205128205	0.5951776649746192	0.06241699867197875
9950.225830078125	-4.59237084996916	-32.92478236460807	4.762915003084014	4.189085651363038	0.07664720268057537	0.2378170115561786	3476.451282051281	3620.51282051282	0.1756410256410256	0.5926395939086294	0.0743691899070385
9969.757080078125	-4.46827343204642	-33.19935152594081	5.172656795358096	3.822501114560759	0.4630795281482674	-0.4960764653713837	3495.384615384615	3626.373626373626	0.1705128205128205	0.5964467005076142	0.07569721115537847
9989.288330078125	-3.795048463963814	-33.43007797447347	4.495153603618576	3.834201325808073	1.953506437806121	-0.6028783936801994	3479.364102564102	3627.838827838828	0.182051282051282	0.5926395939086294	0.06640106241699867
10008.81958007813	-4.790366425239427	-32.88634529512356	4.963357476057336	4.881753993726892	2.723394292835176	-0.7842909896421106	3472.082051282051	3626.373626373626	0.1833333333333333	0.5913705583756345	0.06640106241699867
10028.35083007813	-4.107476980694439	-33.28067901872938	5.252301930556119	4.18728561886345	2.706944692701757	-0.6989499017704416	3479.364102564102	3626.373626373626	0.1717948717948718	0.5977157360406091	0.07835325365205843
10047.88208007813	-4.314306010565674	-33.15639708317482	4.569398943432649	4.522819595047857	1.224742583110613	-0.6348185173974605	3485.189743589744	3626.373626373626	0.1730769230769231	0.5926395939086294	0.05843293492695883
10067.41333007813	-4.582737152094237	-33.01143547638482	5.726284790576335	5.208512811475814	0.1233720010006418	-0.6400581590375178	3495.384615384615	3629.304029304029	0.1666666666666667	0.598984771573604	0.06772908366533864
10086.94458007813	-4.993748253315162	-33.38092964876707	4.625174668483834	4.861278624044092	0.1151472009339323	-0.5973876151016833	3470.625641025641	3623.443223443223	0.1756410256410256	0.5913705583756345	0.07304116865869853
10106.47583007813	-4.910231787386443	-33.19297358704738	4.976821261355759	4.847778380297191	1.255017781297261	-1.427352600119488	3470.625641025641	3621.978021978022	0.1679487179487179	0.5977157360406091	0.0597609561752988
10126.00708007813	-4.547049995506327	-33.23824873530784	5.295000449367376	5.561597104531192	0.8768102558962782	-0.7361296671277602	3454.605128205128	3623.443223443223	0.1807692307692308	0.5926395939086294	0.07304116865869853
10145.53833007813	-4.307719392849273	-32.62458802860684	5.228060715072766	4.859478591544505	2.745444690955115	-1.534154528428303	3486.646153846154	3626.373626373626	0.1782051282051282	0.598984771573604	0.05710491367861886
10165.06958007813	-4.467519356653654	-33.08472852670288	5.248064334634652	5.905906239151084	0.5124283285485242	-0.7520997289863907	3463.343589743589	3624.908424908425	0.1743589743589744	0.5913705583756345	0.06640106241699867
10184.60083007813	-4.189700745949845	-33.70070993889834	5.029925405015431	5.192087514917084	0.8906358539495067	-1.443322661978119	3485.189743589744	3626.373626373626	0.1730769230769231	0.5951776649746192	0.0650730411686587
10204.13208007813	-4.514994712238674	-33.38447072525432	4.500528776132558	5.195012567728912	1.26324258136397	-1.470023144055322	3480.820512820513	3624.908424908425	0.1756410256410256	0.5913705583756345	0.07038512616201859
10223.66333007813	-4.307842507199112	-33.3167713754212	5.215749280088838	5.192650025073205	2.392087962667329	-1.925056359680031	3482.276923076923	3621.978021978022	0.1782051282051282	0.5939086294416244	0.07569721115537847
10243.19458007813	-4.231066551924093	-32.27585355178743	4.893344807590737	4.853628485920848	2.000231236126188	-1.480753564273896	3486.646153846154	3623.443223443223	0.1769230769230769	0.598984771573604	0.07038512616201859
10262.72583007813	-4.077453084199135	-33.34792623111271	4.254691580086499	5.209075321631935	1.624824109718465	-1.12179185673943	3463.343589743589	3623.443223443223	0.1628205128205128	0.5926395939086294	0.06772908366533864
10282.25708007813	-4.584568478048095	-33.43266276024835	5.543152195190414	4.509319351300957	2.364613163473941	-1.464783502415265	3486.646153846154	3624.908424908425	0.1756410256410256	0.5939086294416244	0.07038512616201859
10301.78833007813	-4.198364918319784	-33.03811297095855	4.163508168021539	5.220213022723128	1.613798910658496	-0.7468600873463335	3458.974358974359	3620.51282051282	0.1769230769230769	0.6002538071065989	0.0650730411686587
10321.31958007813	-4.273401883403324	-33.42694102083956	4.659811659667615	4.864766187012042	1.989206037066219	-1.105821794880799	3467.71282051282	3624.908424908425	0.1615384615384616	0.5926395939086294	0.07304116865869853
10340.85083007813	-4.705387976406366	-33.35371198998342	5.4612023593634	4.861841134200214	1.616599309651755	-1.079121312803595	3479.364102564102	3626.373626373626	0.1846153846153846	0.5888324873096447	0.06905710491367861
10360.38208007813	-4.267907905541747	-33.16325916924898	5.209209445825376	4.514606946768494	1.608374509585046	-1.036450768867761	3488.102564102564	3623.443223443223	0.158974358974359	0.5888324873096447	0.06905710491367861
10379.91333007813	-4.386973024414807	-34.4706957068795	5.302697558519327	4.5034692456773	1.619399708645015	-1.411382538260857	3504.123076923077	3626.373626373626	0.1628205128205128	0.6015228426395939	0.06640106241699867
10399.44458007813	-3.877718518737388	-31.73427352684447	4.228148126261152	5.575659858434213	1.238391784250772	-0.3878983798118676	3463.343589743589	3617.582417582417	0.1730769230769231	0.5913705583756345	0.07171314741035856
10418.97583007813	-3.714332849493939	-33.23929305278035	4.566715050606153	5.228425671002491	1.230166984184063	-0.3452278358760332	3470.625641025641	3624.908424908425	0.1782051282051282	0.5913705583756345	0.07171314741035856
10438.50708007813	-4.432709389808347	-33.11834813167818	4.729061019165211	4.872978835291407	1.605574110591786	-0.7041895434104989	3477.907692307692	3626.373626373626	0.1679487179487179	0.5888324873096447	0.06905710491367861
10458.03833007813	-4.472443930647224	-32.77206239927707	4.755606935277554	4.86712872966775	0.8603606557628593	-0.6507885792560911	3482.276923076923	3627.838827838828	0.1769230769230769	0.5977157360406091	0.07702523240371846
10477.56958007813	-3.47409427850682	-32.89578016332349	4.590572149318008	4.892329184661964	1.210916985057384	0.07237447745289782	3461.887179487179	3623.443223443223	0.1756410256410256	0.5939086294416244	0.0743691899070385
10497.10083007813	-3.907265347127065	-32.85981584555551	5.27346528729349	4.872978835291407	1.605574110591786	-0.7041895434104989	3489.558974358974	3629.304029304029	0.1756410256410256	0.6002538071065989	0.06640106241699867
10516.63208007813	-3.866884455951532	-32.82213900718126	5.311554404846765	4.870053782479578	1.232967383177323	-0.677489061333295	3477.907692307692	3624.908424908425	0.1858974358974359	0.58248730964467	0.07304116865869853
10536.16333007813	-4.591709110338774	-33.57929687548091	4.829088966122623	4.861841134200214	1.616599309651755	-1.079121312803595	3499.753846153846	3624.908424908425	0.1576923076923077	0.5888324873096447	0.06374501992031872
10555.69458007813	-4.871497550640011	-33.03824901231512	4.850244935999005	4.875341377947113	0.4767287292884267	-0.2491563277857907	3480.820512820513	3621.978021978022	0.1717948717948718	0.5862944162436548	0.07038512616201859
10575.22583007813	-3.669427505961813	-33.51387821897858	5.05724940381876	5.919406482897985	-0.6274422518148042	0.07786525603141392	3456.061538461538	3619.047619047619	0.182051282051282	0.5951776649746192	0.07304116865869853
10594.75708007813	-4.316691351093811	-32.19244942770295	4.330864890619055	4.522819595047857	1.224742583110613	-0.6348185173974605	3498.297435897436	3626.373626373626	0.1705128205128205	0.5951776649746192	0.0743691899070385
10614.28833007813	-3.788046335316706	-32.93715012440705	5.195366468329448	4.522819595047857	1.224742583110613	-0.6348185173974605	3467.71282051282	3621.978021978022	0.1666666666666667	0.5977157360406091	0.07038512616201859
10633.81958007813	-3.463660337357942	-33.98324152080694	5.633966264205856	4.86712872966775	0.8603606557628593	-0.6507885792560911	3464.8	3623.443223443223	0.158974358974359	0.5888324873096447	0.07304116865869853
10653.35083007813	-3.905557135523045	-34.13077190850634	5.444286447695483	5.552821946095707	-0.2410099263471122	-0.6560282208961484	3467.71282051282	3620.51282051282	0.1717948717948718	0.5977157360406091	0.08233731739707835
10672.88208007813	-3.708377192820464	-33.12992365063595	5.162280717953641	4.8501409229529	0.1261723999939014	-0.9723193844947797	3482.276923076923	3623.443223443223	0.1717948717948718	0.5913705583756345	0.0743691899070385
10692.41333007813	-3.903371855813398	-33.59451750255154	5.662814418660195	4.858916081388385	1.243992582237292	-1.052420830726391	3482.276923076923	3626.373626373626	0.1730769230769231	0.5964467005076142	0.07038512616201859
10711.94458007813	-3.750389349131367	-33.08902983430039	4.961065086863329	5.561597104531192	0.8768102558962782	-0.7361296671277602	3463.343589743589	3623.443223443223	0.1705128205128205	0.5888324873096447	0.07702523240371846
10731.47583007813	-4.873190372950301	-32.8057700310125	4.680962704970002	5.203225216008278	0.8796106548895377	-1.068390892585022	3472.082051282051	3623.443223443223	0.1666666666666667	0.5888324873096447	0.06241699867197875
10751.00708007813	-3.631201115908467	-33.08940994985552	4.879888409153305	5.197375110384621	0.1343972000606108	-1.014989928430614	3479.364102564102	3626.373626373626	0.1602564102564103	0.5964467005076142	0.07304116865869853
10770.53833007813	-4.185330186530551	-32.62820112698876	5.466981346944855	5.186237409293427	0.1454223991205799	-1.389921697823711	3470.625641025641	3624.908424908425	0.1769230769230769	0.5964467005076142	0.07304116865869853
10790.06958007813	-4.505130174957802	-34.04828006175416	5.486982504219744	5.536396649536976	0.5262539266017527	-1.459292723836749	3464.8	3623.443223443223	0.1653846153846154	0.5888324873096447	0.07038512616201859
10809.60083007813	-4.387927160626061	-33.08511664469076	5.20728393739389	5.894768538059891	0.5234535276084932	-1.127031498379487	3454.605128205128	3620.51282051282	0.1679487179487179	0.6015228426395939	0.07171314741035856
10829.13208007813	-4.559038255321926	-33.26460213135562	4.096174467807444	4.847778380297191	1.255017781297261	-1.427352600119488	3485.189743589744	3626.373626373626	0.1807692307692308	0.5901015228426395	0.06108897742363877
10848.66333007813	-3.507857773378492	-32.47860211042618	5.214222662150831	4.500544192865471	1.246792981230551	-1.384682056183654	3498.297435897436	3626.373626373626	0.1653846153846154	0.6002538071065989	0.07835325365205843
10868.19458007813	-4.390881905022204	-33.69751696823526	4.911809497779632	4.499981682709351	-0.2546591274872715	-0.9029483584817413	3485.189743589744	3624.908424908425	0.1717948717948718	0.6002538071065989	0.07304116865869853
10887.72583007813	-4.734842469033663	-32.71011679858368	6.515753096633683	5.908268781806791	-0.6164170527548352	-0.2970665133616825	3456.061538461538	3619.047619047619	0.1666666666666667	0.5951776649746192	0.07968127490039841
10907.25708007813	-5.271674589075079	-32.49560866503416	4.832541092492117	4.15331000543375	1.238568181163842	-1.342011512247819	3483.733333333333	3623.443223443223	0.1807692307692308	0.5850253807106599	0.07038512616201859
10926.78833007813	-3.588711891491937	-33.32309329728545	5.128810850806337	4.164447706524943	1.227542982103873	-0.9670797428547224	3467.71282051282	3621.978021978022	0.1653846153846154	0.5913705583756345	0.0743691899070385
10946.31958007813	-3.912836271457292	-32.93111228890506	4.716372854270775	4.861841134200214	1.616599309651755	-1.079121312803595	3470.625641025641	3624.908424908425	0.1756410256410256	0.5977157360406091	0.06640106241699867
10965.85083007813	-3.588111709036471	-32.82369948156547	5.188829096352983	4.514606946768494	1.608374509585046	-1.036450768867761	3486.646153846154	3623.443223443223	0.1564102564102564	0.5913705583756345	0.07702523240371846
10985.38208007813	-4.15676827293959	-33.04012558279255	4.323172706041097	4.500544192865471	1.246792981230551	-1.384682056183654	3480.820512820513	3623.443223443223	0.1705128205128205	0.5977157360406091	0.07835325365205843
11004.91333007813	-4.835287158065283	-32.57328304727714	4.471284193471738	4.144534846998265	0.1207479989204515	-1.261910066016207	3496.841025641026	3626.373626373626	0.1756410256410256	0.5901015228426395	0.06640106241699867
11024.44458007813	-3.512151386329137	-33.7434963305768	4.784861367086362	4.836078169049878	-0.2354091283605931	-1.320550671810672	3476.451282051281	3623.443223443223	0.1717948717948718	0.5913705583756345	0.07569721115537847
11043.97583007813	-4.105691822621769	-32.74402048992125	5.430817737823067	5.189162462105255	0.5180291265350433	-1.416622179900914	3466.25641025641	3621.978021978022	0.1717948717948718	0.5951776649746192	0.0650730411686587
11063.50708007813	-4.105953440615178	-33.08991010190175	5.404655938482221	4.85070343310902	1.627624508711724	-1.454053082196692	3476.451282051281	3621.978021978022	0.182051282051282	0.5939086294416244	0.07569721115537847
11083.03833007813	-4.580044025691502	-32.74492476482082	5.995597430849747	4.858916081388385	1.243992582237292	-1.052420830726391	3483.733333333333	3624.908424908425	0.1615384615384616	0.6040609137055837	0.0743691899070385
11102.56958007813	-4.472059198303977	-32.73398944048221	4.794080169602328	5.209075321631935	1.624824109718465	-1.12179185673943	3469.169230769231	3624.908424908425	0.1679487179487179	0.5913705583756345	0.08100929614873838
11122.10083007813	-4.269954681607824	-33.04580731003762	5.004531839217583	5.917043940242277	0.5014031294885551	-0.3771679595932942	3444.410256410256	3616.117216117216	0.1743589743589744	0.6002538071065989	0.07569721115537847
11141.63208007813	-3.622613890007178	-33.55962150955428	5.738610999282242	4.847778380297191	1.255017781297261	-1.427352600119488	3483.733333333333	3624.908424908425	0.1756410256410256	0.5888324873096447	0.06772908366533864
11161.16333007813	-4.990362608694582	-32.84588761137232	4.963739130541838	4.864203676855921	0.4877539283483958	-0.6240880971788871	3480.820512820513	3626.373626373626	0.1858974358974359	0.5888324873096447	0.07038512616201859
11180.69458007813	-4.51747238852919	-33.18966057989321	4.25276114708102	4.841928274673534	0.5098043264683339	-1.37395163596508	3483.733333333333	3624.908424908425	0.1705128205128205	0.6040609137055837	0.07038512616201859
11200.22583007813	-4.702571735653793	-33.39501793160505	5.742826434620739	5.569809752810556	0.4931783294218457	-0.3344974156574598	3450.235897435897	3614.652014652014	0.1769230769230769	0.5888324873096447	0.08499335989375829
11219.75708007813	-4.268215691416344	-33.39371753628487	5.178430858365558	5.917043940242277	0.5014031294885551	-0.3771679595932942	3442.953846153846	3616.117216117216	0.1653846153846154	0.5888324873096447	0.07702523240371846
11239.28833007813	-4.584399195817067	-32.85591065837861	5.560080418293314	4.511681893956665	1.235767782170582	-1.009750286790557	3476.451282051281	3623.443223443223	0.1705128205128205	0.6015228426395939	0.06905710491367861
11258.81958007813	-4.26733850167374	-32.58691119023259	5.266149832626041	4.511681893956665	1.235767782170582	-1.009750286790557	3461.887179487179	3621.978021978022	0.1871794871794872	0.5862944162436548	0.07569721115537847
11278.35083007813	-4.542848718318061	-32.74249202526799	5.7151281681939	5.225500618190663	0.8575602567695997	-0.3185273537988293	3447.323076923077	3616.117216117216	0.1717948717948718	0.58248730964467	0.06108897742363877
11297.88208007813	-4.179913155137624	-33.17213386715715	6.008684486237662	4.509319351300957	2.364613163473941	-1.464783502415265	3485.189743589744	3623.443223443223	0.1769230769230769	0.6002538071065989	0.06108897742363877
11317.41333007813	-4.388665846725098	-33.23821672557688	5.133415327490326	4.150384952621922	0.8659614537493783	-1.315311030170615	3486.646153846154	3627.838827838828	0.1782051282051282	0.5862944162436548	0.06905710491367861
11336.94458007813	-3.702898604252616	-32.82776471739716	5.710139574738412	5.199737653040328	-0.9944481812427484	-0.5599567128059061	3460.430769230769	3623.443223443223	0.1756410256410256	0.6015228426395939	0.06905710491367861
11356.47583007813	-4.587215436569641	-32.81460471675697	5.278456343035975	4.858353571232264	-0.2574595264805311	-0.5706871330244794	3456.061538461538	3621.978021978022	0.1769230769230769	0.5901015228426395	0.06772908366533864
11376.00708007813	-4.108754292074021	-33.08708124192832	5.124570792597872	4.500544192865471	1.246792981230551	-1.384682056183654	3479.364102564102	3623.443223443223	0.1679487179487179	0.598984771573604	0.0597609561752988
11395.53833007813	-4.456516011636769	-32.59584190516993	6.348398836323165	4.139809761686849	2.37843876152717	-2.171976497265623	3477.907692307692	3617.582417582417	0.1705128205128205	0.5875634517766497	0.07569721115537847
11415.06958007813	-3.546853628118333	-32.97921629713894	5.31463718816674	5.556309509063656	1.633048909785174	-1.164462400675264	3469.169230769231	3623.443223443223	0.1679487179487179	0.6015228426395939	0.07038512616201859
11434.60083007813	-4.059909289347039	-33.21179931006718	6.009071065296157	4.841928274673534	0.5098043264683339	-1.37395163596508	3476.451282051281	3621.978021978022	0.1641025641025641	0.5850253807106599	0.07038512616201859
11454.13208007813	-4.428400387563974	-32.89193099317577	5.15996124360267	5.172174655390406	-0.2161591292339146	-1.738152985139603	3485.189743589744	3623.443223443223	0.1717948717948718	0.5977157360406091	0.07038512616201859
11473.66333007813	-5.026757672794068	-32.84912859663184	5.324232720593214	4.827865520770513	0.1482227981138394	-1.722182923280972	3483.733333333333	3620.51282051282	0.1666666666666667	0.6040609137055837	0.07304116865869853
11493.19458007813	-4.753294232215825	-32.57609590238509	4.670576778417562	5.550459403439999	0.8878354549562472	-1.111061436520857	3467.71282051282	3624.908424908425	0.1730769230769231	0.6002538071065989	0.07569721115537847
11512.72583007813	-4.545295616021117	-32.62463604320328	5.470438397888342	5.556309509063656	1.633048909785174	-1.164462400675264	3458.974358974359	3623.443223443223	0.1717948717948718	0.5977157360406091	0.07569721115537847
11532.25708007813	-3.50993532803203	-33.28419608791841	5.006467196797057	4.848340890453312	2.756469890015084	-1.9090862978214	3493.928205128205	3620.51282051282	0.1692307692307692	0.5875634517766497	0.06640106241699867
11551.78833007813	-4.750231762763573	-33.23303515037802	4.976823723642756	5.559234561875484	2.005655637199638	-1.191162882752468	3473.538461538461	3624.908424908425	0.182051282051282	0.5888324873096447	0.07569721115537847
11571.31958007813	-3.791047247594038	-33.43411920300694	4.895275240596217	5.550459403439999	0.8878354549562472	-1.111061436520857	3469.169230769231	3623.443223443223	0.1666666666666667	0.5862944162436548	0.06905710491367861
11590.85083007813	-3.990181630600318	-32.54837809155522	4.981836939968211	5.566884699998727	0.1205716020073822	-0.3077969335802559	3456.061538461538	3619.047619047619	0.1717948717948718	0.6002538071065989	0.06640106241699867
11610.38208007813	-3.190320011129538	-33.40239217337454	4.967998887046277	5.197375110384621	0.1343972000606108	-1.014989928430614	3473.538461538461	3620.51282051282	0.1794871794871795	0.5951776649746192	0.07968127490039841
11629.91333007813	-3.944137479332178	-33.67026729972065	5.586252066782147	4.847778380297191	1.255017781297261	-1.427352600119488	3483.733333333333	3623.443223443223	0.1794871794871795	0.598984771573604	0.07038512616201859
11649.44458007813	-3.548207885966565	-32.59323311209684	5.179211403343539	5.195012567728912	1.26324258136397	-1.470023144055322	3470.625641025641	3621.978021978022	0.1705128205128205	0.5888324873096447	0.06772908366533864
11668.97583007813	-4.750324098525952	-33.00217266048878	4.967590147404811	5.56452215734302	1.249416983310741	-0.7628301492049641	3460.430769230769	3621.978021978022	0.1717948717948718	0.6002538071065989	0.07835325365205843
11688.50708007813	-4.111047296839778	-33.35399607634567	4.895270316022224	5.197937620540741	1.635849308778434	-1.496723626132526	3486.646153846154	3626.373626373626	0.1756410256410256	0.5901015228426395	0.06905710491367861
11708.03833007813	-4.021544395650123	-33.13362477577799	5.84556043498762	5.883630836968697	0.5344787266684622	-1.501963267772584	3464.8	3621.978021978022	0.1769230769230769	0.5926395939086294	0.07702523240371846
11727.56958007813	-4.022744760561056	-33.13241240721794	5.725523943894328	5.54753435062817	0.5152287275417837	-1.084360954443653	3473.538461538461	3624.908424908425	0.1692307692307692	0.5901015228426395	0.07304116865869853
11747.10083007813	-4.545126333790088	-33.04788394133355	5.487366620991242	5.536396649536976	0.5262539266017527	-1.459292723836749	3476.451282051281	3623.443223443223	0.1717948717948718	0.5913705583756345	0.07304116865869853
11766.63208007813	-4.70997398593788	-32.88754165881812	5.002601406212103	5.195012567728912	1.26324258136397	-1.470023144055322	3488.102564102564	3626.373626373626	0.1705128205128205	0.5964467005076142	0.07038512616201859
11786.16333007813	-3.55237838456737	-33.1659439854331	4.762161543262997	5.539321702348805	0.8988606540162162	-1.485993205913953	3470.625641025641	3621.978021978022	0.1679487179487179	0.5951776649746192	0.0743691899070385
11805.69458007813	-4.587754061850188	-34.46790685906977	5.224593814981292	5.178024761014062	0.5290543255950123	-1.791553949294011	3483.733333333333	3620.51282051282	0.1743589743589744	0.5939086294416244	0.07702523240371846
11825.22583007813	-4.622810257395172	-32.81865394772318	5.718974260482879	5.888918432436235	-0.2217599272204337	-1.073630534225079	3464.8	3623.443223443223	0.1666666666666667	0.58248730964467	0.08100929614873838
11844.75708007813	-4.787165452143606	-32.88957827795034	5.283454785639449	4.839003221861706	0.1371975990538704	-1.347251153887876	3486.646153846154	3624.908424908425	0.1717948717948718	0.5913705583756345	0.0597609561752988
11864.28833007813	-4.466380548917641	-32.9320325686701	5.361945108235981	5.519408842822127	-0.2079343291672051	-1.780823529075438	3479.364102564102	3623.443223443223	0.1807692307692308	0.5939086294416244	0.07835325365205843
11883.81958007813	-4.341929177239111	-33.09157460791158	5.807082276088853	5.194450057572793	-0.2382095273538526	-0.9882894463534104	3467.71282051282	3623.443223443223	0.1807692307692308	0.5951776649746192	0.07304116865869853
11903.35083007813	-4.822606380031838	-32.27839832539861	5.739361996816262	5.197937620540741	1.635849308778434	-1.496723626132526	3485.189743589744	3626.373626373626	0.1730769230769231	0.6065989847715736	0.07702523240371846
11922.88208007813	-4.387711710513843	-32.62379578776563	5.228828948615763	4.872978835291407	1.605574110591786	-0.7041895434104989	3479.364102564102	3626.373626373626	0.1717948717948718	0.598984771573604	0.08632138114209827
11942.41333007813	-4.749693137483026	-32.57973300806522	5.030686251697438	5.206150268820106	1.252217382304001	-1.095091374662226	3485.189743589744	3623.443223443223	0.191025641025641	0.6002538071065989	0.07304116865869853
11961.94458007813	-5.022217831143745	-33.19986768285251	5.778216885625537	5.214362917099471	0.8685854558295687	-0.6934591231919257	3479.364102564102	3626.373626373626	0.1782051282051282	0.5850253807106599	0.07304116865869853
11981.47583007813	-4.149612251355181	-32.93196854920819	5.038774864481878	5.570372262966677	1.994630438139668	-0.8162311133593718	3470.625641025641	3623.443223443223	0.1846153846153846	0.5888324873096447	0.07702523240371846
