Time Stamp	Accelerometer X	Accelerometer Y	Accelerometer Z	Gyroscope X	Gyroscope Y	Gyroscope Z	VSenseReg	VSenseBatt	Magnetometer X	Magnetometer Y	Magnetometer Z
850.616455078125	9.358763833436134	-23.24927454869357	7.87638334361338	43.40387633991414	76.85639373974995	-42.23755406245324	3486.646153846154	3645.421245421245	0.2166666666666667	0.5862944162436548	0.100929614873838
870.147705078125	-5.947623462147877	-32.4544387647691	5.237653785212242	1.08152828134852	2.238264366566971	0.4616490145154658	3469.169230769231	3626.373626373626	0.208974358974359	0.58248730964467	0.1102257636122178
889.678955078125	-6.142264171385024	-32.80400549459343	5.773582861497586	5.228988181158613	2.731619092901886	-0.8269615335779452	3485.189743589744	3629.304029304029	0.208974358974359	0.5774111675126903	0.1088977423638778
909.210205078125	-5.869385523968517	-33.06884369771488	5.061447603148279	3.831276272996244	1.580899710391658	-0.5761779116029954	3485.189743589744	3626.373626373626	0.2269230769230769	0.581218274111675	0.09694555112881806
928.741455078125	-5.787377208825329	-33.11013363447103	5.262279117467093	3.839488921275609	1.197267783917225	-0.1745456601326951	3472.082051282051	3623.443223443223	0.2064102564102564	0.583756345177665	0.1062416998671979
948.272705078125	-5.225338041226071	-33.34856242451551	5.466195877392881	4.886479079038307	0.4657035302284577	0.1257754416073057	3458.974358974359	3624.908424908425	0.2166666666666667	0.581218274111675	0.1088977423638778
967.803955078125	-6.265884521202138	-32.72222586435508	5.411547879786223	3.828351220184416	1.208292982977194	-0.5494774295257915	3492.471794871794	3629.304029304029	0.2128205128205128	0.58248730964467	0.09561752988047809
987.335205078125	-5.426996268404056	-33.15257992275805	5.300373159594362	3.831276272996244	1.580899710391658	-0.5761779116029954	3476.451282051281	3627.838827838828	0.2294871794871795	0.583756345177665	0.102257636122178
1006.866455078125	-5.3088083392736	-33.65194973117982	5.119166072639928	4.528669700671514	1.96995603793954	-0.6882194815518683	3486.646153846154	3627.838827838828	0.2128205128205128	0.5901015228426395	0.1062416998671979
1026.397705078125	-5.227030863536361	-33.11608344321289	5.296913646363878	4.88119148357077	1.221942184117353	-0.3025572919401986	3461.887179487179	3620.51282051282	0.1974358974358974	0.5888324873096447	0.1049136786188579
1045.928955078125	-5.983526068848006	-33.6889463627712	5.647393115199327	4.172660354804308	0.8439110556294402	-0.5654474913844221	3492.471794871794	3629.304029304029	0.2243589743589744	0.58248730964467	0.1155378486055777
1065.460205078125	-6.180121218388853	-33.15192372327341	5.987878161114824	4.525182137703565	0.09589720180725386	-0.1797853017727524	3463.343589743589	3620.51282051282	0.2141025641025641	0.5850253807106599	0.1035856573705179
1084.991455078125	-6.505815306314658	-31.83528038677604	5.418469368534188	4.883554026226479	0.09309680281399428	0.1524759236845096	3470.625641025641	3623.443223443223	0.2153846153846154	0.5736040609137055	0.102257636122178
1104.522705078125	-5.542629574775347	-33.04040566793843	5.73704252246529	4.175585407616136	1.216517783043904	-0.592147973461626	3491.015384615384	3629.304029304029	0.2192307692307692	0.5748730964467005	0.099601593625498
1124.053955078125	-5.709816399570085	-33.03154697489575	5.01836004299153	4.539807401762707	1.958930838879571	-0.3132877121587719	3474.994871794872	3620.51282051282	0.2307692307692308	0.58248730964467	0.09428950863213811
1143.585205078125	-5.592875003231751	-33.41427316981285	4.712499676824831	4.534519806295172	2.715169492768467	-0.7416204457062762	3488.102564102564	3627.838827838828	0.2205128205128205	0.5888324873096447	0.1128818061088977
1163.116455078125	-5.510143391283258	-33.26398594403467	4.985660871674219	4.181435513239793	1.961731237872831	-0.6455489376160337	3486.646153846154	3629.304029304029	0.208974358974359	0.583756345177665	0.1062416998671979
1182.647705078125	-5.144376198056516	-32.77341080919369	5.562380194348312	4.539244891606587	0.4574787301617483	0.1684459855431402	3472.082051282051	3623.443223443223	0.2153846153846154	0.5901015228426395	0.09694555112881806
1202.178955078125	-4.787657909542963	-32.65831166520776	5.234209045703739	3.831276272996244	1.580899710391658	-0.5761779116029954	3493.928205128205	3630.769230769231	0.2141025641025641	0.5926395939086294	0.1049136786188579
1221.710205078125	-6.190339709425512	-32.60314150886484	4.966029057448848	3.156720757659481	2.67124509344166	-0.1960065005698417	3479.364102564102	3621.978021978022	0.2012820512820513	0.5951776649746192	0.1049136786188579
1241.241455078125	-5.710078017563493	-33.37743658687625	4.992198243650685	3.856476727990459	1.931456039686183	0.1469851451059935	3469.169230769231	3624.908424908425	0.2051282051282051	0.5774111675126903	0.1062416998671979
1260.772705078125	-5.631301454103586	-33.33853937750922	4.869854589641404	3.830713762840123	0.07944760167383495	-0.09444421390108332	3476.451282051281	3620.51282051282	0.2153846153846154	0.58248730964467	0.08764940239043824
1280.303955078125	-5.109412338273912	-33.19180123065105	5.05876617260878	4.175022897460016	-0.284934325673919	-0.1104142757597139	3474.994871794872	3620.51282051282	0.2192307692307692	0.5761421319796954	0.1115537848605578
1299.835205078125	-6.307173380707735	-33.48975488548518	5.282661929226484	3.839488921275609	1.197267783917225	-0.1745456601326951	3488.102564102564	3623.443223443223	0.2102564102564103	0.5888324873096447	0.1035856573705179
1319.366455078125	-4.786580658981869	-33.35170738058216	5.341934101813104	3.831838783152365	3.08235181910948	-1.057911609304908	3485.189743589744	3624.908424908425	0.2038461538461538	0.5875634517766497	0.1049136786188579
1338.897705078125	-5.457466454417528	-33.96949734257676	6.253354558247245	4.190210671675279	3.079551420116221	-0.7256503838476455	3470.625641025641	3627.838827838828	0.2153846153846154	0.5875634517766497	0.100929614873838
1358.428955078125	-4.627857945738582	-33.19817116711172	5.214205426141854	4.520457052392151	2.353587964413972	-1.089851733022169	3486.646153846154	3626.373626373626	0.2141025641025641	0.5913705583756345	0.1075697211155378
1377.960205078125	-5.193944497588805	-33.84026990358915	4.605550241119453	4.161522653713115	0.8549362546894093	-0.9403792607775185	3491.015384615384	3630.769230769231	0.2051282051282051	0.581218274111675	0.1049136786188579
1397.491455078125	-5.509650933883901	-32.49525255677726	5.034906611609928	4.861278624044092	0.1151472009339323	-0.5973876151016833	3467.71282051282	3627.838827838828	0.2038461538461538	0.58248730964467	0.09694555112881806
1417.022705078125	-4.904337687887887	-32.92969585831015	5.566231211211284	4.500544192865471	1.246792981230551	-1.384682056183654	3493.928205128205	3629.304029304029	0.2064102564102564	0.58248730964467	0.09561752988047809
1436.553955078125	-6.149297078619592	-33.21997918136344	5.070292138040733	4.514606946768494	1.608374509585046	-1.036450768867761	3479.364102564102	3627.838827838828	0.2217948717948718	0.5799492385786802	0.1102257636122178
1456.085205078125	-5.305345748184371	-33.3092931020261	5.465425181562887	4.17322286496043	2.345363164347263	-1.047181189086334	3488.102564102564	3627.838827838828	0.2064102564102564	0.5862944162436548	0.08897742363877821
1475.616455078125	-6.497905209337485	-33.61250035395375	6.209479066251523	4.872978835291407	1.605574110591786	-0.7041895434104989	3482.276923076923	3629.304029304029	0.2115384615384615	0.5862944162436548	0.1035856573705179
1495.147705078125	-4.51236314301086	-32.9640516870975	4.763685698914007	4.870053782479578	1.232967383177323	-0.677489061333295	3473.538461538461	3627.838827838828	0.2192307692307692	0.5723350253807106	0.1035856573705179
1514.678955078125	-5.441339090160332	-33.29193982663037	3.866090983966818	4.175585407616136	1.216517783043904	-0.592147973461626	3493.928205128205	3629.304029304029	0.2205128205128205	0.5862944162436548	0.100929614873838
1534.210205078125	-5.390308807723702	-32.88040348881444	4.969119227629815	4.522819595047857	1.224742583110613	-0.6348185173974605	3476.451282051281	3624.908424908425	0.2141025641025641	0.5697969543147208	0.09694555112881806
1553.741455078125	-5.43147455287946	-32.95574916313021	4.852544712054002	4.189648161519158	1.578099311398398	-0.2439166861457334	3470.625641025641	3620.51282051282	0.2102564102564103	0.5786802030456852	0.09561752988047809
1573.272705078125	-5.756830076343209	-32.48560162289336	4.316992365679166	4.178510460427965	1.589124510458367	-0.6188484555388298	3477.907692307692	3627.838827838828	0.217948717948718	0.5774111675126903	0.09694555112881806
1592.803955078125	-5.869323966793598	-33.2227520243077	5.067603320640243	3.823063624716879	1.96453163686609	-0.9778101630732958	3492.471794871794	3629.304029304029	0.2102564102564103	0.5939086294416244	0.099601593625498
1612.335205078125	-4.992994177922396	-33.26630664952915	4.700582207760389	4.53395729613905	1.213717384050644	-0.2598867480043641	3463.343589743589	3619.047619047619	0.2192307692307692	0.581218274111675	0.1128818061088977
1631.866455078125	-4.95332119425844	-33.45868405533744	4.667880574156081	4.175585407616136	1.216517783043904	-0.592147973461626	3493.928205128205	3629.304029304029	0.2141025641025641	0.5977157360406091	0.1115537848605578
1651.397705078125	-5.316364482494986	-32.75970264191084	4.363551750501383	4.180873003083672	0.4602791291550079	-0.1638152399141217	3461.887179487179	3620.51282051282	0.217948717948718	0.58248730964467	0.1102257636122178
1670.928955078125	-4.989700869064196	-32.50040212224516	5.029913093580447	4.170297812148601	1.9727564369328	-1.02048070700913	3499.753846153846	3627.838827838828	0.2051282051282051	0.5850253807106599	0.08499335989375829
1690.460205078125	-5.382952725320806	-33.27244851665675	5.704727467919478	4.514606946768494	1.608374509585046	-1.036450768867761	3483.733333333333	3624.908424908425	0.2115384615384615	0.581218274111675	0.1062416998671979
1709.991455078125	-5.31068583310865	-32.95774577009873	4.931416689135035	4.536882348950879	1.586324111465108	-0.286587230081568	3463.343589743589	3620.51282051282	0.2166666666666667	0.583756345177665	0.1035856573705179
1729.522705078125	-5.191805385760348	-33.18858425268974	4.819461423965192	3.478754490096987	2.328913564213844	-0.9618401012146651	3489.558974358974	3626.373626373626	0.2051282051282051	0.583756345177665	0.1049136786188579
1749.053955078125	-5.228446678559513	-33.57619193157797	5.155332144048713	4.178510460427965	1.589124510458367	-0.6188484555388298	3480.820512820513	3626.373626373626	0.2153846153846154	0.5786802030456852	0.1075697211155378
1768.585205078125	-4.86466470422393	-33.12207326411844	5.533529577606977	4.525744647859686	1.597349310525077	-0.6615189994746644	3492.471794871794	3629.304029304029	0.2064102564102564	0.5875634517766497	0.09694555112881806
1788.116455078125	-5.350558877591095	-33.26516630286375	4.944112240890461	4.178510460427965	1.589124510458367	-0.6188484555388298	3485.189743589744	3627.838827838828	0.2166666666666667	0.5901015228426395	0.1102257636122178
1807.647705078125	-5.781652391557802	-33.42360800760354	5.834760844219719	4.200785862610352	1.567074112338429	0.131015083247363	3469.169230769231	3626.373626373626	0.2166666666666667	0.5862944162436548	0.1035856573705179
1827.178955078125	-5.785684386515039	-33.34261261577365	5.431561348496095	4.17322286496043	2.345363164347263	-1.047181189086334	3488.102564102564	3626.373626373626	0.2102564102564103	0.581218274111675	0.1049136786188579
1846.710205078125	-5.033452015566579	-33.11159807966237	4.65479844334216	3.825426167372587	0.8356862555627309	-0.5227769474485876	3473.538461538461	3626.373626373626	0.2141025641025641	0.5786802030456852	0.100929614873838
1866.241455078125	-5.467515663223159	-32.84396302629845	5.248433677684169	4.175022897460016	-0.284934325673919	-0.1104142757597139	3464.8	3621.978021978022	0.2115384615384615	0.583756345177665	0.100929614873838
1885.772705078125	-5.228615960790543	-33.1529440334477	5.138403920945812	3.825426167372587	0.8356862555627309	-0.5227769474485876	3485.189743589744	3629.304029304029	0.1974358974358974	0.5774111675126903	0.1049136786188579
1905.303955078125	-5.028281212873329	-33.03989751345947	5.171878712667112	3.825988677528708	2.337138364280553	-1.0045106451505	3483.733333333333	3627.838827838828	0.208974358974359	0.581218274111675	0.08632138114209827
1924.835205078125	-5.908242875064789	-32.91575161926149	5.175712493521107	3.825988677528708	2.337138364280553	-1.0045106451505	3492.471794871794	3629.304029304029	0.2269230769230769	0.5799492385786802	0.1088977423638778
1944.366455078125	-5.222706471998257	-32.92814338635868	5.729352800174329	3.803150765190201	0.8577366536826689	-1.27264048623478	3486.646153846154	3627.838827838828	0.2115384615384615	0.5850253807106599	0.09428950863213811
1963.897705078125	-4.916279779822297	-33.07148049930256	4.372022017770325	3.816651008937102	-0.2821339266806595	-0.4426755012169758	3470.625641025641	3626.373626373626	0.2141025641025641	0.5913705583756345	0.09163346613545816
1983.428955078125	-5.073725181686002	-33.41861448957405	4.627481831399821	4.15331000543375	1.238568181163842	-1.342011512247819	3479.364102564102	3627.838827838828	0.208974358974359	0.5875634517766497	0.100929614873838
2002.960205078125	-5.622267938684129	-33.92458630500595	5.773206131587079	3.781437873163935	2.381239160520429	-2.504237722722885	3480.820512820513	3627.838827838828	0.2128205128205128	0.5875634517766497	0.1102257636122178
2022.491455078125	-5.429612448338141	-32.61147604256309	5.038755166185904	4.167935269492893	3.101601818236159	-1.475513922633838	3464.8	3624.908424908425	0.2064102564102564	0.58248730964467	0.099601593625498
2042.022705078125	-4.877360871551105	-32.37848090434876	4.263912844889461	4.498181650209764	2.37563836253391	-1.839715271808362	3476.451282051281	3620.51282051282	0.2141025641025641	0.5748730964467005	0.1075697211155378
2061.553955078125	-5.59486022212291	-33.45072963719431	4.513977787709001	4.133959656063192	1.633225306698243	-2.118575533111216	3483.733333333333	3624.908424908425	0.2217948717948718	0.5875634517766497	0.1075697211155378
2081.085205078125	-5.1097662920297	-33.30682835274231	5.023370797029989	3.775587767540278	1.636025705691503	-2.450836758568478	3498.297435897436	3623.443223443223	0.2102564102564103	0.5850253807106599	0.09827357237715803
2100.616455078125	-5.228154281978645	-33.30725648289388	5.18457180213554	3.786725468631472	1.625000506631534	-2.075904989175381	3485.189743589744	3623.443223443223	0.2192307692307692	0.5926395939086294	0.1088977423638778
2120.147705078125	-5.114444637323592	-32.60979553168778	4.555536267640747	4.842490784829655	2.011256435186157	-1.855685333666992	3458.974358974359	3620.51282051282	0.2217948717948718	0.5939086294416244	0.100929614873838
2139.678955078125	-5.630808996704229	-33.5698059902518	4.919100329577114	3.779075330508228	3.510084541823789	-2.959270938347594	3496.841025641026	3623.443223443223	0.2064102564102564	0.58248730964467	0.1062416998671979
2159.210205078125	-5.23735707962913	-33.29796165726688	4.264292037086966	4.484681406462863	3.515508942897239	-2.669680256826166	3477.907692307692	3626.373626373626	0.2192307692307692	0.583756345177665	0.099601593625498
2178.741455078125	-5.310316490059132	-32.88119572965566	4.968350994086817	4.137447219031142	3.50728414283053	-2.627009712890332	3464.8	3621.978021978022	0.2128205128205128	0.58248730964467	0.09694555112881806
2198.272705078125	-4.985022523770303	-33.19743494329969	5.49774762296969	4.478831300839206	2.770295488068312	-2.616279292671758	3474.994871794872	3623.443223443223	0.2128205128205128	0.5939086294416244	0.099601593625498
2217.803955078125	-6.109131637556279	-33.64362319991432	5.086836244372135	4.465331057092305	3.910166068431641	-3.446244277689563	3482.276923076923	3617.582417582417	0.2115384615384615	0.5875634517766497	0.1035856573705179
2237.335205078125	-4.871097429003033	-33.03865313516847	4.890257099696768	4.42370530553936	4.32687359208598	-4.972671837339153	3476.451282051281	3614.652014652014	0.2141025641025641	0.5862944162436548	0.1035856573705179
2256.866455078125	-5.995421992901227	-32.94616224870822	4.45780070987734	6.157513700042258	5.496842973722886	-5.641057772643033	3457.517948717949	3611.721611721612	0.2153846153846154	0.5723350253807106	0.099601593625498
2276.397705078125	-5.349112283980483	-32.8820119777951	5.088771601951608	7.852621395804039	7.456126606428597	-7.862571749673707	3460.430769230769	3608.791208791209	0.2115384615384615	0.5723350253807106	0.1035856573705179
2295.928955078125	-5.655969876380881	-32.66131657870146	6.403012361911866	9.89440076884142	7.922182930483193	-9.645022572938304	3460.430769230769	3604.395604395604	0.2192307692307692	0.5799492385786802	0.1075697211155378
2315.460205078125	-6.421544764993174	-33.53270132581844	5.845523500682669	11.91919233516395	7.65405099876883	-11.74900420144159	3470.625641025641	3601.465201465201	0.2230769230769231	0.5748730964467005	0.09694555112881806
2334.991455078125	-6.141356203054959	-33.07415331183757	5.864379694504051	13.99910989678633	5.829340963036802	-11.49659328527748	3451.692307692307	3601.465201465201	0.2192307692307692	0.5748730964467005	0.1088977423638778
2354.522705078125	-5.420902108087012	-33.3895042554475	5.909789191298769	15.69781765754728	2.528029615700147	-11.84457343565492	3441.497435897436	3600	0.2243589743589744	0.58248730964467	0.1128818061088977
2374.053955078125	-6.777478199526502	-33.61013163386285	6.252180047349778	14.97286123222209	2.917262340161098	-12.91072813803974	3469.169230769231	3600	0.2256410256410256	0.5888324873096447	0.1115537848605578
2393.585205078125	-6.614138698164242	-32.99971991485412	6.586130183575806	16.73423262437491	3.308942669789171	-12.40091780100992	3457.517948717949	3595.604395604395	0.2192307692307692	0.5799492385786802	0.1168658698539177
2413.116455078125	-6.89041837949506	-33.23144666747921	6.958162050494119	17.75422229464381	4.85711957682706	-13.76052666930553	3466.25641025641	3597.069597069597	0.2282051282051282	0.581218274111675	0.1155378486055777
2432.647705078125	-7.332361345541353	-32.263545810234	6.763865445864773	19.50794354867338	7.133883941647388	-14.13408228144793	3438.584615384615	3595.604395604395	0.2282051282051282	0.5761421319796954	0.1128818061088977
2452.178955078125	-8.295439352024554	-32.32776010060904	6.456064797544607	19.84809010813798	10.52864488562418	-15.54185247225789	3544.902564102564	3698.168498168498	0.2205128205128205	0.5685279187817258	0.1261620185922975
2471.710205078125	-7.251245609434498	-33.07316501139423	6.875439056550113	22.27344182469249	11.34245713998004	-16.26887901335623	3523.05641025641	3693.772893772893	0.2256410256410256	0.5710659898477157	0.1248339973439575
2491.241455078125	-6.733126870568654	-32.49954186072566	6.687312943134712	22.93157204347052	11.0193756098789	-17.45231492732999	3533.251282051282	3695.238095238095	0.2307692307692308	0.5710659898477157	0.1328021248339973
2510.772705078125	-6.538655443562536	-32.72672723277107	6.134455643746467	23.2413430545046	7.685165062275408	-17.62961290196408	3514.317948717948	3687.912087912088	0.2423076923076923	0.581218274111675	0.1354581673306773
2530.303955078125	-7.290241464174341	-32.57377919810699	6.975853582566022	23.85672250141744	4.775886838392965	-19.3760089801836	3537.620512820513	3684.981684981685	0.25	0.567258883248731	0.1367861885790173
2549.835205078125	-7.167082793169124	-33.50124637889918	7.291720683087657	23.46201245680912	4.439156107151668	-20.80636503174295	3530.338461538461	3680.58608058608	0.2435897435897436	0.565989847715736	0.148738379814077
2569.366455078125	-8.432124596646611	-32.58047723431	8.787540335338864	24.80639840217123	4.516156103658381	-22.47677428505867	3524.51282051282	3677.655677655677	0.2397435897435898	0.5621827411167513	0.1420982735723771
2588.897705078125	-8.596756798682185	-31.95881409486945	8.324320131781599	27.23231262888186	6.831420466732067	-23.68553452385893	3512.861538461538	3677.655677655677	0.2461538461538462	0.5545685279187816	0.148738379814077
2608.428955078125	-8.323431861747512	-32.33948766578886	7.656813825249029	27.54962127600795	8.74677970011097	-25.36143455575317	3520.14358974359	3674.725274725275	0.25	0.5571065989847716	0.148738379814077
2627.960205078125	-8.714760056287881	-32.92116926622616	8.523994371211924	28.56376084065319	9.54974315231993	-26.66764245989437	3512.861538461538	3668.864468864469	0.2551282051282051	0.5634517766497461	0.1633466135458167
2647.491455078125	-8.94664224077966	-32.1577374906587	9.335775922034143	28.85766906528465	8.484248566383126	-28.12993863517098	3515.774358974359	3670.32967032967	0.2602564102564103	0.5583756345177665	0.1699867197875166
2667.022705078125	-8.90706159287808	-32.11925240657775	9.293840712191891	30.17629204549643	6.709240124877493	-30.04177724749378	3524.51282051282	3667.399267399267	0.2538461538461538	0.5469543147208121	0.1752988047808765
2686.553955078125	-8.614715488893239	-32.05759889467936	10.52845111067611	30.82564710583898	5.268338412532965	-31.14511171523592	3518.687179487179	3661.538461538461	0.258974358974359	0.5406091370558376	0.1673306772908366
2706.085205078125	-9.456250700212864	-30.009186792785	10.37492997871353	33.93027942304166	2.734114521232105	-31.34224323611801	3508.492307692307	3661.538461538461	0.2576923076923077	0.5469543147208121	0.1739707835325365
2725.616455078125	-9.81813979141967	-31.19598650297382	10.18602085803315	34.94621902018649	0.9067804834198858	-31.71168422693259	3498.297435897436	3663.003663003663	0.2769230769230769	0.5279187817258882	0.1832669322709163
2745.147705078125	-10.48600928528427	-30.35528446801673	11.39907147157351	37.34873282440249	0.2411910271778631	-32.70684060911521	3488.102564102564	3652.747252747252	0.2705128205128205	0.5418781725888324	0.1912350597609562
2764.678955078125	-11.24011915006778	-30.89209504304693	11.98808499322255	37.664241439029	4.786847750577948	-35.31950755433607	3520.14358974359	3652.747252747252	0.2910256410256411	0.5393401015228426	0.2031872509960159
2784.210205078125	-12.07308252477984	-31.27541741920313	12.69174752201592	40.12413127916933	8.570488625189549	-35.88520618265896	3499.753846153846	3651.282051282051	0.2871794871794872	0.532994923857868	0.2071713147410358
2803.741455078125	-10.91816466051834	-29.85880753903033	12.1835339481664	41.50598040092909	11.98992396936647	-37.42098800527641	3488.102564102564	3643.956043956044	0.3064102564102564	0.5215736040609137	0.2177954847277556
2823.272705078125	-10.71427498574952	-29.6339668797776	12.5725014250486	42.5171949127625	12.42028069416096	-38.70049542734041	3504.123076923077	3643.956043956044	0.2948717948717949	0.5203045685279187	0.2084993359893758
2842.803955078125	-11.40321242273036	-29.11814006842695	11.67875772696438	44.23581553305014	10.22576433000773	-38.75364525455636	3498.297435897436	3641.025641025641	0.3012820512820513	0.5203045685279187	0.2324037184594953
2862.335205078125	-10.55324387844674	-29.25199291353802	12.67561215532599	43.48104606945054	5.387477671606225	-39.07106143846723	3505.579487179487	3643.956043956044	0.3076923076923077	0.5101522842639593	0.2244355909694555
2881.866455078125	-11.81905514661072	-29.40736968653855	14.09448533892765	45.1821163728672	0.9573209429662106	-38.96400837321996	3498.297435897436	3643.956043956044	0.2974358974358974	0.5076142131979695	0.2430278884462151
2901.397705078125	-12.25108740749496	-29.21870941073779	14.89125925050446	47.2760966883926	-0.5058075644113245	-38.36336616973996	3482.276923076923	3642.490842490842	0.3179487179487179	0.4999999999999999	0.2403718459495352
2920.928955078125	-11.85352654899397	-28.22024587782378	14.64734510060289	49.00698003008367	0.2915550898111183	-39.00505162296664	3501.210256410256	3646.886446886447	0.3192307692307692	0.482233502538071	0.252324037184595
2940.460205078125	-13.11996877820088	-27.79806230324788	16.00312217991192	49.69323575666774	0.6916366164189698	-39.49202496230861	3493.928205128205	3643.956043956044	0.3269230769230769	0.4733502538071066	0.2576361221779548
2959.991455078125	-13.56754422575232	-26.74754956275939	15.2455774247679	50.38297904621977	2.965776979159108	-40.48743248142969	3491.015384615384	3641.025641025641	0.3269230769230769	0.4720812182741117	0.2722443559096945
2979.522705078125	-13.8894679367143	-26.8577912300724	15.05320632857004	50.03450733644458	7.089301777831403	-41.86326254852239	3488.102564102564	3639.560439560439	0.3333333333333333	0.4695431472081218	0.2735723771580345
2999.053955078125	-14.16099232628258	-26.97893621199306	15.90076737174254	48.95410407540831	7.853941628700078	-43.28837895844168	3495.384615384615	3636.630036630037	0.3448717948717949	0.4670050761421319	0.2775564409030544
3018.585205078125	-14.03253973823427	-26.142519479768	16.74602617657306	50.67677476882001	9.034936209396953	-44.33169666313866	3491.015384615384	3635.164835164835	0.3525641025641026	0.4581218274111675	0.2908366533864542
3038.116455078125	-14.50621481237989	-25.83641534718862	17.37851876201134	48.88851539120461	3.788343224320887	-44.11946896377172	3491.015384615384	3630.769230769231	0.35	0.4467005076142132	0.2934926958831341
3057.647705078125	-14.79800690179045	-24.28324379842241	16.1993098209548	49.90445498834944	1.961009186508667	-44.48890995458631	3469.169230769231	3629.304029304029	0.3371794871794872	0.4314720812182741	0.3054448871181938
3077.178955078125	-14.90709975832653	-24.5238292440902	17.29002416734687	49.17893605286812	0.8487898022517959	-45.07333095926922	3504.123076923077	3630.769230769231	0.3628205128205128	0.4390862944162436	0.3187250996015936
3096.710205078125	-14.82864637003495	-23.67691332011085	17.13536299650478	49.90974258381697	1.204770532619771	-44.0605772210388	3476.451282051281	3632.234432234432	0.3653846153846154	0.4302030456852792	0.3173970783532537
3116.241455078125	-15.29907430320356	-23.48947341530286	18.09256967964415	50.58137304634191	-0.2581815778446945	-44.41404814999476	3485.189743589744	3632.234432234432	0.3692307692307693	0.4098984771573604	0.3240371845949535
3135.772705078125	-15.84653980964059	-23.68884094610915	19.34601903594077	49.1895112438032	-0.6636875055259959	-44.21666549217421	3496.841025641026	3632.234432234432	0.3807692307692308	0.3972081218274111	0.3333333333333333
3155.303955078125	-16.23646757845154	-22.77193697653317	20.35324215484584	49.17252343708834	-1.397875761294954	-44.5381962974129	3476.451282051281	3624.908424908425	0.3794871794871795	0.4060913705583756	0.3386454183266932
3174.835205078125	-16.96586285307657	-22.10140159531574	19.41371469234339	49.17713602036854	3.479087292272978	-46.01009787259584	3505.579487179487	3630.769230769231	0.382051282051282	0.383248730964467	0.3439575033200531
3194.366455078125	-17.65113763814969	-20.74312021623804	18.88623618503102	49.96475607708559	6.782846244776753	-44.08615268280376	3474.994871794872	3635.164835164835	0.4	0.3769035532994924	0.3399734395750332
3213.897705078125	-15.77025631176493	-21.4166565097328	18.97436882350696	50.32717803873258	10.1555567906336	-44.74405933482753	3473.538461538461	3630.769230769231	0.3987179487179487	0.3680203045685279	0.3612217795484727
3233.428955078125	-16.2033350446228	-21.61155468185405	19.66649553772039	49.9875939894241	8.262247955374638	-43.81802284171948	3504.123076923077	3633.699633699634	0.3935897435897436	0.3629441624365482	0.3612217795484727
3252.960205078125	-15.79635593835911	-19.16106511764192	20.36440616408926	49.99468161739122	4.87571181146456	-42.45292319484535	3498.297435897436	3642.490842490842	0.4076923076923077	0.350253807106599	0.3758300132802125
3272.491455078125	-16.47181235403255	-19.35116183011943	20.8187645967451	50.00469429817018	1.861782394968946	-41.11452403004844	3485.189743589744	3638.095238095238	0.4076923076923077	0.3388324873096447	0.3784860557768924
3292.022705078125	-16.58953860435111	-18.00610447114384	21.04613956488926	50.38770413153118	0.7080862165523887	-39.57736605018027	3496.841025641026	3643.956043956044	0.4153846153846154	0.3451776649746193	0.3798140770252324
3311.553955078125	-17.54233656262273	-17.77300930252027	21.76634373772703	49.37705212985389	1.779181600475713	-38.77959232581819	3505.579487179487	3642.490842490842	0.4141025641025641	0.3197969543147208	0.3877822045152722
3331.085205078125	-18.02084387499954	-17.38510153240431	21.91561250004617	48.73005961216705	2.091237931516881	-37.22122464245134	3499.753846153846	3648.351648351648	0.4076923076923077	0.3109137055837563	0.3891102257636122
3350.616455078125	-17.98226353119041	-16.84560614119	21.7736468809595	48.41680103816503	3.551389642988087	-36.53549248803813	3499.753846153846	3651.282051282051	0.4230769230769231	0.3058375634517767	0.3917662682602922
3370.147705078125	-18.81591942412032	-16.49745984317694	22.40805758796828	48.10061741135119	4.63893462704483	-35.82305985154771	3495.384615384615	3652.747252747252	0.4141025641025641	0.2906091370558375	0.3957503320053121
3389.678955078125	-18.92844409315817	-15.15765608129487	23.15559068418337	47.40142395117633	6.88017578951813	-36.64778519492546	3509.948717948718	3652.747252747252	0.4192307692307692	0.2804568527918782	0.4037184594953519
3409.210205078125	-18.49776609012217	-14.96033317205353	22.22339098778336	47.76857099813473	7.99519557276826	-36.39562541569981	3495.384615384615	3654.212454212454	0.4346153846153846	0.2690355329949238	0.4037184594953519
3428.741455078125	-18.41451124218686	-14.11826672231435	22.54887578131444	47.7656459453229	7.622588845353797	-36.36892493362261	3496.841025641026	3652.747252747252	0.4217948717948718	0.266497461928934	0.4143426294820717
3448.272705078125	-18.2457700987254	-14.01331066182581	23.42299012746028	49.47605391733116	5.811704407674997	-36.82370701230886	3489.558974358974	3652.747252747252	0.4269230769230769	0.2525380710659899	0.4209827357237715
3467.803955078125	-18.955190070089	-14.28602725997934	24.48099299110006	49.09776916928158	4.707709823484835	-37.4507985609276	3492.471794871794	3645.421245421245	0.4153846153846154	0.2474619289340101	0.4209827357237715
3487.335205078125	-18.84501996299183	-12.73883752968595	23.49800370081735	49.79223754414502	4.724159423618254	-37.53613964879927	3502.666666666666	3645.421245421245	0.4294871794871795	0.2347715736040609	0.4329349269588313
3506.866455078125	-16.87577454315343	-13.34469848064581	24.42254568465737	51.4938703577178	1.795454803696062	-37.91082028125391	3504.123076923077	3648.351648351648	0.417948717948718	0.2284263959390863	0.4329349269588313
3526.397705078125	-18.90739153933565	-11.79430377604022	25.26084606643496	51.53493359911462	-0.1227048286760998	-35.90265902390241	3488.102564102564	3646.886446886447	0.4320512820512821	0.2131979695431472	0.4395750332005312
3545.928955078125	-19.59983773528691	-10.50570234889868	24.01622647130881	51.87159259561127	1.397997279168401	-36.80199503493325	3517.230769230769	3655.677655677655	0.4346153846153846	0.1967005076142132	0.4355909694555112
3565.460205078125	-19.50962692658569	-10.05527680414846	25.03730734143179	51.20873729152182	3.978769571876257	-36.52862555220891	3495.384615384615	3652.747252747252	0.4333333333333334	0.1967005076142132	0.4409030544488711
3584.991455078125	-20.79635224492861	-8.920299617237486	24.36477550713878	51.22392506573709	7.343255317666397	-37.14386166029684	3502.666666666666	3652.747252747252	0.441025641025641	0.1776649746192893	0.4342629482071713
3604.522705078125	-19.83381286372596	-8.509387469175245	24.61871362740427	51.20569973667877	10.74081666063645	-38.88389307656406	3499.753846153846	3649.81684981685	0.4474358974358975	0.1548223350253807	0.4448871181938911
3624.053955078125	-19.63223158301662	-7.512984562691674	24.77684169833783	51.20918729964672	12.61487549676873	-39.39232725634318	3507.035897435897	3648.351648351648	0.4474358974358975	0.1598984771573604	0.4555112881806109
3643.585205078125	-18.46980374341492	-6.873190526843236	25.01962565850787	51.2109873321463	9.984578006747549	-38.45556034301656	3495.384615384615	3641.025641025641	0.4461538461538462	0.1522842639593909	0.4594953519256308
3663.116455078125	-19.03061176751579	-7.712928268655209	24.93882324842137	50.5106688516592	9.222914951785203	-38.31681829099048	3509.948717948718	3649.81684981685	0.4358974358974359	0.1395939086294416	0.4741035856573705
3682.647705078125	-18.79097337898414	-5.868809194918332	24.90266210158657	50.54351944477667	7.688387245887473	-36.71028928510928	3495.384615384615	3654.212454212454	0.4423076923076923	0.1370558375634518	0.4701195219123506
3702.178955078125	-18.90385200177777	-5.644032555127528	25.61479982222287	49.51059204091699	8.781533027930735	-36.66237909953339	3507.035897435897	3654.212454212454	0.4487179487179487	0.1078680203045685	0.4754316069057105
3721.710205078125	-19.71102353577026	-4.5134046904105	24.89764642297412	50.24139857186584	9.137513758298709	-35.64962536130297	3502.666666666666	3655.677655677655	0.4346153846153846	0.09137055837563451	0.4687915006640106
3741.241455078125	-18.63221988715339	-3.79222714474431	24.7780112846613	49.5967685968347	8.320724708036519	-33.63622446231142	3493.928205128205	3657.142857142857	0.4333333333333334	0.08629441624365482	0.4741035856573705
3760.772705078125	-19.38400596858368	-3.13907704865356	25.59940314163197	47.87342289123566	12.77293183479647	-34.49314106634488	3515.774358974359	3660.07326007326	0.4435897435897436	0.07233502538071066	0.4727755644090305
3780.303955078125	-19.75726774785689	-2.89131342081839	24.2732252143113	47.17951702652833	14.25793434338088	-34.88953367617512	3508.492307692307	3654.212454212454	0.4346153846153846	0.07614213197969542	0.4780876494023904
3799.835205078125	-18.50596796810846	-3.453587736825841	25.40320318915412	43.74407581845266	16.01666958166616	-33.8464671084166	3530.338461538461	3661.538461538461	0.4371794871794872	0.06218274111675126	0.49667994687915
3819.366455078125	-18.39872182681997	-0.59575249337337	24.12781731800313	43.43261727695022	14.84652380311619	-32.22396804067677	3517.230769230769	3663.003663003663	0.441025641025641	0.04568527918781726	0.4767596281540504
3838.897705078125	-17.62771451752102	-1.306777568073002	25.22854824789813	42.03141780581991	11.82174558447367	-31.4647502389227	3498.297435897436	3664.468864468864	0.4333333333333334	0.04060913705583756	0.4900398406374502
3858.428955078125	-18.10922274217516	-0.4158388765569348	25.07772578248402	38.20599163844732	10.98605932891094	-30.94197329147412	3520.14358974359	3665.934065934066	0.4269230769230769	0.03553299492385786	0.4913678618857901
3877.960205078125	-17.55741745490629	-0.06700837054464556	24.25825450937085	35.07503384593817	10.16682267348163	-30.5045374318972	3507.035897435897	3664.468864468864	0.4320512820512821	0.02411167512690355	0.4873837981407702
3897.491455078125	-18.19189279694874	1.279965571072067	24.8107203051266	35.09202165265302	10.90101092925058	-30.18300662665851	3505.579487179487	3663.003663003663	0.4166666666666667	0.01649746192893401	0.4860557768924302
3917.022705078125	-17.55058460849021	0.8491673776520369	24.94153915097882	33.67675942761969	7.514651182253576	-29.77202011222034	3515.774358974359	3664.468864468864	0.4269230769230769	0.006345177664974619	0.4926958831341301
3936.553955078125	-17.90591786056808	1.271130885327601	25.40821394319257	30.91531122472464	6.681588928771035	-28.62739125779306	3524.51282051282	3670.32967032967	0.4346153846153846	0.003807106598984771	0.49800796812749
3956.085205078125	-17.76046071851997	2.591911479551322	23.95392814800314	28.50402226207315	6.229358202769667	-27.55213342937882	3517.230769230769	3663.003663003663	0.4282051282051282	-0.003807106598984771	0.5059760956175299
3975.616455078125	-16.00427699251342	2.69355053166932	23.57230074865836	24.01697831295459	3.842694641175788	-25.33748638817737	3508.492307692307	3671.794871794872	0.4141025641025641	-0.01269035532994924	0.50066401062417
3995.147705078125	-16.86897247532481	2.648431430847285	25.10275246751935	24.42113852818574	-0.3359561527963527	-22.08699747411919	3505.579487179487	3674.725274725275	0.4294871794871795	-0.01649746192893401	0.4913678618857901
4014.678955078125	-17.54330547255596	3.649507758050755	25.66945274440353	22.03324998802888	2.192666940517987	-21.22534350232258	3520.14358974359	3680.58608058608	0.4320512820512821	-0.02791878172588832	0.5033200531208499
4034.210205078125	-17.61474134290671	4.257042602489618	26.52586570932948	19.66876187036665	7.702143853148034	-20.5772933871436	3523.05641025641	3679.120879120879	0.4282051282051282	-0.03045685279187817	0.4940239043824701
4053.741455078125	-18.78255543531388	4.084227143513166	25.74445646861261	19.79228910065079	17.71842469709867	-19.79847932565572	3521.6	3684.981684981685	0.4141025641025641	-0.03299492385786802	0.49667994687915
4073.272705078125	-17.45900415264702	3.875132655711951	26.09958473529799	14.66747780040576	25.39774357368182	-18.9692677514533	3544.902564102564	3687.912087912088	0.4192307692307692	-0.02791878172588832	0.4913678618857901
4092.803955078125	-16.53784596671234	3.749378272533311	26.21540332876579	14.71664118805072	30.23060583100988	-18.94144224906385	3546.358974358974	3693.772893772893	0.4102564102564102	-0.04695431472081218	0.4940239043824701
4112.335205078125	-15.7823818440806	4.900205662521406	25.76181559193995	14.05907347942881	32.05513946982884	-18.23974003279201	3540.533333333333	3692.307692307692	0.4192307692307692	-0.04822335025380711	0.5099601593625498
4131.866455078125	-14.15520472069663	3.55060292174975	24.47952793033697	11.9938936838968	28.60822932645854	-16.24368535290978	3550.728205128205	3698.168498168498	0.4051282051282051	-0.05076142131979695	0.5112881806108898
4151.397705078125	-13.99032628996138	4.313306475937916	24.96737100386209	12.41099163271874	21.78825584340524	-11.68149775613188	3444.410256410256	3597.069597069597	0.4153846153846154	-0.05710659898477157	0.5258964143426295
4170.928955078125	-14.30992621757014	4.393025479745843	25.00737824298586	10.63679500900636	16.90324438668367	-11.12103876944906	3470.625641025641	3601.465201465201	0.3974358974358974	-0.05583756345177664	0.5099601593625498
4190.460205078125	-16.26667553089986	3.755496132362699	25.33244691001449	9.231545464751971	10.50295522319105	-9.371653090213966	3454.605128205128	3602.930402930403	0.3961538461538461	-0.05837563451776649	0.5219123505976095
4209.991455078125	-15.51575124991844	4.257062608571467	24.42487500815632	6.436121648427232	8.201516458170593	-8.870085846264066	3464.8	3605.860805860806	0.3935897435897436	-0.06218274111675126	0.5285524568393094
4229.522705078125	-15.85555670462282	4.855650733207511	26.44432953771792	6.10475024739812	5.924575696437196	-7.542417101685719	3473.538461538461	3610.25641025641	0.3846153846153846	-0.06091370558375634	0.5166002656042497
4249.053955078125	-14.26826801501503	5.237104541319022	25.17319849849739	4.413692624760409	7.340803008581594	-6.311071002136073	3472.082051282051	3613.186813186813	0.3846153846153846	-0.05837563451776649	0.5258964143426295
4268.585205078125	-15.18482480212446	4.858211511684167	25.51751978755387	2.690459421192585	4.658356319166896	-4.786019599737184	3488.102564102564	3614.652014652014	0.391025641025641	-0.06091370558375634	0.5073041168658699
4288.116455078125	-14.4520131042914	5.64576400456508	26.79868957086031	3.052993884870793	0.8964130488490951	-3.061958245328593	3470.625641025641	3616.117216117216	0.3923076923076923	-0.05583756345177664	0.5298804780876494
4307.647705078125	-15.51879771450521	4.873985691650262	28.12022854947904	3.057718970182208	-1.361277713757624	-2.151891814079177	3461.887179487179	3619.047619047619	0.3858974358974359	-0.05964467005076142	0.5232403718459495
4327.178955078125	-15.63595456095576	4.795391029642242	28.40454390442386	3.440053791355871	3.118227815282647	-2.514968142941459	3482.276923076923	3620.51282051282	0.3948717948717949	-0.06979695431472081	0.5272244355909694
4346.710205078125	-15.64544975518712	4.53575040658514	27.45502448128846	4.183123043708156	6.466087564026299	-2.09075003072177	3473.538461538461	3620.51282051282	0.3948717948717949	-0.06091370558375634	0.5099601593625498
4366.241455078125	-15.36643077957237	3.918556625829637	27.35692204276253	3.875152065173672	7.170000621608609	-0.976685142761054	3473.538461538461	3630.769230769231	0.3923076923076923	-0.06218274111675126	0.5139442231075697
4385.772705078125	-14.40901603318178	4.142336962744365	27.09839668182204	3.530280420397658	6.03293044023854	-0.4789813832005114	3483.733333333333	3623.443223443223	0.3961538461538461	-0.06979695431472081	0.5285524568393094
4405.303955078125	-14.73880367323974	5.693884017664447	26.11963267602582	2.857524937560482	4.49297833326736	0.8379569411592626	3477.907692307692	3626.373626373626	0.3858974358974359	-0.05710659898477157	0.5192563081009296
4424.835205078125	-15.00871218696638	4.532645462682194	27.12878130336237	3.175508596873918	0.7751358591894358	1.062291217995467	3486.646153846154	3627.838827838828	0.3807692307692308	-0.05583756345177664	0.5205843293492696
4444.366455078125	-14.73001638651996	5.723470396539009	26.99836134800363	2.122105823331441	-0.7399654506685462	1.297104778111786	3492.471794871794	3629.304029304029	0.382051282051282	-0.05076142131979695	0.5298804780876494
4463.897705078125	-15.57245956616965	5.042030315677504	26.75404338303459	2.157881469260729	-1.901886429151813	2.876933301915784	3472.082051282051	3632.234432234432	0.3897435897435898	-0.05456852791878172	0.5298804780876494
4483.428955078125	-15.83913632821301	4.800604614572061	28.08636717869925	0.7718697723456734	-1.562178902004187	3.020914995581918	3501.210256410256	3630.769230769231	0.3871794871794872	-0.05203045685279188	0.5245683930942895
4502.960205078125	-14.86122365814592	5.774451279342767	25.87763418540774	0.4187854792902954	-2.315617156899823	3.11698650367216	3489.558974358974	3635.164835164835	0.382051282051282	-0.05456852791878172	0.5232403718459495
4522.491455078125	-15.21284809043488	4.923438109800763	26.71519095651231	0.4264356174135393	-4.200701192092079	4.000352452844373	3485.189743589744	3635.164835164835	0.3884615384615385	-0.06345177664974619	0.5272244355909694
4542.022705078125	-15.13513338824233	4.617253952893988	26.48666117576666	-0.9343756245073009	-3.510437335649927	4.867497203219496	3496.841025641026	3638.095238095238	0.3833333333333334	-0.06472081218274112	0.5258964143426295
4561.553955078125	-15.32928164008012	5.036420610327077	27.07183599198771	-0.1830937238756514	-0.5462095133807083	5.693347566909485	3493.928205128205	3639.560439560439	0.3871794871794872	-0.05076142131979695	0.5205843293492696
4581.085205078125	-14.85388296503676	4.420883333148661	26.61170349632442	-1.156845059311413	2.365869109494994	7.107482419671742	3502.666666666666	3643.956043956044	0.3858974358974359	-0.05964467005076142	0.5192563081009296
4600.616455078125	-16.27829383209419	3.804153693492052	28.17061679058126	-1.135132167285148	0.8423666026572338	8.339079656159848	3480.820512820513	3645.421245421245	0.3923076923076923	-0.04568527918781726	0.5192563081009296
4620.147705078125	-15.77156317058848	3.85081726383282	26.84368294115257	-2.529919022635689	0.06425394756146918	8.563162796057593	3488.102564102564	3646.886446886447	0.3923076923076923	-0.05456852791878172	0.5205843293492696
4639.678955078125	-15.2970878531689	3.543904885546744	26.29121468310981	-2.840815053982001	0.3955602777293162	9.703928166095514	3464.8	3639.560439560439	0.4038461538461539	-0.0532994923857868	0.5179282868525896
4659.210205078125	-15.46071975111203	3.66455771785392	25.92802488879696	-3.523583217598129	1.869537587253751	9.682467325658367	3498.297435897436	3646.886446886447	0.3948717948717949	-0.05076142131979695	0.5152722443559097
4678.741455078125	-14.38031561594725	3.38411877210672	25.9684384052752	-5.948934934152639	1.055725332897889	10.40949386675671	3496.841025641026	3651.282051282051	0.391025641025641	-0.04441624365482233	0.5245683930942895
4698.272705078125	-15.48589602008241	2.611524211052468	27.41039799175872	-8.730858506730478	-2.385584012485896	11.74102609572442	3511.405128205128	3654.212454212454	0.391025641025641	-0.03426395939086294	0.5245683930942895
4717.803955078125	-15.06714471968709	3.628585397653194	25.28552803129074	-9.082142767286268	-5.769319757402713	12.77386451714128	3511.405128205128	3655.677655677655	0.391025641025641	-0.04060913705583756	0.5285524568393094
4737.335205078125	-15.41575285040498	3.236064225062881	26.42471495950153	-11.13742238407055	-5.095505501093982	13.72635035538807	3505.579487179487	3657.142857142857	0.3961538461538461	-0.0266497461928934	0.5192563081009296
4756.866455078125	-15.09407536814268	1.961939198747188	26.59246318573154	-15.25911931873031	-3.736851789416549	15.25639026248856	3517.230769230769	3660.07326007326	0.3871794871794872	-0.03299492385786802	0.5205843293492696
4776.397705078125	-14.78252404115467	3.005733896950827	25.74759588453351	-15.92017459032017	-3.786376986729875	16.46652665853952	3492.471794871794	3660.07326007326	0.4025641025641026	-0.02411167512690355	0.5192563081009296
4795.928955078125	-15.25941547768983	1.353548094005193	26.05845223101669	-19.03358206595834	-2.369973277672406	16.74375962565321	3521.6	3663.003663003663	0.4051282051282051	-0.01649746192893401	0.5232403718459495
4815.460205078125	-15.66862603154436	2.482235368782879	25.13739684556413	-18.29692542938584	-1.268779092475504	17.70311239972922	3505.579487179487	3663.003663003663	0.4076923076923077	-0.02791878172588832	0.5152722443559097
4834.991455078125	-15.66254726052105	2.28378811774164	25.74527394789554	-19.3046523782513	0.1749230188622832	18.4741856420141	3515.774358974359	3668.864468864469	0.3846153846153846	-0.01015228426395939	0.5166002656042497
4854.522705078125	-16.33544905343532	0.7064958516619821	26.45509465646787	-20.71530202000445	1.665526325433206	17.41327058126934	3520.14358974359	3665.934065934066	0.3974358974358974	0.007614213197969543	0.5192563081009296
4874.053955078125	-16.09194795217746	0.8928674316992364	26.8052047822538	-20.72115212562811	0.9203128706042796	17.46667154542374	3496.841025641026	3657.142857142857	0.3974358974358974	0.006345177664974619	0.5112881806108898
4893.585205078125	-16.00738501427511	0.4643819413409369	27.26149857248911	-21.74822942386412	2.758672107476468	17.46118076684523	3536.164102564102	3665.934065934066	0.4025641025641026	0.02284263959390863	0.5166002656042497
4913.116455078125	-16.18759118156535	0.0248517087656186	25.24088184346503	-22.06846312380204	0.4707061466831021	19.16378128081667	3511.405128205128	3665.934065934066	0.4025641025641026	0.01649746192893401	0.5232403718459495
4932.647705078125	-14.4920708202986	-0.1999315484214894	26.79291797013984	-22.39690947201933	-1.433627887635832	20.46474954331781	3502.666666666666	3668.864468864469	0.3948717948717949	0.03426395939086294	0.5139442231075697
4952.178955078125	-14.49163992007417	-1.277289834571248	26.83600799258359	-23.47022510508849	-4.055524180677235	20.40473278027265	3531.794871794872	3674.725274725275	0.3935897435897436	0.0215736040609137	0.5205843293492696
4971.710205078125	-14.80982403265978	-0.7374623423982428	27.01759673402252	-24.12070518574327	-5.617526685768352	22.47153464341862	3514.317948717948	3674.725274725275	0.4076923076923077	0.03807106598984771	0.5126162018592297
4991.241455078125	-16.0886238647318	-1.418182204313188	27.13761352681984	-24.4907772855135	-7.105153196432947	22.24607534627017	3518.687179487179	3674.725274725275	0.3987179487179487	0.04568527918781726	0.5179282868525896
5010.772705078125	-16.56908561741231	-3.143685064875106	27.09143825876912	-24.13656797214588	-3.348810724101665	21.1865364427761	3521.6	3673.260073260073	0.3987179487179487	0.05583756345177664	0.5139442231075697
5030.303955078125	-16.49372547716045	-1.562875729606416	26.62745228395585	-26.51511884371114	1.799084660173888	21.48635527063918	3524.51282051282	3670.32967032967	0.3923076923076923	0.05710659898477157	0.5126162018592297
5049.835205078125	-15.5759837144338	-3.146717986883397	26.40162855661967	-27.54455868460286	4.766289278349436	21.02583127643596	3517.230769230769	3670.32967032967	0.3961538461538461	0.06979695431472081	0.5219123505976095
5069.366455078125	-15.37197092531514	-3.229693980816322	26.8029074684858	-26.84187766146006	4.399106952008423	21.34212244003459	3521.6	3668.864468864469	0.3948717948717949	0.07360406091370558	0.5139442231075697
5088.897705078125	-14.52086357329551	-3.210850867894609	27.91364267044874	-26.10105844973226	1.741158265880783	23.69327534306193	3511.405128205128	3676.190476190476	0.3923076923076923	0.08248730964467005	0.5166002656042497
5108.428955078125	-14.33007018749085	-5.242013726018864	26.99298125091566	-27.83542935439127	-0.9302632244739463	24.84339497606772	3534.707692307692	3679.120879120879	0.3974358974358974	0.08883248730964466	0.4926958831341301
5127.960205078125	-15.49946937715219	-4.451689775230131	26.05306228478072	-27.52802088601291	-3.135628390774079	24.21106378580892	3533.251282051282	3680.58608058608	0.3961538461538461	0.09644670050761421	0.5086321381142098
5147.491455078125	-15.8901973892371	-5.533977559947454	26.98026107629027	-27.50394545133094	-5.787976278915199	25.89769423792173	3525.969230769231	3683.516483516483	0.4012820512820513	0.1053299492385787	0.49933598937583
5167.022705078125	-16.77703806572583	-6.21057616900153	26.29619342741732	-27.88639277453583	-3.13282799178082	23.87880256035166	3531.794871794872	3680.58608058608	0.3884615384615385	0.1154822335025381	0.5112881806108898
5186.553955078125	-16.18160474630442	-5.942733052386386	25.8395253695585	-29.27825457707453	-3.538333919462121	24.0761852181722	3524.51282051282	3679.120879120879	0.3935897435897436	0.1142131979695431	0.49933598937583
5206.085205078125	-16.0953643753855	-6.565220442399104	26.46356246144982	-28.53226027191042	0.1821325566959942	24.47370284831468	3511.405128205128	3676.190476190476	0.3974358974358974	0.1370558375634518	0.5166002656042497
5225.616455078125	-16.49237121931221	-6.948858914648514	26.76287806877906	-28.90649494683595	2.453648917355942	22.85644342221491	3520.14358974359	3674.725274725275	0.3923076923076923	0.1370558375634518	0.50199203187251
5245.147705078125	-16.09831911978165	-7.177620765943615	26.16808802183556	-27.50642049601787	2.475522918562811	23.06069301586467	3514.317948717948	3673.260073260073	0.3974358974358974	0.1472081218274112	0.4873837981407702
5264.678955078125	-16.77997742082824	-7.861453574194246	26.00225791717605	-28.18333855401034	4.694713682916172	22.98583121127312	3527.425641025641	3674.725274725275	0.3948717948717949	0.1370558375634518	0.5033200531208499
5284.210205078125	-14.73277107009762	-8.389131988432176	26.72289299023826	-29.51366174546943	4.979295214763952	25.00447175190473	3533.251282051282	3683.516483516483	0.3923076923076923	0.1675126903553299	0.4900398406374502
5303.741455078125	-14.25581807638753	-8.890854512079365	26.41819236124705	-30.54771416964135	3.069536779371568	26.01584933288445	3530.338461538461	3684.981684981685	0.3961538461538461	0.1611675126903553	0.4900398406374502
5323.272705078125	-15.18974937611803	-8.829122360890017	25.02506238819678	-29.24900404895625	0.1877333546825133	23.80918039740016	3525.969230769231	3679.120879120879	0.3871794871794872	0.1751269035532995	0.4926958831341301
5342.803955078125	-16.10690634568293	-9.707409206244853	25.30936543170662	-29.92884715976055	2.034317391621412	23.76101907488581	3525.969230769231	3674.725274725275	0.3871794871794872	0.1852791878172589	0.49933598937583
5362.335205078125	-16.50779129162958	-10.39482310314643	25.22087083704215	-30.95941202096452	1.998617792361314	24.26396247608641	3524.51282051282	3674.725274725275	0.3807692307692308	0.1928934010152284	0.4847277556440903
5381.866455078125	-15.3419778074073	-11.21998702990324	25.8022192592702	-29.92299705413689	2.779530846450339	23.7076181107314	3537.620512820513	3682.051282051282	0.3846153846153846	0.215736040609137	0.4794156706507304
5401.397705078125	-14.82199696400013	-11.30209075866756	25.8003035999867	-30.28721904828347	2.037117790614671	23.42875784942855	3508.492307692307	3671.794871794872	0.3794871794871795	0.2017766497461929	0.4847277556440903
5420.928955078125	-13.67101875893349	-12.0353479765541	24.89812410665149	-30.64266588399455	2.412524917022394	23.06979614189408	3541.989743589743	3677.655677655677	0.3769230769230769	0.215736040609137	0.4887118193891102
5440.460205078125	-14.50650597781726	-12.10842896240457	25.34940221827435	-30.30128180218649	1.675536262260177	23.08052656211266	3525.969230769231	3674.725274725275	0.367948717948718	0.2398477157360406	0.4807436918990704
5459.991455078125	-15.54880683727853	-11.09570509434868	25.11931627214673	-28.93518296479811	0.2290337519291298	22.64171454528504	3511.405128205128	3673.260073260073	0.3743589743589744	0.2436548223350254	0.4807436918990704
5479.522705078125	-14.62915680212939	-12.45070547600317	25.08431978706142	-28.5903113200221	1.366103933299199	22.14401078572449	3531.794871794872	3673.260073260073	0.3743589743589744	0.233502538071066	0.4687915006640106
5499.053955078125	-14.5058596274806	-13.72446639162921	25.41403725193997	-27.51755819710906	2.486548117622779	22.68576124647157	3517.230769230769	3670.32967032967	0.3692307692307693	0.2538071065989848	0.4648074369189907
5518.585205078125	-13.83151124095571	-14.76401980048088	24.84887590442879	-27.53927108913533	4.01005062446054	21.45416400998347	3540.533333333333	3671.794871794872	0.3717948717948718	0.2550761421319797	0.4701195219123506
5538.116455078125	-14.42836037540028	-14.4919714054611	25.16396245997244	-26.86764062661039	2.547098513996075	21.10069308102752	3528.882051282051	3670.32967032967	0.3653846153846154	0.266497461928934	0.4661354581673307
5557.647705078125	-14.1130232821547	-14.91353879271606	24.69767178453019	-27.19259941185973	2.516823315809427	21.89322716374954	3509.948717948718	3673.260073260073	0.3666666666666666	0.2677664974619289	0.4701195219123506
5577.178955078125	-13.15937891272793	-15.26287345199094	24.06210872720692	-27.53983359929145	2.508598515742718	21.93589770768538	3541.989743589743	3676.190476190476	0.3551282051282051	0.2766497461928934	0.4621513944223107
5596.710205078125	-14.12522699208252	-15.40121304568897	23.47730079174838	-27.83959192954657	2.828879646850595	23.45159484711639	3518.687179487179	3677.655677655677	0.3705128205128205	0.282994923857868	0.4528552456839309
5616.241455078125	-14.68229541780701	-15.59088162801491	23.77045821929866	-28.26827758758459	1.023772404071383	21.37817718507967	3521.6	3673.260073260073	0.358974358974359	0.282994923857868	0.4581673306772908
5635.772705078125	-13.36251451210399	-16.37309111200574	23.74854878960127	-28.28762793695515	1.418429529605784	20.60161316421628	3521.6	3671.794871794872	0.358974358974359	0.2969543147208122	0.4555112881806109
5655.303955078125	-12.42268972844668	-17.17000645119193	21.73102715533214	-28.25770239664952	-0.4887049037064091	22.23484265217468	3511.405128205128	3671.794871794872	0.3487179487179487	0.2969543147208122	0.4528552456839309
5674.835205078125	-12.0535061120119	-17.2213434422526	22.64938879881022	-28.29752811570288	-2.702294870073251	21.64518200585171	3525.969230769231	3674.725274725275	0.3474358974358974	0.3083756345177665	0.4448871181938911
5694.366455078125	-13.2485278601618	-17.36821763046735	23.14721398382031	-27.99304470013635	-5.280266763787848	21.03955129767011	3527.425641025641	3671.794871794872	0.3538461538461539	0.3286802030456852	0.4262948207171314
5713.897705078125	-14.6544260224339	-17.27133740964946	22.55739775661031	-27.63996040708096	-4.526828508892212	20.94347978957987	3505.579487179487	3668.864468864469	0.3551282051282051	0.3248730964467005	0.4409030544488711
5733.428955078125	-13.4515865130692	-18.67082069872318	22.84134869307962	-28.32565362350892	-3.42545792678224	20.94871943121992	3520.14358974359	3671.794871794872	0.3435897435897436	0.3362944162436548	0.4329349269588313
5752.960205078125	-13.49901570077303	-19.08599414221923	22.0984299226965	-27.60069719818372	-3.814690651243192	22.01487413360475	3508.492307692307	3668.864468864469	0.3512820512820513	0.3388324873096447	0.4342629482071713
5772.491455078125	-12.56977813563016	-19.41221639070585	23.02218643698453	-27.58190935896929	-5.710799885495416	23.27317185217006	3524.51282051282	3679.120879120879	0.3512820512820513	0.3401015228426396	0.4196547144754316
5792.022705078125	-12.7818087467821	-19.28268085805777	21.81912532179013	-26.92085408737943	-5.66127468818209	22.0630354561191	3515.774358974359	3668.864468864469	0.3371794871794872	0.3477157360406091	0.4169986719787516
5811.553955078125	-12.75007663868278	-19.62088413339194	20.9923361317225	-26.23223581813964	-6.390038542877598	22.03109533240184	3499.753846153846	3668.864468864469	0.3474358974358974	0.3439086294416243	0.4209827357237715
5831.085205078125	-13.33904645473763	-20.04910154225346	22.09535452623751	-27.28158851855805	-4.529628907885472	21.27574101503713	3523.05641025641	3670.32967032967	0.3474358974358974	0.3629441624365482	0.4023904382470119
5850.616455078125	-12.18772968520892	-20.62885455640053	21.22703147910811	-27.31792667464346	-4.869160038120028	20.17764618893504	3521.6	3667.399267399267	0.3461538461538462	0.3553299492385786	0.4077025232403718
5870.147705078125	-12.46988807674456	-20.16233611941107	21.01119232554389	-27.65751072395193	-6.762468873378993	21.10368268204309	3511.405128205128	3670.32967032967	0.3397435897435898	0.3769035532994924	0.398406374501992
5889.678955078125	-11.9973210317475	-20.69809037331964	20.26789682525026	-27.99360721029246	-6.781718872505671	21.52128499537202	3525.969230769231	3670.32967032967	0.3448717948717949	0.383248730964467	0.3824701195219123
5909.210205078125	-12.51009968568906	-20.62326085591558	20.99003143109351	-28.6270994842324	-7.60953312182783	23.90961766375668	3511.405128205128	3673.260073260073	0.3397435897435898	0.381979695431472	0.3957503320053121
5928.741455078125	-12.4288762245261	-21.70221962861325	21.11237754738979	-29.64596413418906	-6.154805811430075	24.30575913664846	3540.533333333333	3683.516483516483	0.3474358974358974	0.3946700507614213	0.3784860557768924
5948.272705078125	-12.96927866071286	-20.56102855268001	19.07213392871433	-28.8946822335574	-3.190577989160856	25.13160950033845	3524.51282051282	3677.655677655677	0.3371794871794872	0.3895939086294416	0.3891102257636122
5967.803955078125	-12.36756650944964	-21.99183474853279	19.2433490550358	-27.79144106018262	-2.475816129431645	26.82485575134202	3523.05641025641	3686.446886446886	0.3346153846153846	0.4060913705583756	0.3758300132802125
5987.335205078125	-12.41454940763531	-21.5228435598268	18.54505923646942	-27.73406502425829	1.973414201421978	27.25431350520177	3556.553846153846	3690.84249084249	0.3294871794871795	0.4111675126903553	0.3705179282868525
6006.866455078125	-12.37724637520575	-22.78975039181142	18.27536247942451	-29.12885187960883	1.195301546326213	27.47839664509951	3524.51282051282	3686.446886446886	0.3243589743589744	0.4086294416243654	0.3718459495351925
6026.397705078125	-11.44691617020805	-24.84784543732064	19.3083829791949	-28.09299942293733	0.474762491697415	27.40378597744642	3524.51282051282	3689.377289377289	0.3243589743589744	0.4225888324873096	0.3705179282868525
6045.928955078125	-11.45117900457124	-25.18969382076767	18.88209954287642	-26.69348748227537	-1.004815615813539	28.08976926879809	3505.579487179487	3684.981684981685	0.3294871794871795	0.4238578680203046	0.3612217795484727
6065.460205078125	-10.22219370073118	-24.96019974687689	17.78062992688239	-25.68227297044196	-0.5744588910190404	26.81026184673409	3540.533333333333	3689.377289377289	0.3141025641025641	0.4289340101522842	0.3532536520584329
6084.991455078125	-9.939404348152607	-25.00427853144279	18.05956518473924	-24.26982329618923	-4.695359687611146	28.80794382080548	3534.707692307692	3687.912087912088	0.3153846153846154	0.4365482233502538	0.3532536520584329
6104.522705078125	-8.985975428838058	-25.81493404764279	17.40245711619409	-23.562417187735	-7.320232776558878	30.03430141565352	3521.6	3689.377289377289	0.3102564102564103	0.4378172588832487	0.3439575033200531
6124.053955078125	-9.469099529333841	-25.88390178306512	17.09004706661594	-24.30312389743158	-11.79693790660589	30.06511651905854	3536.164102564102	3690.84249084249	0.3192307692307692	0.4517766497461929	0.3359893758300133
6143.585205078125	-10.74674516437612	-26.4504027685955	17.32548356238758	-24.35937491304367	-13.24326402002387	28.67219136979497	3546.358974358974	3686.446886446886	0.3102564102564103	0.4568527918781726	0.3373173970783532
6163.116455078125	-10.92405814444514	-26.12362435103348	15.59418555548579	-25.75652431104991	-12.89253129381627	28.44124129406801	3537.620512820513	3683.516483516483	0.3051282051282052	0.4631979695431472	0.3253652058432935
6182.647705078125	-10.56083018468384	-26.28433074423856	15.91698153161638	-26.07034539520806	-12.93383169106289	29.60870714618314	3514.317948717948	3686.446886446886	0.3064102564102564	0.4454314720812183	0.3240371845949535
6202.178955078125	-10.04398875719758	-26.51710981676891	15.60112428024273	-26.78123906663023	-12.18301743824744	28.89078373111421	3508.492307692307	3682.051282051282	0.3038461538461538	0.4695431472081218	0.3187250996015936
6221.710205078125	-10.20292692055308	-27.13196688716447	15.70730794469211	-29.24529148192585	-12.2075154415345	28.06468223048576	3534.707692307692	3690.84249084249	0.3	0.4708121827411167	0.3081009296148738
6241.241455078125	-10.16156111457883	-26.55682327427538	15.8438885421168	-25.78408730869984	-12.11424224180744	27.26304502173431	3541.989743589743	3689.377289377289	0.3051282051282052	0.483502538071066	0.297476759628154
6260.772705078125	-10.56426199718561	-26.70394153668869	15.5738002814394	-24.34126208601657	-9.506171546819264	28.03025477962984	3539.076923076923	3684.981684981685	0.2961538461538462	0.4796954314720812	0.300132802124834
6280.303955078125	-10.24917113263971	-27.50987561757235	15.08288673602929	-22.59867853307819	-7.218381982938966	27.28176739809435	3524.51282051282	3680.58608058608	0.2897435897435898	0.4936548223350253	0.2868525896414342
6299.835205078125	-9.462359634251889	-27.73532446171328	13.76403657481105	-22.59867853307819	-7.218381982938966	27.28176739809435	3543.446153846154	3690.84249084249	0.3	0.4911167512690355	0.2921646746347941
6319.366455078125	-7.060327878136492	-28.41522268923598	13.9672121863508	-23.63385597756235	-12.13104463576699	29.25661237447789	3523.05641025641	3687.912087912088	0.2846153846153846	0.5063451776649746	0.2921646746347941
6338.897705078125	-8.053799124164515	-29.48873980767076	14.62008758354847	-23.31643482840504	-17.35033921856274	29.962680349016	3523.05641025641	3686.446886446886	0.2884615384615384	0.4949238578680203	0.2682602921646746
6358.428955078125	-8.660697467414709	-29.09115709637268	13.93025325852905	-21.93627323711364	-18.4352602005393	29.87209961950428	3537.620512820513	3689.377289377289	0.2846153846153846	0.498730964467005	0.2722443559096945
6377.960205078125	-10.34629173422567	-28.68409150227823	13.37082657743338	-22.94636272863481	-15.86271270789815	30.18813964616445	3530.338461538461	3692.307692307692	0.2846153846153846	0.5126903553299492	0.2576361221779548
6397.491455078125	-10.52089619859822	-29.12927945480041	11.910380140178	-22.19451831784704	-11.39703277691111	30.53225631215253	3546.358974358974	3696.703296703297	0.2782051282051282	0.5101522842639593	0.2563081009296149
6417.022705078125	-7.40784398457131	-28.53807757558298	11.21560154286903	-22.82339800850679	-7.347883972665334	31.44868740535424	3544.902564102564	3693.772893772893	0.2705128205128205	0.5203045685279187	0.2443559096945551
6436.553955078125	-5.076232405420479	-29.14992834744839	12.37675945795214	-25.97764372147934	-18.282628263585	34.48169512798115	3541.989743589743	3695.238095238095	0.2653846153846154	0.5317258883248731	0.2443559096945551
6456.085205078125	-6.638298658176701	-30.59377989370307	12.17013418232989	-26.71182531336491	-27.64732164625992	36.3593435759622	3544.902564102564	3701.098901098901	0.2692307692307692	0.5241116751269035	0.247011952191235
6475.616455078125	-9.505833773467135	-31.03910788879819	13.4166226532866	-24.68174615157485	-28.67169223186318	34.68369468100642	3553.641025641025	3699.6336996337	0.2653846153846154	0.5393401015228426	0.2284196547144754
6495.147705078125	-10.39798375629268	-30.44111332922131	12.20162437073178	-23.26187134326131	-20.40836943129823	32.80080659138531	3524.51282051282	3693.772893772893	0.2525641025641026	0.532994923857868	0.2350597609561753
6514.678955078125	-10.39992280730265	-29.5930010415474	12.00771926973492	-24.31021152539871	-8.410401762695811	28.70001687218442	3544.902564102564	3690.84249084249	0.2653846153846154	0.5418781725888324	0.2138114209827357
6534.210205078125	-9.344772503148649	-29.73254900258909	9.522749685135048	-24.67105845860855	-0.1441021662245415	25.53075442467009	3511.405128205128	3680.58608058608	0.2525641025641026	0.5456852791878172	0.2071713147410358
6553.741455078125	-7.271035625599414	-30.59317709506767	8.896437440058699	-26.11107113051121	4.755087682376398	22.35487617826501	3534.707692307692	3677.655677655677	0.2564102564102564	0.5444162436548223	0.201859229747676
6573.272705078125	-5.859366478178597	-31.11896293396269	10.06335218214029	-27.18382425342424	3.634643498052818	21.81312571751793	3511.405128205128	3674.725274725275	0.2358974358974359	0.5469543147208121	0.1965471447543161
6592.803955078125	-5.827018798330077	-31.99624947522508	9.298120166992302	-26.51095626855584	-1.960058211150654	22.87815539959052	3515.774358974359	3674.725274725275	0.2474358974358975	0.5571065989847716	0.1965471447543161
6612.335205078125	-5.530148241988641	-31.24685796789916	10.98517580113585	-27.14669858312026	-8.793680895344105	27.19342285878282	3530.338461538461	3687.912087912088	0.2474358974358975	0.5507614213197969	0.1938911022576361
6631.866455078125	-5.500801474417454	-31.62111358776145	9.919852558254631	-26.11669623207242	-10.25943340480183	27.17221315528413	3528.882051282051	3686.446886446886	0.2435897435897436	0.5685279187817258	0.1739707835325365
6651.397705078125	-6.706657285353209	-31.68012229563941	9.334271464679107	-24.39110048584888	-8.705832096690491	26.10219496850995	3518.687179487179	3683.516483516483	0.2230769230769231	0.5596446700507614	0.1766268260292165
6670.928955078125	-9.271336024613023	-31.34210446129469	8.866397538697918	-23.37763593339099	-2.269666937024701	22.89575275563831	3517.230769230769	3674.725274725275	0.2294871794871795	0.565989847715736	0.1633466135458167
6690.460205078125	-7.282346756490897	-32.3125220836365	7.765324350910368	-23.73960788691307	2.993728442010923	20.6899577035278	3530.338461538461	3673.260073260073	0.2333333333333333	0.5621827411167513	0.1646746347941567
6709.991455078125	-6.882262053818208	-32.62429994102822	7.77379461817931	-24.12554277308591	3.774817893013017	19.17950020573684	3518.687179487179	3668.864468864469	0.2217948717948718	0.5697969543147208	0.1447543160690571
6729.522705078125	-4.205043256226817	-32.34059861890322	7.495674377318395	-23.85210991813725	0.1010762151749674	17.90410740500066	3515.774358974359	3663.003663003663	0.2230769230769231	0.5710659898477157	0.1580345285524568
6749.053955078125	-4.688136578135138	-32.48652051762197	7.186342186486229	-22.86890841207866	-7.326383932914173	18.31010541473724	3514.317948717948	3665.934065934066	0.2128205128205128	0.5761421319796954	0.147410358565737
6768.585205078125	-3.891706771166127	-32.76014539189144	6.829322883387318	-21.84993126009078	-15.91576505948658	20.29593194827781	3504.123076923077	3667.399267399267	0.2141025641025641	0.581218274111675	0.147410358565737
6788.116455078125	-3.971006570612851	-32.49082182521948	6.899342938714907	-20.4908075486383	-21.1103852420822	20.87398829100842	3523.05641025641	3667.399267399267	0.2141025641025641	0.58248730964467	0.1367861885790173
6807.647705078125	-3.9030640699388	-32.36405913551565	5.693593006120014	-17.69875879325029	-27.81765912936868	23.26282323326999	3505.579487179487	3673.260073260073	0.208974358974359	0.5710659898477157	0.1354581673306773
6827.178955078125	-4.14821182562576	-33.4333829791949	5.178817437424053	-17.71867165277697	-28.9244541125521	22.96799291010851	3530.338461538461	3676.190476190476	0.2115384615384615	0.5888324873096447	0.1142098273572377
6846.710205078125	-4.577273952820119	-32.67079946149784	6.272604717988114	-17.00485292854297	-29.30266163795308	23.65921584310024	3537.620512820513	3676.190476190476	0.1987179487179487	0.5888324873096447	0.1168658698539177
6866.241455078125	-5.501971676312675	-32.69531629923189	5.802832368732402	-15.95088764484437	-26.28610821937728	22.94266858528201	3525.969230769231	3674.725274725275	0.208974358974359	0.5926395939086294	0.1075697211155378
6885.772705078125	-5.938420664497393	-33.46373359039609	6.157933550260816	-14.56026336464912	-21.74885269295697	21.32678531643293	3528.882051282051	3673.260073260073	0.2	0.5913705583756345	0.1088977423638778
6905.303955078125	-6.493365367687162	-32.96323944017443	6.663463231283847	-13.13386343852459	-18.37351814501993	21.29073057138785	3499.753846153846	3668.864468864469	0.2064102564102564	0.5761421319796954	0.1035856573705179
6924.835205078125	-5.054211557236477	-34.20755401949884	6.578844276352317	-12.42128223663405	-14.61997607168191	20.56345289335105	3492.471794871794	3667.399267399267	0.1987179487179487	0.5862944162436548	0.08632138114209827
6944.366455078125	-4.807155529127009	-33.9093883001971	7.284447087299153	-11.75145180660871	-13.45263069212519	19.27321505106848	3514.317948717948	3667.399267399267	0.1961538461538462	0.5913705583756345	0.08897742363877821
6963.897705078125	-4.147426971645535	-34.39571414325339	5.25730283544659	-9.659271523582897	-12.28546170948155	18.93709034122186	3502.666666666666	3665.934065934066	0.1833333333333333	0.5888324873096447	0.1035856573705179
6983.428955078125	-3.858528069456192	-33.71519434215693	6.147193054380838	-8.645131958937657	-11.48249825727259	17.63088243708066	3524.51282051282	3665.934065934066	0.1948717948717949	0.5913705583756345	0.08233731739707835
7002.960205078125	-4.912417067096089	-33.72922799300218	4.758293290391048	-7.964726337977236	-11.82763018549366	17.1973100618931	3517.230769230769	3663.003663003663	0.1923076923076923	0.5926395939086294	0.09163346613545816
7022.491455078125	-3.915821794440894	-34.46655844915316	4.417820555910534	-6.92831137114961	-11.04671713140463	16.64096569653809	3520.14358974359	3661.538461538461	0.1833333333333333	0.598984771573604	0.09163346613545816
7042.022705078125	-4.465472580587576	-33.20218038591424	5.452741941242445	-5.53059946298724	-9.895997748894407	16.39018207456314	3514.317948717948	3664.468864468864	0.1935897435897436	0.6040609137055837	0.08366533864541832
7061.553955078125	-4.557422379480285	-33.30469570441721	4.257762051971492	-3.469469740579301	-9.824598550374214	15.38429527216194	3502.666666666666	3664.468864468864	0.1807692307692308	0.5913705583756345	0.07569721115537847
7081.085205078125	-4.797753286229783	-33.41734610398484	4.224671377021691	-2.105170935690512	-8.640803570684078	14.0087163420077	3483.733333333333	3655.677655677655	0.1743589743589744	0.6015228426395939	0.07835325365205843
7100.616455078125	-3.967375312864342	-33.56987401093009	3.262468713565847	-2.85127774288585	-5.226616230667542	11.22923070543286	3511.405128205128	3652.747252747252	0.1794871794871795	0.5951776649746192	0.07569721115537847
7120.147705078125	-3.482573779352	-34.69490817516217	3.742622064800007	-0.4405512903904816	-6.275837613383998	10.63570657472053	3486.646153846154	3648.351648351648	0.1858974358974359	0.5901015228426395	0.06374501992031872
7139.678955078125	-3.48600559185377	-33.11451896761231	3.39944081462303	-0.4991648486582762	-6.593318345498616	8.787748209832257	3508.492307692307	3646.886446886447	0.1794871794871795	0.5875634517766497	0.06905710491367861
7159.210205078125	-3.405105305859135	-34.38545902569766	3.489469414086497	0.5032745047396499	-7.280781802947508	7.588342233999871	3498.297435897436	3645.421245421245	0.182051282051282	0.5964467005076142	0.06905710491367861
7178.741455078125	-3.558210926891006	-34.58313004076315	4.178907310899436	2.225382687995233	-7.601239330968455	7.026758227004807	3508.492307692307	3643.956043956044	0.1692307692307692	0.6065989847715736	0.0650730411686587
7198.272705078125	-4.041396584561707	-33.49818944959267	3.860341543829323	2.54797893058886	-6.442118751478447	5.779190928658071	3502.666666666666	3642.490842490842	0.1794871794871795	0.5926395939086294	0.05843293492695883
7217.803955078125	-3.606732754449661	-34.26643068723661	3.326724555033961	3.923415436568842	-5.269348970848282	4.778543767896929	3469.169230769231	3632.234432234432	0.1666666666666667	0.6002538071065989	0.05843293492695883
7237.335205078125	-4.524751524463436	-32.99000096029193	3.524847553656311	3.529830412272762	-2.603175484653932	2.384720320933757	3493.928205128205	3632.234432234432	0.1666666666666667	0.5964467005076142	0.06640106241699867
7256.866455078125	-3.446701951239331	-33.38344641386365	3.329804876066939	4.541044924106174	-2.172818759859434	1.10521289886976	3477.907692307692	3624.908424908425	0.1730769230769231	0.5913705583756345	0.0650730411686587
7276.397705078125	-3.558103201834897	-33.8524696123006	4.189679816510372	4.866003709355508	-2.142543561672786	0.3126788161477331	3472.082051282051	3626.373626373626	0.1730769230769231	0.6040609137055837	0.06905710491367861
7295.928955078125	-3.217605228912667	-34.1825264111059	2.239477108733363	4.145772369341731	-4.011001599818553	0.1565905450123252	3477.907692307692	3617.582417582417	0.1730769230769231	0.6015228426395939	0.07304116865869853
7315.460205078125	-3.16261989798745	-34.65960005687882	3.738010201255027	5.50602110110645	-6.202717564978527	-0.2288205076608858	3472.082051282051	3627.838827838828	0.1641025641025641	0.5913705583756345	0.06640106241699867
7334.991455078125	-3.158187781393236	-33.74099957156206	4.181221860676414	5.82276723807642	-5.788810440317447	-1.422986841853213	3483.733333333333	3620.51282051282	0.1628205128205128	0.598984771573604	0.0597609561752988
7354.522705078125	-3.844093527509286	-33.80515784490792	3.590647249071409	5.484308209080185	-4.679215058140766	-1.460417744148991	3477.907692307692	3620.51282051282	0.1730769230769231	0.6053299492385786	0.07038512616201859
7374.053955078125	-4.399453741629764	-32.26578249018471	4.054625837023686	5.166324549766749	-0.9613725840628413	-1.684752020985195	3467.71282051282	3620.51282051282	0.1679487179487179	0.6065989847715736	0.06640106241699867
7393.585205078125	-3.114067291841336	-33.05325357370178	4.593270815866484	5.186799919449548	1.646874507838403	-1.871655395525623	3476.451282051281	3620.51282051282	0.1666666666666667	0.598984771573604	0.06374501992031872
7413.116455078125	-3.881627399344785	-33.96109478820023	3.837260065521456	5.870130593221797	1.674349307031791	-2.331928252790388	3469.169230769231	3621.978021978022	0.1641025641025641	0.6015228426395939	0.07304116865869853
7432.647705078125	-3.563489454640365	-33.38549103542861	3.651054535963548	6.200939484094789	2.449837960047365	-3.177863299666823	3470.625641025641	3620.51282051282	0.1679487179487179	0.5964467005076142	0.06108897742363877
7452.178955078125	-3.687848490556514	-33.45681148607638	3.21515094434862	5.501746023919932	4.691079122520664	-4.002588643044571	3480.820512820513	3619.047619047619	0.1782051282051282	0.6040609137055837	0.05843293492695883
7471.710205078125	-3.322881540603728	-32.96542810552869	3.711845939627184	5.502308534076052	6.192531231238488	-4.484322340746482	3470.625641025641	3617.582417582417	0.1884615384615385	0.6053299492385786	0.06241699867197875
7491.241455078125	-2.32682489322908	-33.35606070399247	3.317510677091989	5.823779756357437	4.348747593292848	-4.768422243689394	3483.733333333333	3619.047619047619	0.1666666666666667	0.598984771573604	0.0544488711819389
7510.772705078125	-1.807936689676739	-33.70629163573418	3.206331032326134	6.149976063950238	0.2472731927404914	-4.142455715382889	3482.276923076923	3619.047619047619	0.1769230769230769	0.5964467005076142	0.0743691899070385
7530.303955078125	-2.363604689671814	-33.39737464804685	3.639531032818592	7.551850547267902	-2.361150296073822	-3.00143920840651	3457.517948717949	3621.978021978022	0.1846153846153846	0.5951776649746192	0.06374501992031872
7549.835205078125	-2.830246856582863	-33.67529682869746	4.975314341713727	6.493722688414009	-1.618560843325086	-3.676692079539608	3496.841025641026	3620.51282051282	0.1705128205128205	0.6015228426395939	0.06374501992031872
7569.366455078125	-3.40435123046637	-33.27083602645973	3.564876953363052	6.177539061600161	-0.5310158592683425	-2.964259443049192	3470.625641025641	3619.047619047619	0.1782051282051282	0.5977157360406091	0.06640106241699867
7588.897705078125	-3.570106850944226	-32.84034592670017	2.989314905577449	5.505908599075226	0.9319362511961233	-2.610788514093242	3466.25641025641	3620.51282051282	0.1782051282051282	0.5888324873096447	0.06640106241699867
7608.428955078125	-3.726490391540567	-32.84239855069787	3.35096084594332	4.800865033276711	2.427963958840496	-3.382112893316582	3482.276923076923	3617.582417582417	0.182051282051282	0.598984771573604	0.0650730411686587
7627.960205078125	-2.921504137257726	-33.50928082136969	3.849586274227365	5.136961519617239	2.447213957967174	-3.799715206645513	3473.538461538461	3617.582417582417	0.1833333333333333	0.6027918781725888	0.0650730411686587
7647.491455078125	-3.245105281236265	-34.42552058902829	3.489471876373494	5.13403646680541	2.074607230552712	-3.773014724568309	3492.471794871794	3621.978021978022	0.1730769230769231	0.6053299492385786	0.07569721115537847
7667.022705078125	-2.683450845980255	-34.70202233786763	3.654915401974507	5.502983546263397	0.5593295237816599	-2.584088032016038	3479.364102564102	3620.51282051282	0.191025641025641	0.6015228426395939	0.06374501992031872
7686.553955078125	-3.196121774865713	-33.89653239200101	4.387822513428697	5.51412124735459	0.5483043247216908	-2.209156262622942	3461.887179487179	3621.978021978022	0.1743589743589744	0.5964467005076142	0.06241699867197875
7706.085205078125	-3.058959462138029	-33.83660478939444	2.104053786197158	5.169812112734697	0.9126862520694448	-2.193186200764311	3486.646153846154	3623.443223443223	0.1884615384615385	0.5926395939086294	0.07835325365205843
7725.616455078125	-3.083381655715646	-33.77501529695797	3.661834428435475	4.816727819679319	0.1592479971738084	-2.097114692674069	3482.276923076923	3619.047619047619	0.1756410256410256	0.5939086294416244	0.05843293492695883
7745.147705078125	-4.444143635049671	-33.52987646706137	3.585636495032951	4.5034692456773	1.619399708645015	-1.411382538260857	3473.538461538461	3627.838827838828	0.1705128205128205	0.598984771573604	0.07038512616201859
7764.678955078125	-3.368802577522029	-34.15135555054889	3.119742247797176	4.842490784829655	2.011256435186157	-1.855685333666992	3477.907692307692	3623.443223443223	0.1794871794871795	0.5977157360406091	0.0650730411686587
7784.210205078125	-3.794786845970406	-33.08418836249297	4.521315402959422	4.481193843494913	1.641450106764953	-2.16124607704705	3485.189743589744	3624.908424908425	0.182051282051282	0.598984771573604	0.05843293492695883
7803.741455078125	-3.493423231431586	-33.56856561317717	2.657676856841403	5.189162462105255	0.5180291265350433	-1.416622179900914	3480.820512820513	3626.373626373626	0.1794871794871795	0.6027918781725888	0.05843293492695883
7823.272705078125	-3.764578277950343	-33.61316055465477	3.542172204965693	5.175099708202234	0.1564475981805489	-1.764853467216807	3486.646153846154	3623.443223443223	0.182051282051282	0.6091370558375634	0.0650730411686587
7842.803955078125	-3.478249387813896	-33.50696811830797	4.175061218610457	5.54404678766022	-1.358830108590503	-0.5759267746645367	3461.887179487179	3626.373626373626	0.1923076923076923	0.6027918781725888	0.07304116865869853
7862.335205078125	-3.077964624322717	-33.31894803712636	4.203537567728281	4.833153116238049	-0.6080158557750565	-1.293850189733468	3486.646153846154	3626.373626373626	0.1833333333333333	0.5939086294416244	0.0743691899070385
7881.866455078125	-2.961361792446442	-33.85517843578293	3.863820755355781	5.155186848675555	-0.9503473850028723	-2.059683790378292	3483.733333333333	3623.443223443223	0.1782051282051282	0.6002538071065989	0.06640106241699867
7901.397705078125	-3.803774193508672	-33.61357267994086	3.62258064913272	5.527621491101491	-0.5915662556416376	-1.379191277605137	3464.8	3626.373626373626	0.1756410256410256	0.5964467005076142	0.07702523240371846
7920.928955078125	-3.602793095254804	-33.11656358917726	3.720690474519638	5.852580276350826	-0.5612910574549901	-2.171725360327165	3486.646153846154	3623.443223443223	0.1871794871794872	0.5977157360406091	0.0650730411686587
7940.460205078125	-3.369541263621064	-33.30445563143503	3.045873637893612	5.838517522447805	-0.9228725858094843	-2.519956647643057	3476.451282051281	3620.51282051282	0.1948717948717949	0.6040609137055837	0.07171314741035856
7959.991455078125	-3.764870674531212	-32.88209600333886	3.512932546878866	5.488358282204255	-1.303704113290658	-2.450585621630019	3482.276923076923	3621.978021978022	0.1756410256410256	0.6015228426395939	0.06108897742363877
7979.522705078125	-4.243793497838729	-33.45530702872134	3.620650216127241	5.152261795863726	-1.322954112417336	-2.032983308301088	3473.538461538461	3621.978021978022	0.1769230769230769	0.5901015228426395	0.06108897742363877
7999.053955078125	-3.762069823072368	-33.88492486331229	3.793017692763215	5.855505329162654	-0.1886843300405266	-2.198425842404369	3461.887179487179	3621.978021978022	0.1705128205128205	0.5964467005076142	0.0650730411686587
8018.585205078125	-3.522277541603417	-34.42557660605747	3.772245839658333	5.488920792360375	0.1977479954271654	-2.932319319331931	3479.364102564102	3621.978021978022	0.1807692307692308	0.5964467005076142	0.07304116865869853
8038.116455078125	-3.757883935177833	-34.35069107162423	4.211606482216747	6.172251466132624	0.2252227946205533	-3.392592176596696	3479.364102564102	3617.582417582417	0.1717948717948718	0.5977157360406091	0.07038512616201859
8057.647705078125	-3.876902886169703	-33.77355885419937	4.309711383029671	5.855505329162654	-0.1886843300405266	-2.198425842404369	3464.8	3621.978021978022	0.1782051282051282	0.5913705583756345	0.0743691899070385
8077.178955078125	-3.724674454880438	-33.38269418518614	3.532554511956249	6.208589622218032	0.5647539248551097	-2.294497350494611	3477.907692307692	3623.443223443223	0.1935897435897436	0.6002538071065989	0.07835325365205843
8096.710205078125	-3.559395902508209	-33.62039475385132	4.060409749179135	6.219727323309225	0.5537287257951407	-1.919565581101514	3482.276923076923	3620.51282051282	0.182051282051282	0.5977157360406091	0.07835325365205843
8116.241455078125	-3.43676046748981	-33.23964115860452	4.323953251019079	6.238515162523663	-1.342380508457084	-0.6612678625362057	3470.625641025641	3626.373626373626	0.1807692307692308	0.5926395939086294	0.06374501992031872
8135.772705078125	-4.070851077189005	-33.85459425819295	4.914892281099608	5.874293168377092	-2.084793564292751	-0.9401281238390598	3485.189743589744	3627.838827838828	0.182051282051282	0.5939086294416244	0.07304116865869853
8155.303955078125	-4.60071184717077	-33.0702041112806	3.928815282922931	6.238515162523663	-1.342380508457084	-0.6612678625362057	3466.25641025641	3626.373626373626	0.1807692307692308	0.5901015228426395	0.07968127490039841
8174.835205078125	-4.043504917802705	-34.2268292637885	3.649508219729566	5.181512323982012	2.403113161727298	-2.299988129073127	3480.820512820513	3621.978021978022	0.1884615384615385	0.5875634517766497	0.07569721115537847
8194.366455078125	-4.551081990463564	-33.15725334347795	4.891800953643753	5.215487937411712	3.871489673265214	-1.65692651859575	3467.71282051282	3623.443223443223	0.1807692307692308	0.5913705583756345	0.07835325365205843
8213.897705078125	-4.240300128162039	-32.18960456286403	3.969987183796181	5.565084667499141	2.750869092028564	-1.244563846906876	3460.430769230769	3621.978021978022	0.1782051282051282	0.6027918781725888	0.0743691899070385
8233.428955078125	-3.514613673325922	-33.58716326686389	4.538632667407814	5.89769359087172	0.8960602550229566	-1.153731980456691	3486.646153846154	3627.838827838828	0.1743589743589744	0.6002538071065989	0.07171314741035856
8252.960205078125	-3.647005920569084	-33.5734470971483	3.299407943091623	6.255502969238513	-0.6081922526881257	-0.3397370572975171	3467.71282051282	3620.51282051282	0.1782051282051282	0.5964467005076142	0.0650730411686587
8272.491455078125	-4.072959410430002	-33.58323407238877	4.704058956999851	5.880705784156869	0.1618719992539988	-1.47526278569538	3485.189743589744	3627.838827838828	0.1846153846153846	0.598984771573604	0.07171314741035856
8292.022705078125	-4.514886987182565	-33.65381029679176	4.511301281743496	5.192087514917084	0.8906358539495067	-1.443322661978119	3492.471794871794	3629.304029304029	0.1897435897435897	0.5939086294416244	0.07702523240371846
8311.553955078125	-3.802758500122498	-33.15306006872243	3.724149987750122	5.917043940242277	0.5014031294885551	-0.3771679595932942	3467.71282051282	3620.51282051282	0.1692307692307692	0.5888324873096447	0.07038512616201859
8331.085205078125	-4.390204776098088	-33.39050856075631	4.979522390191232	5.211437864287642	0.4959787284151053	-0.6667586411147217	3492.471794871794	3629.304029304029	0.1743589743589744	0.5913705583756345	0.08100929614873838
8350.616455078125	-4.514917765770025	-33.57685613349535	4.508223422997514	5.925256588521642	0.1177712030141226	0.02446429187700605	3470.625641025641	3626.373626373626	0.1833333333333333	0.6027918781725888	0.08366533864541832
8370.147705078125	-3.792786237785518	-33.08620897675971	4.721376221448243	5.569809752810556	0.4931783294218457	-0.3344974156574598	3469.169230769231	3621.978021978022	0.1897435897435897	0.6002538071065989	0.07038512616201859
8389.678955078125	-3.600007633089691	-33.08091536750249	3.999236691030996	5.58150996405787	1.983605239079699	-0.4412993439662754	3476.451282051281	3620.51282051282	5.324358974358974	0.4606598984771573	0.07171314741035856
8409.210205078125	-3.236610391097355	-33.66486965883782	4.338960890264486	4.884679046538721	3.09600102024964	-0.8109914717193145	3485.189743589744	3626.373626373626	0.1858974358974359	0.5901015228426395	0.06241699867197875
8428.741455078125	-3.396287240551897	-34.43282681011951	4.371275944810298	4.881753993726892	2.723394292835176	-0.7842909896421106	3502.666666666666	3629.304029304029	0.1871794871794872	0.5888324873096447	0.06640106241699867
8448.272705078125	-3.563874186983612	-33.42356399422347	3.612581301638775	5.934031746957127	1.235591385257513	-0.0556371543546057	3469.169230769231	3624.908424908425	0.1858974358974359	0.598984771573604	0.06772908366533864
8467.803955078125	-4.118680386529813	-33.26936357883565	4.131961347018724	5.925256588521642	0.1177712030141226	0.02446429187700605	3472.082051282051	3626.373626373626	0.1756410256410256	0.598984771573604	0.07702523240371846
8487.335205078125	-4.361027290757929	-33.34151628248834	3.897270924207112	5.214362917099471	0.8685854558295687	-0.6934591231919257	3477.907692307692	3624.908424908425	0.1730769230769231	0.6002538071065989	0.0743691899070385
8506.866455078125	-3.677337602938986	-33.73665825180085	4.266239706101423	5.217287969911299	1.241192183244032	-0.7201596052691296	3483.733333333333	3626.373626373626	0.1884615384615385	0.5913705583756345	0.08233731739707835
8526.397705078125	-4.033671159109293	-32.81368443699192	4.632884089070769	4.870053782479578	1.232967383177323	-0.677489061333295	3470.625641025641	3627.838827838828	0.1846153846153846	0.5926395939086294	0.07171314741035856
8545.928955078125	-3.956541250078485	-33.65773949126688	4.34587499215146	5.222575565378834	0.4849535293551363	-0.2918268717216253	3453.148717948718	3619.047619047619	0.1782051282051282	0.598984771573604	0.07968127490039841
8565.460205078125	-4.400638717246967	-33.30304720327288	3.936128275303384	4.858916081388385	1.243992582237292	-1.052420830726391	3479.364102564102	3627.838827838828	0.1846153846153846	0.6002538071065989	0.06772908366533864
8585.02197265625	-4.517949456634817	-32.99687104879883	4.205054336518301	4.517531999580322	1.980981236999509	-1.063151250944965	3496.841025641026	3627.838827838828	0.1833333333333333	0.5939086294416244	0.07968127490039841
8604.522705078125	-3.16095785426462	-32.81512487488504	3.904214573538047	4.864766187012042	1.989206037066219	-1.105821794880799	3483.733333333333	3627.838827838828	0.1833333333333333	0.5926395939086294	0.07835325365205843
8624.053955078125	-3.561304174930718	-32.84923662947382	3.86958250692826	4.522819595047857	1.224742583110613	-0.6348185173974605	3464.8	3624.908424908425	0.1756410256410256	0.598984771573604	0.07968127490039841
8643.585205078125	-2.443150717818217	-32.51241777500359	3.684928218178326	4.158597600901286	0.4823295272749459	-0.9136787787003144	3486.646153846154	3624.908424908425	0.1769230769230769	0.5939086294416244	0.08233731739707835
8663.116455078125	-3.199876762535811	-33.50812446983883	4.012323746418911	4.871853814979165	-1.39733010684386	0.2592778519933252	3469.169230769231	3619.047619047619	0.1858974358974359	0.598984771573604	0.07038512616201859
8682.647705078125	-3.551870537874283	-34.43568767982389	4.812946212571698	4.16624773902453	-1.402754507917309	-0.03031282952810216	3469.169230769231	3621.978021978022	0.1782051282051282	0.5939086294416244	0.08100929614873838
8702.178955078125	-3.95410974166916	-33.73711839168337	4.589025833084026	5.596810240304358	-1.786562831304811	1.325432554378149	3447.323076923077	3621.978021978022	0.1782051282051282	0.5951776649746192	0.07038512616201859
8721.710205078125	-4.515902680568739	-33.11432290801019	4.409731943126094	4.892329184661964	1.210916985057384	0.07237447745289782	3485.189743589744	3627.838827838828	0.1769230769230769	0.5939086294416244	0.07171314741035856
8741.241455078125	-3.597252949512037	-32.96831298253131	4.274705048796372	3.484042085564523	1.572674910324948	-0.5335073676671609	3504.123076923077	3629.304029304029	0.182051282051282	0.5939086294416244	0.0650730411686587
8760.772705078125	-3.561950525267374	-33.23319920024918	3.804947473262641	3.828351220184416	1.208292982977194	-0.5494774295257915	3486.646153846154	3627.838827838828	0.1833333333333333	0.5939086294416244	0.06640106241699867
8780.303955078125	-3.633047831156056	-33.47216015207084	4.695216884394394	4.545094997230244	1.202692184990675	0.1150450213887323	3470.625641025641	3626.373626373626	0.1794871794871795	0.5875634517766497	0.0650730411686587
8799.835205078125	-4.394113656705485	-33.61732982211208	4.588634329451537	4.18728561886345	2.706944692701757	-0.6989499017704416	3485.189743589744	3629.304029304029	0.1935897435897436	0.6002538071065989	0.07304116865869853
8819.366455078125	-3.636279582839337	-33.39197300594765	4.372041716066299	4.550945102853901	1.947905639819602	0.06164405723432453	3474.994871794872	3621.978021978022	0.1897435897435897	0.5951776649746192	0.07171314741035856
8838.897705078125	-3.677399160113906	-33.58274992520803	4.26008398860946	4.874778867790994	-1.024723379429396	0.2325773699161213	3470.625641025641	3626.373626373626	0.1730769230769231	0.5913705583756345	0.0650730411686587
8858.428955078125	-3.431097207397203	-33.3992072051442	4.89027926027974	4.874216357634873	-2.526175488147219	0.7143110676180333	3460.430769230769	3623.443223443223	0.1897435897435897	0.5913705583756345	0.08366533864541832
8877.960205078125	-3.959372880124789	-33.57795646799703	4.062711987521129	4.508194330988715	-0.6382910539617039	-0.5013161070114409	3492.471794871794	3629.304029304029	0.1923076923076923	0.5926395939086294	0.07968127490039841
8897.491455078125	-4.316860633324839	-33.76920152957268	4.313936667516155	4.867691239823871	2.361812764480682	-1.132522276958003	3485.189743589744	3624.908424908425	0.1846153846153846	0.58248730964467	0.08100929614873838
8917.022705078125	-4.146072713797303	-33.78169732829549	5.392728620269792	4.515169456924614	3.109826618302868	-1.518184466569673	3488.102564102564	3626.373626373626	0.1756410256410256	0.5964467005076142	0.07569721115537847
8936.553955078125	-2.719615070673793	-33.28241954785023	4.038492932620747	5.222575565378834	0.4849535293551363	-0.2918268717216253	3463.343589743589	3620.51282051282	0.1807692307692308	0.5926395939086294	0.07702523240371846
8956.085205078125	-3.640696310139821	-32.34905057291262	3.930368986017903	5.191525004760964	-0.610816254768316	-0.9615889642762063	3485.189743589744	3627.838827838828	0.1756410256410256	0.5951776649746192	0.06905710491367861
8975.616455078125	-3.52172352702914	-33.81075154539287	3.827647297086005	5.549896893283878	-0.6136166537615756	-0.6293277388189444	3470.625641025641	3627.838827838828	0.191025641025641	0.5913705583756345	0.08366533864541832
8995.147705078125	-3.716318068385097	-33.27574952016182	4.368193161490323	4.839003221861706	0.1371975990538704	-1.347251153887876	3474.994871794872	3626.373626373626	0.1576923076923077	0.5926395939086294	0.07702523240371846
9014.678955078125	-3.273482523302469	-33.47532111300297	4.651747669753143	5.183874866637719	1.274267780423939	-1.844954913448419	3480.820512820513	3621.978021978022	0.1794871794871795	0.5939086294416244	0.06241699867197875
9034.210205078125	-3.355275388333438	-33.97271031932169	4.472461166656201	4.164447706524943	1.227542982103873	-0.9670797428547224	3472.082051282051	3624.908424908425	0.1743589743589744	0.5977157360406091	0.08366533864541832
9053.741455078125	-4.594833136965946	-33.76844930089516	4.516686303405465	4.500544192865471	1.246792981230551	-1.384682056183654	3491.015384615384	3626.373626373626	0.1858974358974359	0.5977157360406091	0.07968127490039841
9073.272705078125	-2.507399787997089	-32.87368006027678	5.260021200291042	4.169735301992479	0.4713043282149769	-0.5387470093072181	3473.538461538461	3623.443223443223	0.182051282051282	0.6040609137055837	0.08100929614873838
9092.803955078125	-4.157153005282837	-33.07819854158741	4.284699471716325	4.514044436612372	0.1069224008672229	-0.5547170711658488	3469.169230769231	3626.373626373626	0.1897435897435897	0.5964467005076142	0.08100929614873838
9112.335205078125	-3.314786772101796	-33.20437305248488	4.521322789820412	4.161522653713115	0.8549362546894093	-0.9403792607775185	3488.102564102564	3626.373626373626	0.1884615384615385	0.5875634517766497	0.0650730411686587
9131.866455078125	-3.715548603698601	-32.1996036025721	4.445139630139869	4.511681893956665	1.235767782170582	-1.009750286790557	3470.625641025641	3627.838827838828	0.1897435897435897	0.5951776649746192	0.07835325365205843
9151.397705078125	-3.950031578830734	-33.93354502845787	4.996842116926622	3.83656386846378	0.8246610565027619	-0.1478451780554912	3461.887179487179	3621.978021978022	0.1730769230769231	0.6015228426395939	0.06640106241699867
9170.928955078125	-3.640311577796573	-33.31097761411777	3.968842220342676	4.180873003083672	0.4602791291550079	-0.1638152399141217	3456.061538461538	3620.51282051282	0.1769230769230769	0.5862944162436548	0.08233731739707835
9190.460205078125	-3.991766727854499	-33.58523868179003	4.823327214550146	3.814850976437515	2.348163563340522	-1.379442414543596	3491.015384615384	3626.373626373626	0.1871794871794872	0.598984771573604	0.07702523240371846
9209.991455078125	-3.242027422490283	-33.12093691866942	3.797257750971679	3.811925923625686	1.975556835926059	-1.352741932466392	3479.364102564102	3626.373626373626	0.1846153846153846	0.5939086294416244	0.07835325365205843
9229.522705078125	-3.439622876123573	-33.08290397203827	4.037712387642766	4.145097357154386	1.622200107638274	-1.743643763718119	3488.102564102564	3623.443223443223	0.1833333333333333	0.5977157360406091	0.08499335989375829
9249.053955078125	-3.279053447632696	-33.54661755635252	4.094655236730427	4.508756841144836	0.8631610547561188	-0.9830498047133531	3458.974358974359	3624.908424908425	0.1833333333333333	0.5951776649746192	0.0650730411686587
9268.585205078125	-3.041323331523553	-32.93134035823813	3.86766684764476	3.786725468631472	1.625000506631534	-2.075904989175381	3488.102564102564	3621.978021978022	0.1858974358974359	0.6002538071065989	0.0743691899070385
9288.116455078125	-4.201227326953548	-33.8813757843923	3.877267304645227	3.800225712378372	0.4851299262682055	-1.245940004157577	3464.8	3626.373626373626	0.1846153846153846	0.5977157360406091	0.07968127490039841
9307.647705078125	-4.071928327750098	-33.16119854281855	4.807167224990242	4.477706280526965	-0.2326087293673335	-1.652811897267934	3469.169230769231	3621.978021978022	0.1769230769230769	0.5875634517766497	0.08499335989375829
9327.178955078125	-3.561827410917534	-32.54101585343482	3.817258908246568	4.122259444815878	0.1427983970403896	-2.0117736048024	3485.189743589744	3624.908424908425	0.1871794871794872	0.5977157360406091	0.07968127490039841
9346.710205078125	-4.280527126400272	-33.61205221772034	3.947287359972816	4.139247251530729	0.8769866528093473	-1.690242799563711	3483.733333333333	3619.047619047619	0.1846153846153846	0.6078680203045684	0.07968127490039841
9366.241455078125	-3.917006770058098	-33.50382316224133	4.299322994190233	4.15331000543375	1.238568181163842	-1.342011512247819	3483.733333333333	3627.838827838828	0.1871794871794872	0.6027918781725888	0.07569721115537847
9385.772705078125	-3.320680871600351	-33.46765078122211	3.931912839964887	4.1363221987189	0.504379925394884	-1.663542317486507	3476.451282051281	3621.978021978022	0.1794871794871795	0.6002538071065989	0.07569721115537847
9405.303955078125	-4.003754987670098	-33.61159207783782	3.624501232990213	4.502906735521179	0.1179475999271919	-0.9296488405589451	3467.71282051282	3623.443223443223	0.1858974358974359	0.5888324873096447	0.08366533864541832
9424.835205078125	-4.516564420199126	-33.45980839713734	4.343557980087485	4.508756841144836	0.8631610547561188	-0.9830498047133531	3482.276923076923	3629.304029304029	0.182051282051282	0.5939086294416244	0.07304116865869853
9444.366455078125	-3.326236406636849	-33.57742430621985	3.376359336315162	4.511681893956665	1.235767782170582	-1.009750286790557	3472.082051282051	3626.373626373626	0.1923076923076923	0.5951776649746192	0.07835325365205843
9463.897705078125	-2.997941528070688	-33.39669444126398	4.205847192931266	4.505831788333008	0.4905543273416553	-0.956349322636149	3476.451282051281	3627.838827838828	0.191025641025641	0.5964467005076142	0.07171314741035856
9483.428955078125	-3.604208910277956	-33.57667207754234	3.579108972204473	4.155672548089458	0.1097227998604825	-0.8869782966231106	3485.189743589744	3624.908424908425	0.1833333333333333	0.5977157360406091	0.07569721115537847
9502.960205078125	-4.475614125155587	-32.8457835797467	4.438587484441423	3.122745144229781	1.202868581903744	-0.8390681110472189	3483.733333333333	3623.443223443223	0.1769230769230769	0.5913705583756345	0.07968127490039841
9522.491455078125	-3.16605171048922	-34.07921084932896	3.394828951078051	4.528669700671514	1.96995603793954	-0.6882194815518683	3479.364102564102	3626.373626373626	0.1794871794871795	0.6002538071065989	0.0650730411686587
9542.022705078125	-2.719876688667201	-34.62830915983074	4.012331133279901	3.794375606754715	-0.2600835285607214	-1.192539040003169	3476.451282051281	3621.978021978022	0.1794871794871795	0.58248730964467	0.08499335989375829
9561.553955078125	-3.517137517497627	-33.27692187655816	4.286248250237303	4.512919416300131	-2.895981816568423	0.4087503242379753	3460.430769230769	3623.443223443223	0.1858974358974359	0.6065989847715736	0.08632138114209827
9581.085205078125	-3.880642484546071	-33.4236280136854	3.935751545392876	3.454791557446238	-2.153392363819686	-0.2665025468951218	3498.297435897436	3627.838827838828	0.1782051282051282	0.5913705583756345	0.06905710491367861
9600.616455078125	-4.395806479015775	-33.38485084080945	4.419352098422535	4.51640697926808	-1.021922980436136	-0.09968385554114062	3472.082051282051	3620.51282051282	0.1730769230769231	0.5901015228426395	0.07968127490039841
9620.147705078125	-3.882781596374529	-33.0753136645848	3.721840362547137	3.834201325808073	1.953506437806121	-0.6028783936801994	3482.276923076923	3629.304029304029	0.182051282051282	0.6040609137055837	0.07968127490039841
9639.678955078125	-3.833490304129378	-33.31586710052164	4.650969587062159	3.814850976437515	2.348163563340522	-1.379442414543596	3486.646153846154	3627.838827838828	0.1756410256410256	0.6002538071065989	0.07304116865869853
9659.210205078125	-3.434652134248812	-33.5110013444087	4.534786575118836	4.175022897460016	-0.284934325673919	-0.1104142757597139	3472.082051282051	3617.582417582417	0.1884615384615385	0.6065989847715736	0.07835325365205843
9678.741455078125	-4.039857655188715	-33.34589761441324	4.014234481128416	4.497056629897522	-0.6272658549017349	-0.8762478764045374	3488.102564102564	3624.908424908425	0.1782051282051282	0.6002538071065989	0.08233731739707835
9698.272705078125	-4.278911250558632	-33.65214579078193	4.108874944136863	4.491769034429986	0.1289727989871609	-1.304580609952042	3482.276923076923	3629.304029304029	0.1871794871794872	0.6002538071065989	0.07171314741035856
9717.803955078125	-4.080100042720679	-33.72986818762134	3.98999572793206	5.197375110384621	0.1343972000606108	-1.014989928430614	3467.71282051282	3624.908424908425	0.1846153846153846	0.6015228426395939	0.08366533864541832
9737.335205078125	-4.031455100812186	-33.35438419433353	4.854489918781463	5.195012567728912	1.26324258136397	-1.470023144055322	3489.558974358974	3626.373626373626	0.1833333333333333	0.5926395939086294	0.07569721115537847
9756.866455078125	-3.721381146022237	-33.61678965790215	3.861885397776308	4.839003221861706	0.1371975990538704	-1.347251153887876	3470.625641025641	3624.908424908425	0.1833333333333333	0.5901015228426395	0.07569721115537847
9776.397705078125	-4.602666287474469	-34.18361474195848	3.733371252553083	5.197375110384621	0.1343972000606108	-1.014989928430614	3470.625641025641	3624.908424908425	0.1884615384615385	0.5939086294416244	0.0743691899070385
9795.928955078125	-3.921377329477392	-32.57633197415091	3.86226705226081	4.497619140053643	0.8741862538160878	-1.35798157410645	3476.451282051281	3627.838827838828	0.1846153846153846	0.6027918781725888	0.07304116865869853
9815.460205078125	-3.673767286793647	-33.66334119418457	4.623271320635318	4.506394298489128	1.992006436059478	-1.438083020338061	3485.189743589744	3624.908424908425	0.1743589743589744	0.5977157360406091	0.07569721115537847
9834.991455078125	-3.714255903025289	-33.43167846102138	4.574409697471108	4.526307158015808	3.098801419242899	-1.143252697176576	3470.625641025641	3623.443223443223	0.1897435897435897	0.5939086294416244	0.08233731739707835
9854.522705078125	-3.6476830494932	-32.88045550462725	3.231695050680022	4.514606946768494	1.608374509585046	-1.036450768867761	3488.102564102564	3626.373626373626	0.1756410256410256	0.6015228426395939	0.07171314741035856
9874.053955078125	-3.275544688662277	-33.31939217214341	4.445531133772358	5.214362917099471	0.8685854558295687	-0.6934591231919257	3466.25641025641	3626.373626373626	0.1846153846153846	0.581218274111675	0.07038512616201859
9893.585205078125	-3.112820759049213	-33.16989718720645	4.717924095078749	5.208512811475814	0.1233720010006418	-0.6400581590375178	3456.061538461538	3624.908424908425	0.1897435897435897	0.5951776649746192	0.07968127490039841
9913.116455078125	-3.438191671806691	-33.66127256532139	4.180832819330922	4.500544192865471	1.246792981230551	-1.384682056183654	3473.538461538461	3624.908424908425	0.1935897435897436	0.5875634517766497	0.08366533864541832
9932.647705078125	-4.082777779829684	-33.03485598083355	3.722222017031639	4.841928274673534	0.5098043264683339	-1.37395163596508	3463.343589743589	3621.978021978022	0.1846153846153846	0.5964467005076142	0.07569721115537847
9952.178955078125	-4.081023400344474	-33.421243288729	3.897659965552604	4.492331544586107	1.630424907704984	-1.786314307653954	3477.907692307692	3621.978021978022	0.1782051282051282	0.5951776649746192	0.07171314741035856
9971.710205078125	-3.275375406431248	-33.74264007027367	4.462459356875259	4.497619140053643	0.8741862538160878	-1.35798157410645	3480.820512820513	3626.373626373626	0.1846153846153846	0.5926395939086294	0.07171314741035856
9991.241455078125	-3.157172088007062	-33.28048696034363	4.282791199293816	4.099984042633492	0.1648487951603276	-2.761637143588593	3476.451282051281	3619.047619047619	0.1884615384615385	0.5901015228426395	0.0650730411686587
10010.77270507813	-3.676891313420819	-33.85249361959883	4.31086865791816	4.844853327485363	0.8824110538827973	-1.400652118042284	3477.907692307692	3626.373626373626	0.191025641025641	0.6015228426395939	0.07968127490039841
10030.30395507813	-3.402181340050453	-33.69610453885673	3.781865994954773	4.8501409229529	0.1261723999939014	-0.9723193844947797	3469.169230769231	3626.373626373626	0.1858974358974359	0.6015228426395939	0.07569721115537847
10049.83520507813	-4.035487095769422	-33.27338880250365	4.45129042305784	4.494694087241814	0.5015795264016244	-1.331281092029246	3485.189743589744	3627.838827838828	0.1858974358974359	0.5926395939086294	0.07968127490039841
10069.36645507813	-4.553667391810188	-33.69310362657939	4.633260818981277	4.161522653713115	0.8549362546894093	-0.9403792607775185	3473.538461538461	3627.838827838828	0.1897435897435897	0.6002538071065989	0.07835325365205843
10088.89770507813	-4.196841378240524	-32.84734405413092	4.315862175947641	4.508756841144836	0.8631610547561188	-0.9830498047133531	3474.994871794872	3626.373626373626	0.1833333333333333	0.5888324873096447	0.07038512616201859
10108.42895507813	-3.676060291559403	-33.93025602860192	4.393970844059671	4.522819595047857	1.224742583110613	-0.6348185173974605	3479.364102564102	3627.838827838828	0.1846153846153846	0.6002538071065989	0.06241699867197875
10127.96020507813	-4.155860304609525	-33.31027340003669	4.413969539047562	4.522819595047857	1.224742583110613	-0.6348185173974605	3491.015384615384	3629.304029304029	0.1871794871794872	0.5888324873096447	0.07702523240371846
10147.49145507813	-3.906680553965328	-33.32194494818732	5.331944603467146	4.511681893956665	1.235767782170582	-1.009750286790557	3486.646153846154	3627.838827838828	0.1730769230769231	0.5939086294416244	0.0650730411686587
10167.02270507813	-3.520923283755185	-33.81155979109957	3.907671624481534	4.514606946768494	1.608374509585046	-1.036450768867761	3485.189743589744	3627.838827838828	0.1884615384615385	0.5913705583756345	0.07569721115537847
10186.55395507813	-3.549931486864315	-33.2837999674978	5.006851313568555	4.878266430758942	0.8493354567028902	-0.2758568098629947	3460.430769230769	3619.047619047619	0.182051282051282	0.5901015228426395	0.07569721115537847
10206.08520507813	-4.279249815020689	-33.8056499945214	4.075018497931063	3.806075818002029	1.230343381097132	-1.299340968311984	3495.384615384615	3629.304029304029	0.1756410256410256	0.5939086294416244	0.07171314741035856
10225.61645507813	-3.438991915080646	-33.6604643196147	4.100808491935394	4.525744647859686	1.597349310525077	-0.6615189994746644	3474.994871794872	3627.838827838828	0.182051282051282	0.5939086294416244	0.08100929614873838
10245.14770507813	-4.160661764253256	-33.30542392579652	3.933823574674393	4.88119148357077	1.221942184117353	-0.3025572919401986	3463.343589743589	3619.047619047619	0.1794871794871795	0.5926395939086294	0.08366533864541832
10264.67895507813	-3.681538880127251	-33.2324149618407	3.8461119872749	4.502906735521179	0.1179475999271919	-0.9296488405589451	3489.558974358974	3626.373626373626	0.1833333333333333	0.5951776649746192	0.08100929614873838
10284.21020507813	-4.320954185456995	-33.53429781114998	3.904581454300568	4.858353571232264	-0.2574595264805311	-0.5706871330244794	3477.907692307692	3627.838827838828	0.1807692307692308	0.6002538071065989	0.07038512616201859
10303.74145507813	-3.917976295563082	-34.07976701840436	4.202370443691805	4.166810249180651	0.09869760080051343	-0.5120465272300142	3504.123076923077	3629.304029304029	0.1846153846153846	0.5977157360406091	0.07171314741035856
10323.27270507813	-3.636587368713935	-33.62243137298354	4.341263128606481	4.858916081388385	1.243992582237292	-1.052420830726391	3488.102564102564	3626.373626373626	0.1961538461538462	0.5926395939086294	0.07569721115537847
10342.80395507813	-3.763793423970118	-32.57549171871325	3.620657602988231	5.217287969911299	1.241192183244032	-0.7201596052691296	3466.25641025641	3626.373626373626	0.1871794871794872	0.5888324873096447	0.08366533864541832
10362.33520507813	-4.077807037954924	-33.46295335320398	4.219296204507709	4.847778380297191	1.255017781297261	-1.427352600119488	3488.102564102564	3626.373626373626	0.1897435897435897	0.6015228426395939	0.07569721115537847
10381.86645507813	-4.194779212880715	-34.00327299499048	4.522078711928426	5.216725459755178	-0.2602599254737907	-0.2384259075672175	3467.71282051282	3620.51282051282	0.182051282051282	0.5939086294416244	0.0743691899070385
10401.39770507813	-3.750681745712235	-33.35796528298448	4.931825428776501	5.200300163196449	0.5070039274750743	-1.041690410507818	3472.082051282051	3627.838827838828	0.1923076923076923	0.5964467005076142	0.0743691899070385
10420.92895507813	-4.31839956269783	-33.92149336475211	4.160043730217062	5.195012567728912	1.26324258136397	-1.470023144055322	3479.364102564102	3624.908424908425	0.1717948717948718	0.5913705583756345	0.07171314741035856
10440.46020507813	-4.029423714039837	-33.43335897189669	5.057628596016265	4.859478591544505	2.745444690955115	-1.534154528428303	3485.189743589744	3626.373626373626	0.1846153846153846	0.5977157360406091	0.07171314741035856
10459.99145507813	-4.119357515453928	-33.57637198631461	4.064248454607123	4.858916081388385	1.243992582237292	-1.052420830726391	3488.102564102564	3624.908424908425	0.191025641025641	0.5850253807106599	0.07304116865869853
10479.52270507813	-3.838999671284686	-33.541071870464	4.100032871531407	5.203225216008278	0.8796106548895377	-1.068390892585022	3488.102564102564	3626.373626373626	0.1743589743589744	0.583756345177665	0.07038512616201859
10499.05395507813	-4.909970169393034	-32.84708397506688	5.002983060696606	5.222575565378834	0.4849535293551363	-0.2918268717216253	3461.887179487179	3619.047619047619	0.182051282051282	0.5913705583756345	0.06640106241699867
10518.58520507813	-3.833474914835648	-33.35434418216984	4.65250851643515	4.887041589194427	1.967155638946281	-0.3559582560946065	3472.082051282051	3621.978021978022	0.1858974358974359	0.5939086294416244	0.07702523240371846
10538.11645507813	-3.915791015853435	-33.54351261244957	4.420898414656517	4.881753993726892	2.723394292835176	-0.7842909896421106	3477.907692307692	3626.373626373626	0.1884615384615385	0.5913705583756345	0.08366533864541832
10557.64770507813	-3.592205261168626	-33.58879576314276	4.779473883137396	4.195498267142815	2.323312766227325	-0.2973176503001413	3464.8	3620.51282051282	0.1961538461538462	0.598984771573604	0.06374501992031872
10577.17895507813	-3.074794429814356	-33.24522685665673	4.520557018564412	4.517531999580322	1.980981236999509	-1.063151250944965	3485.189743589744	3626.373626373626	0.1833333333333333	0.6002538071065989	0.07569721115537847
10596.71020507813	-4.477399283228255	-32.38244210855484	4.260071677174476	4.875903888103235	1.97818083800625	-0.7308900254877029	3480.820512820513	3626.373626373626	0.182051282051282	0.5888324873096447	0.0743691899070385
10616.24145507813	-3.477279862308912	-32.93102426214492	4.272013769108885	5.219650512567006	0.1123468019406728	-0.2651263896444214	3453.148717948718	3617.582417582417	0.191025641025641	0.5939086294416244	0.07702523240371846
10635.77270507813	-4.314506071384162	-33.65619502174815	4.549392861583767	4.519894542236029	0.8521358556961498	-0.6081180353202567	3486.646153846154	3626.373626373626	0.1884615384615385	0.598984771573604	0.08100929614873838
10655.30395507813	-4.071435870350741	-33.39246515556113	4.856412964925952	4.536319838794759	0.08487200274728483	0.195146467620344	3461.887179487179	3624.908424908425	0.1858974358974359	0.6015228426395939	0.08100929614873838
10674.83520507813	-3.908588826387837	-32.55078682380982	5.141117361216271	3.481117032752695	1.200068182910485	-0.5068068855899569	3488.102564102564	3621.978021978022	0.1846153846153846	0.6027918781725888	0.07968127490039841
10694.36645507813	-3.60008457955834	-33.88852995926146	3.991542044166041	4.20371091542218	1.939680839752893	0.1043146011701591	3470.625641025641	3624.908424908425	0.1807692307692308	0.5875634517766497	0.0743691899070385
10713.89770507813	-4.200565587323162	-33.53589029526515	3.943441267683837	4.184360566051622	2.334337965287294	-0.6722494196932377	3472.082051282051	3626.373626373626	0.1858974358974359	0.5964467005076142	0.07038512616201859
10733.42895507813	-3.645220762496415	-33.03678856834016	3.47792375035857	4.206635968234009	2.312287567167356	0.07761411909295513	3476.451282051281	3624.908424908425	0.1846153846153846	0.6027918781725888	0.07304116865869853
10752.96020507813	-3.399857556697236	-33.50614386773579	4.014244330276403	4.178510460427965	1.589124510458367	-0.6188484555388298	3485.189743589744	3626.373626373626	0.1871794871794872	0.5926395939086294	0.08764940239043824
10772.49145507813	-3.960480909273342	-32.80760658932623	3.951909072665782	4.172660354804308	0.8439110556294402	-0.5654474913844221	3502.666666666666	3629.304029304029	0.182051282051282	0.598984771573604	0.0743691899070385
10792.02270507813	-3.715594771579792	-34.08417235762749	4.440522842020897	4.200223352454231	0.06562200362060636	0.612748780949275	3464.8	3624.908424908425	0.1897435897435897	0.6015228426395939	0.08100929614873838
10811.55395507813	-3.555071510970104	-34.43245469699711	4.492848902989585	4.192010704174866	0.4492539300950388	0.2111165294789748	3467.71282051282	3623.443223443223	0.1628205128205128	0.5951776649746192	0.07304116865869853
10831.08520507813	-3.630970276502518	-33.66656617457861	4.902972349748169	4.189648161519158	1.578099311398398	-0.2439166861457334	3470.625641025641	3621.978021978022	0.1743589743589744	0.5926395939086294	0.07171314741035856
10850.61645507813	-4.430708781623459	-33.12036874594492	4.929121837654031	4.539807401762707	1.958930838879571	-0.3132877121587719	3473.538461538461	3620.51282051282	0.1897435897435897	0.598984771573604	0.07171314741035856
10870.14770507813	-3.196260278509282	-33.55023865716716	4.373972149071779	4.200785862610352	1.567074112338429	0.131015083247363	3474.994871794872	3626.373626373626	0.1756410256410256	0.5901015228426395	0.08366533864541832
10889.67895507813	-4.11737229656277	-33.53991551893314	4.262770343722952	4.181435513239793	1.961731237872831	-0.6455489376160337	3493.928205128205	3629.304029304029	0.1884615384615385	0.5964467005076142	0.07171314741035856
10909.21020507813	-3.203154682100282	-33.31250607877102	3.684531789971843	3.850626622366802	1.186242584857256	0.2003861092604014	3477.907692307692	3619.047619047619	0.191025641025641	0.5888324873096447	0.07171314741035856
10928.74145507813	-3.436344956559102	-33.27852236310607	4.365504344089834	3.14265800375646	2.309663565087166	-0.5442377878857342	3504.123076923077	3629.304029304029	0.1884615384615385	0.6027918781725888	0.08100929614873838
10948.27270507813	-3.324143462689581	-33.81030741037583	3.585653731041928	3.466491768693552	-0.6629654541618324	-0.3733044752039374	3485.189743589744	3624.908424908425	0.1858974358974359	0.6002538071065989	0.07038512616201859
10967.80395507813	-3.524247371200845	-33.50051015508715	3.575262879915494	4.188523141206916	-1.424804906037247	0.7195507092580906	3466.25641025641	3624.908424908425	0.182051282051282	0.6053299492385786	0.07702523240371846
10987.33520507813	-3.802219874841952	-33.49975792640963	3.778012515804804	3.83656386846378	0.8246610565027619	-0.1478451780554912	3495.384615384615	3624.908424908425	0.1679487179487179	0.5875634517766497	0.07569721115537847
11006.86645507813	-3.760423168643268	-33.0019725996703	3.957683135673244	3.837126378619901	2.326113165220584	-0.6295788757574032	3480.820512820513	3627.838827838828	0.1717948717948718	0.5964467005076142	0.07569721115537847
11026.39770507813	-3.641696614232266	-33.84804026577925	3.830338576773492	3.85703923814658	3.432908148404006	-0.3347485525959185	3480.820512820513	3624.908424908425	0.1846153846153846	0.5926395939086294	0.0544488711819389
11045.92895507813	-3.563073943709657	-33.42437223993017	3.692605629034303	3.811925923625686	1.975556835926059	-1.352741932466392	3489.558974358974	3626.373626373626	0.1705128205128205	0.6002538071065989	0.07038512616201859
11065.46020507813	-3.719565209362108	-33.15708529239042	4.043479063789238	3.45591657775848	0.8495118536159594	-1.229969942298946	3482.276923076923	3624.908424908425	0.1730769230769231	0.5913705583756345	0.06108897742363877
11084.99145507813	-3.082196680098443	-32.7377505838698	3.780331990155776	3.803150765190201	0.8577366536826689	-1.27264048623478	3488.102564102564	3626.373626373626	0.1858974358974359	0.6040609137055837	0.06772908366533864
11104.52270507813	-3.725567033916772	-33.15102344959021	3.443296608322776	4.502906735521179	0.1179475999271919	-0.9296488405589451	3470.625641025641	3624.908424908425	0.182051282051282	0.5901015228426395	0.07038512616201859
11124.05395507813	-5.037407064055166	-33.22298809607351	4.259293594483491	4.861278624044092	0.1151472009339323	-0.5973876151016833	3469.169230769231	3626.373626373626	0.1705128205128205	0.6053299492385786	0.0650730411686587
11143.58520507813	-4.036810575030194	-32.96435978075797	4.31894249698062	4.164447706524943	1.227542982103873	-0.9670797428547224	3479.364102564102	3626.373626373626	0.1858974358974359	0.5939086294416244	0.0743691899070385
11163.11645507813	-4.440173197267354	-33.45696353229843	3.98268027326461	4.520457052392151	2.353587964413972	-1.089851733022169	3477.907692307692	3626.373626373626	0.1807692307692308	0.6015228426395939	0.05843293492695883
11182.64770507813	-3.927102146744918	-33.2628576010184	3.289785325508185	4.176147917772258	2.717969891761726	-1.073881671163538	3486.646153846154	3629.304029304029	0.1717948717948718	0.5913705583756345	0.07569721115537847
11202.17895507813	-3.200584670047387	-33.73817871402137	3.941532995261328	3.817776029249343	2.720770290754986	-1.4061428966208	3485.189743589744	3627.838827838828	0.182051282051282	0.5977157360406091	0.07702523240371846
11221.71020507813	-3.634602149822777	-33.58597490560207	4.53978501772231	3.470541841817622	2.712545490688277	-1.363472352684966	3492.471794871794	3629.304029304029	0.1846153846153846	0.6015228426395939	0.07835325365205843
11241.24145507813	-4.160815657190556	-32.92065310931446	3.918434280944483	4.501106703021592	2.748245089948374	-1.866415753885566	3476.451282051281	3623.443223443223	0.1794871794871795	0.5951776649746192	0.06905710491367861
11260.77270507813	-3.005559228466993	-32.35053902540219	3.444077153300757	4.498181650209764	2.37563836253391	-1.839715271808362	3483.733333333333	3623.443223443223	0.191025641025641	0.5964467005076142	0.0650730411686587
11280.30395507813	-3.251507227427907	-34.41905462337473	2.849277257209268	5.54753435062817	0.5152287275417837	-1.084360954443653	3453.148717948718	3621.978021978022	0.1833333333333333	0.5951776649746192	0.0743691899070385
11299.83520507813	-3.55918045239599	-33.1590738969262	4.081954760401008	4.475343737871256	0.8962366519360259	-2.107845112892642	3480.820512820513	3621.978021978022	0.1884615384615385	0.6027918781725888	0.08100929614873838
11319.36645507813	-3.522616106065475	-32.57908080979694	3.738389393452532	5.192087514917084	0.8906358539495067	-1.443322661978119	3474.994871794872	3627.838827838828	0.1858974358974359	0.5888324873096447	0.08100929614873838
11338.89770507813	-3.471616602216305	-33.09059030868461	4.838339778369546	4.85070343310902	1.627624508711724	-1.454053082196692	3473.538461538461	3627.838827838828	0.1833333333333333	0.5926395939086294	0.07171314741035856
11358.42895507813	-4.239530663475542	-33.11345864527431	4.046933652445728	4.860041101700626	4.246896799672937	-2.015888226130215	3486.646153846154	3623.443223443223	0.1794871794871795	0.6015228426395939	0.07304116865869853
11377.96020507813	-3.121315649188122	-33.93054811739691	3.868435081187757	4.860041101700626	4.246896799672937	-2.015888226130215	3458.974358974359	3621.978021978022	0.1807692307692308	0.5888324873096447	0.07968127490039841
11397.49145507813	-3.159080360429571	-33.50932883596613	4.091963957042941	4.845978347797605	3.885315271318443	-2.364119513446108	3486.646153846154	3623.443223443223	0.182051282051282	0.5926395939086294	0.0743691899070385
