Time Stamp	Accelerometer X	Accelerometer Y	Accelerometer Z	Gyroscope X	Gyroscope Y	Gyroscope Z	VSenseReg	VSenseBatt	Magnetometer X	Magnetometer Y	Magnetometer Z
1604.522705078125	-13.53846153846154	-32.64574736712446	-0.3280162591611751	2.209126831129905	-1.953203808668449	-0.449786571704106	3489.558974358974	3620.51282051282	0.3924665856622114	0.5218978102189781	0.08058124174372523
1624.053955078125	-14.61538461538462	-32.48814436164316	0.5610642360041882	-0.7885485719550169	3.359850705376673	2.490463584610051	3505.579487179487	3629.304029304029	0.3985419198055893	0.5401459854014599	0.06340819022457067
1643.585205078125	-14.19230769230769	-32.95997567284597	0.6526297961446079	1.317172833155849	0.8748736954096426	-1.228912787295829	3488.102564102564	3619.047619047619	0.4082624544349939	0.5316301703163017	0.06737120211360634
1663.116455078125	-14.5	-32.0285228182546	0.5415255281147997	1.736327283344668	-1.955252202616369	-1.261405590777978	3489.558974358974	3621.978021978022	0.3839611178614824	0.5340632603406327	0.07001321003963013
1682.647705078125	-15.73076923076923	-32.49837562357579	0.2649350249430316	1.7658039104266	-1.470235294685295	-0.4405236573572414	3480.820512820513	3620.51282051282	0.402187120291616	0.537712895377129	0.07529722589167767
1702.178955078125	-14.96153846153846	-32.42046714294513	1.369510993410113	1.309685060769229	1.336512456656963	-1.632384787265612	3495.384615384615	3620.51282051282	0.4009720534629404	0.537712895377129	0.07529722589167767
1721.710205078125	-14.73076923076923	-32.52588994272341	0.6406509823243212	1.322006527258747	1.344305172218214	-1.224266809468773	3482.276923076923	3616.117216117216	0.4034021871202916	0.5316301703163017	0.05680317040951123
1741.241455078125	-14.38461538461539	-32.51119357024081	1.482755435117325	1.290350284357639	-0.5412134505773234	-1.650968698573839	3470.625641025641	3621.978021978022	0.3948967193195626	0.5413625304136254	0.07529722589167767
1760.772705078125	-14.96153846153846	-32.23416425448051	1.669751185563836	1.260873657275706	-1.026230358508397	-2.471850631994575	3496.841025641026	3620.51282051282	0.3997569866342648	0.5401459854014599	0.06869220607661823
1780.303955078125	-14.30769230769231	-32.50270986019586	0.9816468559462956	2.14268580457942	-2.461598863283276	-2.495022438515361	3476.451282051281	3620.51282051282	0.402187120291616	0.5401459854014599	0.06869220607661823
1799.835205078125	-14.96153846153846	-32.90393083697727	0.5426956950175523	1.684387339102874	-1.055352826805482	-3.292703524108063	3507.035897435897	3617.582417582417	0.3912515188335358	0.5389294403892945	0.06605019815059446
1819.366455078125	-14.26923076923077	-32.03463540062819	0.6163854160251279	1.696708805592391	-1.047560111244231	-2.884585546311223	3496.841025641026	3620.51282051282	0.4082624544349939	0.5437956204379563	0.07529722589167767
1838.897705078125	-14.07692307692308	-32.04845414793373	1.115015088994273	2.620319046467555	-1.990118992526785	-1.678757441614433	3470.625641025641	3619.047619047619	0.3948967193195626	0.5304136253041363	0.05812417437252312
1858.428955078125	-13.92307692307692	-32.8860165055121	0.5315945063743301	0.8250385089590218	-1.004900605772564	-2.059115717677928	3491.015384615384	3614.652014652014	0.4009720534629404	0.5474452554744526	0.0726552179656539
1877.960205078125	-14.69230769230769	-31.98929913161299	0.6957258114183657	1.748648749834185	-1.947459487055118	-0.8532876129811378	3477.907692307692	3614.652014652014	0.4058323207776428	0.5364963503649636	0.06472919418758256
1897.491455078125	-14.57692307692308	-32.76836084252017	1.071888279854653	1.314993217336675	-0.5256280194548209	-0.8347327429801598	3486.646153846154	3623.443223443223	0.3985419198055893	0.5352798053527981	0.06340819022457067
1917.022705078125	-14.69230769230769	-32.32726180944756	0.2861673954548254	0.8421936695514368	-0.5276764134027411	-1.646351762054031	3499.753846153846	3623.443223443223	0.3924665856622114	0.5316301703163017	0.06472919418758256
1936.553955078125	-13.80769230769231	-32.89369187657819	0.7999784442938966	0.8373599754485395	-0.9971078902113126	-1.650997739881088	3492.471794871794	3621.978021978022	0.3912515188335358	0.5413625304136254	0.05812417437252312
1956.085205078125	-13.96153846153846	-33.11158927141713	0.3102328016259162	0.8743243749170926	-0.9737297435275588	-0.4266438064905689	3488.102564102564	3620.51282051282	0.393681652490887	0.5401459854014599	0.07133421400264201
1975.616455078125	-15.34615384615385	-33.10801718297715	-0.40683315883476	1.27850328033267	-2.88057811905893	-1.266080609912283	3483.733333333333	3619.047619047619	0.3961117861482381	0.5425790754257908	0.06472919418758256
1995.147705078125	-14.61538461538462	-32.01853790724887	0.1576645932130321	1.300492135027983	-1.933922449880535	-0.84867067646133	3479.364102564102	3620.51282051282	0.3973268529769137	0.5316301703163017	0.06869220607661823
2014.678955078125	-14.07692307692308	-32.61275173985342	0.4837408388249062	2.204293137027008	-2.42263528547702	-0.4544325495311627	3458.974358974359	3619.047619047619	0.4058323207776428	0.5304136253041363	0.05680317040951123
2034.210205078125	-14.53846153846154	-32.59744718852004	0.1800517336946481	1.266181813843152	-2.888370834620182	-1.674198587709123	3486.646153846154	3621.978021978022	0.4058323207776428	0.5389294403892945	0.059445178335535
2053.741455078125	-14.57692307692308	-32.99315606331219	0.773187780994026	1.743815055731288	-2.416890963863689	-0.8579335908081945	3488.102564102564	3623.443223443223	0.4034021871202916	0.5401459854014599	0.07793923381770146
2073.272705078125	-13.69230769230769	-32.59111904908542	0.9405678388864939	0.8523355202217801	-1.920385412705953	-0.8440537399415221	3489.558974358974	3623.443223443223	0.393681652490887	0.5316301703163017	0.0607661822985469
2092.803955078125	-14.46153846153846	-32.64901151690583	0.7582681529839257	0.4090125995184749	-1.4374168987228	-0.8347908255946576	3499.753846153846	3623.443223443223	0.4034021871202916	0.5291970802919708	0.06869220607661823
2112.335205078125	-14.92307692307692	-32.6922153107101	1.456919381659174	0.8400140537322623	-1.928178128267204	-1.252171717738362	3493.928205128205	3621.978021978022	0.393681652490887	0.5413625304136254	0.06208718626155878
2131.866455078125	-15.38461538461539	-32.85243579478968	0.314097431791587	1.280682896151845	-1.480076404194467	-1.660260654227953	3493.928205128205	3619.047619047619	0.3985419198055893	0.5425790754257908	0.05284015852047556
2151.397705078125	-13.69230769230769	-32.62653199482663	0.7881382028699884	2.206472752846183	-1.022133570612557	-0.8486125938468322	3477.907692307692	3620.51282051282	0.3948967193195626	0.5352798053527981	0.05416116248348745
2170.928955078125	-14.42307692307692	-32.10087300609718	0.2359579971669645	1.738506899163842	-0.5547504877519056	-1.655585635093647	3502.666666666666	3621.978021978022	0.4009720534629404	0.5462287104622872	0.06472919418758256
2190.460205078125	-14.5	-32.27102451191723	1.128148672784382	2.187137976434593	-2.899859477846843	-0.8671965051550592	3485.189743589744	3621.978021978022	0.3948967193195626	0.5316301703163017	0.05548216644649934
2209.991455078125	-14.80769230769231	-32.02935425263287	0.8907895547206997	3.088284900149896	-2.457502075387436	-0.8717844003676181	3479.364102564102	3620.51282051282	0.4009720534629404	0.5389294403892945	0.06737120211360634
2229.522705078125	-13.96153846153846	-32.33019492517091	-0.2979460491470101	2.194151286356665	-1.029926286173808	-1.256730571643672	3495.384615384615	3620.51282051282	0.402187120291616	0.5304136253041363	0.059445178335535
2249.053955078125	-14.26923076923077	-32.52194832789309	-0.01796822073043036	2.198984980459562	-0.5604948093652366	-1.252084593816615	3488.102564102564	3620.51282051282	0.3997569866342648	0.5316301703163017	0.07001321003963013
2268.585205078125	-14.11538461538462	-31.90988945002156	-0.005527498922214491	1.290350284357639	-0.5412134505773234	-1.650968698573839	3493.928205128205	3619.047619047619	0.3997569866342648	0.5401459854014599	0.07133421400264201
2288.116455078125	-14.80769230769231	-31.91002802241794	0.6937088132044097	0.8496814419380572	-0.9893151746500614	-1.242879762084248	3499.753846153846	3623.443223443223	0.4034021871202916	0.5401459854014599	0.06208718626155878
2307.647705078125	-14.65384615384616	-33.11249769046006	1.047961446079941	1.295658440925085	-2.403353926689107	-0.8533166542883867	3476.451282051281	3621.978021978022	0.3924665856622114	0.5364963503649636	0.05812417437252312
2327.178955078125	-14.34615384615385	-31.99230923200099	0.5000769846646549	0.3966911330289572	-1.445209614284051	-1.242908803391497	3496.841025641026	3620.51282051282	0.4009720534629404	0.5462287104622872	0.04623513870541612
2346.710205078125	-15.19230769230769	-32.94554874668966	0.9312834883291248	1.310159523233777	-0.9950594962633924	-0.8393787208072164	3479.364102564102	3621.978021978022	0.3961117861482381	0.5352798053527981	0.059445178335535
2366.241455078125	-14.53846153846154	-32.72832111843321	0.9545174601219438	1.295183978460537	-0.07178197376875174	-1.646322720746783	3486.646153846154	3620.51282051282	0.3924665856622114	0.5364963503649636	0.06737120211360634
2385.772705078125	-13.69230769230769	-32.04452793003633	0.5340888095091458	2.179650204047973	-2.438220716599523	-1.270668505124842	3460.430769230769	3617.582417582417	0.3997569866342648	0.537712895377129	0.05680317040951123
2405.303955078125	-14.34615384615385	-33.88844152244873	1.075922276282565	2.159840965171834	-1.984374670913454	-2.082258482891465	3477.907692307692	3617.582417582417	0.4094775212636695	0.5413625304136254	0.06340819022457067
2424.835205078125	-14.57692307692308	-32.34263564697913	0.9394746566483957	1.251206269069912	-1.965093312125541	-2.481142587648689	3493.928205128205	3620.51282051282	0.4070473876063183	0.5291970802919708	0.059445178335535
2444.366455078125	-14.5	-32.35108856315822	1.285197388680175	1.273195123765224	-1.018437642947146	-2.063732654197735	3492.471794871794	3616.117216117216	0.4046172539489671	0.5291970802919708	0.05548216644649934
2463.897705078125	-14.57692307692308	-32.45734279731478	0.9056014042002836	1.738506899163842	-0.5547504877519056	-1.655585635093647	3479.364102564102	3620.51282051282	0.402187120291616	0.5389294403892945	0.06472919418758256
2483.428955078125	-14.30769230769231	-32.34797068423971	0.9369957504465111	1.738506899163842	-0.5547504877519056	-1.655585635093647	3486.646153846154	3621.978021978022	0.4094775212636695	0.537712895377129	0.06208718626155878
2502.960205078125	-14.23076923076923	-32.57044096815914	0.4451253310340582	1.738506899163842	-0.5547504877519056	-1.655585635093647	3483.733333333333	3619.047619047619	0.4009720534629404	0.5401459854014599	0.06208718626155878
2522.491455078125	-14.07692307692308	-32.3925755989407	1.013395331649935	2.17699612576425	-1.507150478543631	-1.669494527267568	3480.820512820513	3619.047619047619	0.4034021871202916	0.5328467153284672	0.07001321003963013
2542.022705078125	-14.88461538461539	-32.46895208474473	-0.1293188396871341	1.295183978460537	-0.07178197376875174	-1.646322720746783	3491.015384615384	3621.978021978022	0.4046172539489671	0.5352798053527981	0.0607661822985469
2561.553955078125	-14.61538461538462	-32.21176941553242	0.2038553920059125	1.282862511971019	-0.079574689330003	-2.054440698543622	3489.558974358974	3616.117216117216	0.3827460510328068	0.5316301703163017	0.06340819022457067
2581.085205078125	-14.61538461538462	-31.86456857793928	0.1515058200406481	1.295183978460537	-0.07178197376875174	-1.646322720746783	3489.558974358974	3620.51282051282	0.3997569866342648	0.5413625304136254	0.06208718626155878
2600.616455078125	-15.07692307692308	-33.23498799039232	-0.09675432653815363	0.8347058971648166	-0.06603765215542078	-2.049823762023814	3496.841025641026	3617.582417582417	0.393681652490887	0.5425790754257908	0.06869220607661823
2620.147705078125	-14.88461538461539	-32.2472362505389	0.3233509884830941	1.30532582913088	-1.464490973071964	-0.8440246986342732	3470.625641025641	3621.978021978022	0.4070473876063183	0.5316301703163017	0.05151915455746367
2639.678955078125	-14.03846153846154	-32.29248783642299	-0.1833004865430807	1.302671750847157	-0.5334207350160721	-1.242850720776999	3466.25641025641	3617.582417582417	0.3985419198055893	0.5364963503649636	0.05416116248348745
2659.210205078125	-14.96153846153846	-31.97549578124038	0.2747890620188458	0.8347058971648166	-0.06603765215542078	-2.049823762023814	3470.625641025641	3616.117216117216	0.3961117861482381	0.5437956204379563	0.06472919418758256
2678.741455078125	-14.69230769230769	-32.3149442631028	-0.3297099217835806	0.3913829764615114	0.416930861827733	-2.04056084767695	3477.907692307692	3616.117216117216	0.3924665856622114	0.5304136253041363	0.06208718626155878
2698.272705078125	-15.53846153846154	-33.3151444232309	0.5264519307753895	0.4085381370539266	0.8941550541975558	-1.627796892053053	3496.841025641026	3620.51282051282	0.402187120291616	0.5401459854014599	0.0607661822985469
2717.803955078125	-14.76923076923077	-33.21183100326415	0.3607809324382583	0.4037044429510291	0.4247235773889843	-1.63244286988011	3483.733333333333	3619.047619047619	0.3948967193195626	0.5389294403892945	0.0607661822985469
2737.335205078125	-14.84615384615385	-33.5136262856439	0.1428527437334481	-0.07174918311793167	1.353745421496956	-2.842887911096708	3505.579487179487	3619.047619047619	0.3900364520048603	0.5401459854014599	0.06208718626155878
2756.866455078125	-15	-32.89393052903861	0.08114183654615981	0.819730352391576	0.8572398703392199	-2.85676776196338	3479.364102564102	3616.117216117216	0.4070473876063183	0.5364963503649636	0.059445178335535
2776.397705078125	-14.92307692307692	-32.33808585329803	1.058138818747306	1.720877276106879	1.299597272798627	-2.861355657175939	3467.71282051282	3616.117216117216	0.3948967193195626	0.5352798053527981	0.05151915455746367
2795.928955078125	-14.76923076923077	-32.36345999876825	0.2499230153353451	2.622024199822181	1.741954675258034	-2.865943552388498	3461.887179487179	3614.652014652014	0.4046172539489671	0.5389294403892945	0.0607661822985469
2815.460205078125	-14.26923076923077	-31.86449929174109	1.724964587054259	3.072834892912107	0.79734740002756	-2.47173446676558	3474.994871794872	3617.582417582417	0.3997569866342648	0.5389294403892945	0.05812417437252312
2834.991455078125	-14.15384615384616	-32.65895793557923	0.9478967789616309	2.610177195797212	-0.5974099932235725	-2.481055463726942	3483.733333333333	3617.582417582417	0.3924665856622114	0.5291970802919708	0.05416116248348745
2854.522705078125	-14.23076923076923	-32.84758576091642	0.840826507359734	2.597855729307694	-0.6052027087848237	-2.889173441523782	3486.646153846154	3620.51282051282	0.4034021871202916	0.5450121654501217	0.0607661822985469
2874.053955078125	-14.53846153846154	-32.45656525220176	0.8282626100880707	2.181355357402599	1.293852951185296	-2.457854615898907	3496.841025641026	3620.51282051282	0.4082624544349939	0.5401459854014599	0.06472919418758256
2893.585205078125	-15.69230769230769	-32.35209706226519	0.6048531132598386	2.208177906200809	2.709940097172262	-2.035798704620897	3479.364102564102	3616.117216117216	0.4119076549210206	0.537712895377129	0.06472919418758256
2913.116455078125	-16.11538461538462	-31.20588008868634	1.4093890497013	0.8948898422187601	6.967641784411901	-2.388252072414803	3492.471794871794	3619.047619047619	0.3851761846901579	0.5328467153284672	0.06340819022457067
2932.647705078125	-17.30769230769231	-32.1176171706596	2.034704686826384	0.1467159764415488	17.81501797204196	-1.047806775962363	3479.364102564102	3620.51282051282	0.3973268529769137	0.5364963503649636	0.0607661822985469
2952.178955078125	-15.03846153846154	-33.46054535936442	1.52726796822073	0.6088992110918953	21.54134731821345	-1.831491845459396	3482.276923076923	3614.652014652014	0.4046172539489671	0.5352798053527981	0.06605019815059446
2971.710205078125	-15.11538461538462	-32.42819640327647	1.909820163823366	3.612357233208812	12.03458037513619	-3.181083891029705	3472.082051282051	3616.117216117216	0.4106925880923451	0.5401459854014599	0.05680317040951123
2991.241455078125	-16.15384615384615	-33.34914085114245	2.841657941738006	7.150978363984085	10.96404297743864	-4.4516652722328	3469.169230769231	3611.721611721612	0.4119076549210206	0.5364963503649636	0.06472919418758256
3010.772705078125	-16.5	-32.33994118371621	2.727828416579417	7.059894404454563	10.44006249170131	-7.313137094637736	3480.820512820513	3604.395604395604	0.393681652490887	0.5401459854014599	0.06869220607661823
3030.303955078125	-17.88461538461539	-31.87369126070087	1.953793804274189	7.041790318933051	14.6259822051722	-9.311913183178422	3464.8	3598.534798534799	0.4094775212636695	0.5425790754257908	0.06472919418758256
3049.835205078125	-17.65384615384615	-32.55649904539015	3.17110611566176	6.650689108432522	24.93584086989035	-10.83755664565073	3491.015384615384	3597.069597069597	0.402187120291616	0.5304136253041363	0.06208718626155878
3069.366455078125	-16.92307692307692	-32.67336946480261	2.514627086284412	8.016198882617346	30.5050293333857	-12.02000965467599	3565.292307692307	3699.6336996337	0.4082624544349939	0.5316301703163017	0.08322324966974901
3088.897705078125	-15.46153846153846	-32.5683777791464	3.495812034242779	12.00345109066337	27.08938294559321	-12.5022019059405	3539.076923076923	3693.772893772893	0.4034021871202916	0.5328467153284672	0.07397622192866579
3108.428955078125	-15.88461538461539	-33.38219036767876	4.224902999322535	14.96947025084718	19.89080980875255	-15.86915395135972	3566.748717948718	3689.377289377289	0.416767922235723	0.5267639902676399	0.07001321003963013
3127.960205078125	-16.84615384615385	-32.68413192092135	4.898903738375315	19.80204466919291	12.68484481658107	-16.80586587607714	3533.251282051282	3684.981684981685	0.4034021871202916	0.5328467153284672	0.09114927344782034
3147.491455078125	-17.15384615384615	-32.10988791032826	5.340549362566977	22.9193317339602	13.04393160204507	-17.64977440948242	3540.533333333333	3684.981684981685	0.416767922235723	0.5267639902676399	0.08982826948480846
3167.022705078125	-16.92307692307692	-32.04671429451254	5.797253187165117	25.15916588306211	17.63939032201287	-19.25887122499825	3544.902564102564	3679.120879120879	0.4119076549210206	0.5304136253041363	0.1030383091149273
3186.553955078125	-16.96153846153846	-32.15065129026298	5.263333743918212	26.46136317144472	19.43754153991715	-21.29472801223364	3541.989743589743	3676.190476190476	0.4155528554070473	0.5170316301703163	0.09907529722589167
3206.085205078125	-17.11538461538462	-31.90587085052658	4.716619449405679	29.11286399834884	21.66451312310626	-23.3397896312014	3533.251282051282	3668.864468864469	0.4216281895504253	0.5182481751824818	0.09775429326287979
3225.616455078125	-16.26923076923077	-31.80639126685964	4.665717189135925	33.07499881095127	20.56485325711162	-25.43122390451799	3517.230769230769	3663.003663003663	0.4119076549210206	0.5085158150851582	0.1056803170409511
3245.147705078125	-16.88461538461539	-32.5940675617417	6.203378087085053	35.7494374174798	19.07533660363841	-25.472863457118	3515.774358974359	3668.864468864469	0.4459295261239368	0.5158150851581509	0.11889035667107
3264.678955078125	-16.34615384615385	-31.524642791156	6.039831865492394	37.95808978614515	19.45370474789032	-26.7156560952805	3523.05641025641	3661.538461538461	0.425273390036452	0.5231143552311436	0.1162483487450462
3284.210205078125	-17	-31.95896717373899	7.256050994641868	39.69925076359272	17.96788402208252	-27.97241570823142	3521.6	3664.468864468864	0.4301336573511543	0.5121654501216545	0.130779392338177
3303.741455078125	-16.96153846153846	-31.98205487466897	6.448897579602144	41.88591427756276	17.39959649715603	-29.63261827984488	3517.230769230769	3660.07326007326	0.4325637910085055	0.5048661800486618	0.1347424042272127
3323.272705078125	-16.73076923076923	-31.61787122005297	7.23971484880212	44.07305225399735	14.49973701930919	-30.49981478499994	3527.425641025641	3658.608058608058	0.4471445929526123	0.5060827250608273	0.1532364597093791
3342.803955078125	-18.80769230769231	-31.20795867463201	8.05177988544682	47.67981956467774	17.66966834401128	-30.91234641016584	3520.14358974359	3657.142857142857	0.4277035236938031	0.5036496350364964	0.154557463672391
3362.335205078125	-19.07692307692308	-30.96012194370881	9.390712570056046	50.87757427583965	22.27701656743617	-30.49008720973709	3518.687179487179	3654.212454212454	0.4471445929526123	0.4987834549878346	0.1571994715984148
3381.866455078125	-18.11538461538462	-30.71357855515181	9.563543142206072	52.62840264149301	21.73005879524552	-31.7375548670339	3520.14358974359	3648.351648351648	0.4483596597812879	0.4854014598540146	0.1717305151915456
3401.397705078125	-19.61538461538462	-30.32125700560448	10.67823489560879	55.34198526330926	21.66442200332053	-30.94902053055906	3505.579487179487	3654.212454212454	0.4520048602673147	0.4902676399026764	0.1796565389696169
3420.928955078125	-19.11538461538462	-30.16333836299809	9.974610457596848	56.2668261950745	26.78550874274315	-31.72338460309474	3520.14358974359	3649.81684981685	0.456865127582017	0.4817518248175183	0.190224570673712
3440.460205078125	-18.61538461538462	-29.64282194986759	10.37186672414855	58.51727665731131	27.65668651048738	-31.73717733003966	3509.948717948718	3649.81684981685	0.4592952612393682	0.475669099756691	0.2007926023778071
3459.991455078125	-19.11538461538462	-29.72529562111227	11.14939644022911	62.10470919158011	28.94889192795518	-32.1682928665138	3502.666666666666	3648.351648351648	0.4580801944106925	0.4793187347931874	0.2007926023778071
3479.522705078125	-19.11538461538462	-28.91464710229722	11.00158588409189	62.58670166510659	32.2213752284406	-32.1403879582442	3518.687179487179	3651.282051282051	0.4605103280680437	0.4610705596107056	0.2192866578599736
3499.053955078125	-18.57692307692308	-29.30716111350619	10.85805567530948	64.84994805629746	30.76877375882573	-30.9530566409339	3518.687179487179	3655.677655677655	0.4507897934386391	0.4635036496350365	0.2272126816380449
3518.585205078125	-18.34615384615385	-29.132359733941	11.50260208166533	66.14560649722256	28.36541983213662	-31.80637329522228	3531.794871794872	3651.282051282051	0.4714459295261239	0.4574209245742092	0.2483487450462351
3538.116455078125	-19.11538461538462	-27.76372636570795	11.14785674693601	68.30374230903975	22.64897149343835	-32.70144566733968	3521.6	3649.81684981685	0.465370595382746	0.4610705596107056	0.2483487450462351
3557.647705078125	-19.07692307692308	-27.04622159265874	11.77261809447558	68.69872828871408	17.47168821136948	-32.75716835995712	3501.210256410256	3649.81684981685	0.4787363304981774	0.4379562043795621	0.261558784676354
3577.178955078125	-19.69230769230769	-26.19489437704009	12.12933423662006	68.24573797980499	17.01579377173549	-32.75719740126436	3518.687179487179	3649.81684981685	0.4678007290400972	0.427007299270073	0.2774108322324967
3596.710205078125	-19.65384615384615	-25.35498398718975	12.40304551333374	68.72602529997685	16.55620340443609	-31.54210638222071	3502.666666666666	3654.212454212454	0.473876063183475	0.4318734793187348	0.2747688243064729
3616.241455078125	-19.65384615384615	-26.17948974564267	13.24371805136417	69.20583815768416	18.42818499005705	-31.12002142963545	3515.774358974359	3654.212454212454	0.4811664641555285	0.4221411192214112	0.2892998678996037
3635.772705078125	-19.80769230769231	-24.94391667179898	13.15737205148734	69.72792357142745	18.46140424624997	-28.67593049937422	3493.928205128205	3652.747252747252	0.4848116646415552	0.4111922141119221	0.2959048877146632
3655.303955078125	-19.69230769230769	-23.71829771509515	13.29950113937304	68.83378995763424	19.8889800354636	-29.06087667065027	3531.794871794872	3661.538461538461	0.473876063183475	0.4099756690997567	0.3170409511228534
3674.835205078125	-19.65384615384615	-23.43344675740593	14.40310710106547	68.82146849114471	19.88118731990235	-29.46899464844711	3530.338461538461	3663.003663003663	0.4872417982989064	0.3990267639902677	0.3210039630118891
3694.366455078125	-19.53846153846154	-23.60125023095399	14.98558847077662	68.82412256942844	18.95011708184645	-29.07016862630439	3512.861538461538	3663.003663003663	0.4799513973268529	0.3880778588807786	0.3276089828269485
3713.897705078125	-19.5	-22.41336915686395	15.16845784319764	68.360990409849	19.88693164151568	-29.87249568972415	3511.405128205128	3658.608058608058	0.4921020656136087	0.3844282238442823	0.3394980184940555
3733.428955078125	-19.76923076923077	-22.91151382644577	15.34492209151937	67.92951449317066	22.70926482398044	-30.24812086403884	3511.405128205128	3651.282051282051	0.4945321992709599	0.3795620437956205	0.3632760898282695
3752.960205078125	-20.15384615384615	-21.9554412760978	16.0028330356593	67.03054718527454	23.6674091363855	-30.63771301314195	3512.861538461538	3657.142857142857	0.496962332928311	0.3625304136253041	0.3593130779392338
3772.491455078125	-19.53846153846154	-21.84753957011763	17.68467081357394	67.48306303171908	26.45487552893984	-31.43069003829309	3507.035897435897	3654.212454212454	0.4848116646415552	0.3588807785888078	0.3738441215323646
3792.022705078125	-18.88461538461539	-21.00904569809694	17.41382336638542	65.66095994541234	26.0240067697071	-32.2331042256346	3524.51282051282	3652.747252747252	0.4993924665856622	0.3479318734793188	0.3606340819022457
3811.553955078125	-19.19230769230769	-19.54639865738745	17.66608671552627	67.04940749922159	27.87670699654014	-31.41213516829212	3525.969230769231	3654.212454212454	0.4872417982989064	0.3309002433090024	0.3844121532364597
3831.085205078125	-18.38461538461539	-20.26835314405371	18.34073412576215	67.93339926234447	27.84184020662973	-31.82948701912857	3533.251282051282	3651.282051282051	0.4872417982989064	0.3236009732360097	0.3949801849405548
3850.616455078125	-18.15384615384615	-19.18205333497567	19.5642052103221	70.16546387309877	22.17214816129896	-30.27585152446493	3520.14358974359	3655.677655677655	0.4872417982989064	0.316301703163017	0.4134742404227213
3870.147705078125	-18.96153846153846	-17.28300332573751	19.65016628687566	71.55969404593999	19.83113595909986	-27.8642243563786	3504.123076923077	3663.003663003663	0.496962332928311	0.2980535279805353	0.40554821664465
3889.678955078125	-18.57692307692308	-16.81024050009238	20.6274096200037	71.1431936740349	21.73019161906998	-27.43290553075373	3534.707692307692	3665.934065934066	0.4896719319562576	0.294403892944039	0.4214002642007926
3909.210205078125	-18.46153846153846	-16.32983309724703	21.49165486235142	72.98027230511488	21.23778285580809	-25.82354734347265	3523.05641025641	3670.32967032967	0.4908869987849331	0.281021897810219	0.4319682959048877
3928.741455078125	-18.34615384615385	-16.26668257683069	22.064898072304	74.35203916079627	20.28168693735095	-24.62233617529568	3523.05641025641	3668.864468864469	0.4872417982989064	0.2749391727493917	0.4438573315719947
3948.272705078125	-18.34615384615385	-17.04884676972347	22.71156925540432	75.26067385689818	20.26240557856304	-24.22345207053845	3540.533333333333	3670.32967032967	0.4848116646415552	0.2603406326034063	0.4425363276089828
3967.803955078125	-19.15384615384615	-15.21061464556261	21.99227073966866	77.4772884604147	17.84756300864727	-24.26976664227277	3524.51282051282	3667.399267399267	0.496962332928311	0.2530413625304137	0.4451783355350066
3987.335205078125	-18.5	-15.30132567592536	22.02782225780625	77.95444723983829	20.65061483232412	-24.24650771183024	3552.184615384615	3670.32967032967	0.4823815309842041	0.2360097323600973	0.4597093791281374
4006.866455078125	-19.19230769230769	-13.96808985650059	21.44295436349079	78.87274932414601	21.57019642715335	-23.83833165141891	3527.425641025641	3665.934065934066	0.4823815309842041	0.2262773722627737	0.476882430647292
4026.397705078125	-18.26923076923077	-13.08258144977521	22.39830325799101	78.4755837286525	25.34697799435775	-23.3884289144858	3520.14358974359	3673.260073260073	0.4775212636695018	0.2068126520681265	0.4702774108322325
4045.928955078125	-18.53846153846154	-11.85319024450329	22.73643530208782	76.26816205087722	31.03225547081102	-24.12582845355576	3549.271794871795	3670.32967032967	0.4787363304981774	0.2104622871046229	0.4821664464993395
4065.460205078125	-18.53846153846154	-10.69688058138819	22.61325983864014	75.92559047790924	32.97806742414864	-21.24580176114985	3547.815384615385	3677.655677655677	0.4799513973268529	0.1861313868613139	0.4848084544253633
4084.991455078125	-16.57692307692308	-10.96439459259715	22.4889603990885	78.67130380509114	32.46637730209883	-19.23755946911155	3540.533333333333	3682.051282051282	0.4750911300121506	0.1800486618004866	0.4940554821664465
4104.522705078125	-16.80769230769231	-10.50330264211369	22.74205518260763	79.57387411620009	25.91401884579717	-16.86312916494892	3552.184615384615	3689.377289377289	0.4714459295261239	0.1800486618004866	0.5033025099075297
4124.053955078125	-17.92307692307692	-8.988467697234711	21.19261563096631	79.09453572095733	21.71046530725587	-16.49220805107579	3552.184615384615	3687.912087912088	0.4665856622114216	0.1472019464720195	0.5099075297225891
4143.585205078125	-17.88461538461539	-8.78214109749338	22.37628564389974	77.3731839823859	22.74243998737759	-14.42385846035825	3547.815384615385	3692.307692307692	0.4678007290400972	0.145985401459854	0.5270805812417437
4163.116455078125	-17.57692307692308	-7.59420613413808	22.28722978382706	74.71590053644979	24.70918083322063	-13.96945495213433	3555.097435897435	3692.307692307692	0.4665856622114216	0.1399026763990268	0.5323645970937913
4182.647705078125	-16.30769230769231	-7.459998768245366	21.99993841226828	73.40574101321602	25.70424032948402	-13.13007623132712	3544.902564102564	3696.703296703297	0.4556500607533414	0.1265206812652068	0.5178335535006605
4202.178955078125	-17.42307692307692	-6.366269939028145	22.27503541294574	72.10259479990431	28.56923301742044	-12.68023157700851	3569.661538461538	3699.6336996337	0.4629404617253949	0.1143552311435523	0.5323645970937913
4221.710205078125	-16.34615384615385	-5.077331095645747	22.13578555151814	71.23841227565757	28.1502537616448	-11.45128974840543	3469.169230769231	3594.139194139194	0.4556500607533414	0.09975669099756691	0.5363276089828269
4241.241455078125	-15.73076923076923	-4.536775574305598	23.33877871527992	72.13036627363161	25.3221762575667	-10.67216353281371	3460.430769230769	3594.139194139194	0.4544349939246658	0.09124087591240876	0.5350066050198151
4260.772705078125	-15.61538461538462	-3.077893083697727	23.35619264642483	72.13785404601823	24.86053749631938	-10.26869153284393	3482.276923076923	3600	0.4349939246658566	0.08515815085158152	0.5363276089828269
4280.303955078125	-15.42307692307692	-2.696010654677588	23.30053273387941	75.26841150220413	20.56427309150392	-9.118469955535572	3464.8	3598.534798534799	0.4374240583232077	0.07664233576642336	0.5482166446499339
4299.835205078125	-15.03846153846154	-2.5542818870481	23.52178666009731	75.70519557544991	15.87979943292737	-7.945192736935429	3483.733333333333	3602.930402930403	0.44228432563791	0.06326034063260341	0.5455746367239102
4319.366455078125	-14.30769230769231	-1.301595122251648	23.61821765104391	76.07117939050686	7.885927290007071	-8.028791296515202	3488.102564102564	3605.860805860806	0.433778857837181	0.05231143552311435	0.5640686922060766
4338.897705078125	-15.88461538461539	-0.003949313296791268	23.77438874176264	74.29352847605529	7.016797916210759	-7.203379550496404	3467.71282051282	3607.326007326007	0.4362089914945322	0.04501216545012166	0.5521796565389696
4358.428955078125	-15.92307692307692	0.05301164008129583	24.81095645747367	72.05445055537889	10.81655676986849	-8.367480978671431	3482.276923076923	3602.930402930403	0.4216281895504253	0.0340632603406326	0.5667107001321005
4377.960205078125	-16.23076923076923	0.2046098417195296	25.23104637556199	71.6524512657825	14.12390686026433	-7.922224219565385	3470.625641025641	3602.930402930403	0.4204131227217496	0.02554744525547445	0.560105680317041
4397.491455078125	-14.80769230769231	1.231100264827246	24.40652522017614	71.2311171997745	15.55353104342587	-7.495551371767567	3476.451282051281	3605.860805860806	0.4313487241798298	0.01338199513381995	0.560105680317041
4417.022705078125	-15.26923076923077	1.505073289400752	24.63095091457782	71.6476175716796	13.65447538345575	-7.926870197392442	3472.082051282051	3601.465201465201	0.4191980558930741	-0.007299270072992701	0.5614266842800528
4436.553955078125	-13.19230769230769	2.00665917349264	24.39781055613722	71.97132883070054	7.499365569963484	-10.03247473464819	3476.451282051281	3602.930402930403	0.4228432563791008	0.00121654501216545	0.5561426684280053
4456.085205078125	-14.73076923076923	2.621458705425879	24.04244934409066	70.98222648820399	3.2703854907905	-11.69752657323944	3492.471794871794	3597.069597069597	0.4204131227217496	-0.0194647201946472	0.5614266842800528
4475.616455078125	-14.65384615384616	4.751639773357148	23.22570363983494	71.88337341191929	3.712742893249907	-11.702114468452	3454.605128205128	3586.813186813186	0.4191980558930741	-0.02676399026763991	0.5640686922060766
4495.147705078125	-15.11538461538462	4.427441953562851	24.51251770647287	70.12410834895023	9.384483332528593	-12.44413094404177	3453.148717948718	3588.278388278388	0.4191980558930741	-0.05231143552311435	0.5653896961690885
4514.678955078125	-15.80769230769231	5.682923261686272	23.96922153107101	67.06217153513398	15.58964450682335	-11.94329669885453	3470.625641025641	3594.139194139194	0.416767922235723	-0.05474452554744526	0.5614266842800528
4534.210205078125	-14.46153846153846	5.358317423169305	23.46874422615015	65.81001634113497	22.2178817247896	-11.04816624412264	3469.169230769231	3597.069597069597	0.4155528554070473	-0.06447688564476886	0.560105680317041
4553.741455078125	-13.53846153846154	6.225349510377533	23.42483217343105	65.36451380461251	21.30034852390829	-10.6447232854601	3466.25641025641	3597.069597069597	0.402187120291616	-0.06569343065693431	0.5667107001321005
4573.272705078125	-13.38461538461539	6.845876701361089	23.01385723963787	64.43919841038272	18.51083373740602	-10.66336527938283	3479.364102564102	3595.604395604395	0.402187120291616	-0.08394160583941607	0.5746367239101717
4592.803955078125	-13.30769230769231	8.02760670074521	23.46581880889327	63.58250365852258	17.63021572038305	-9.030951450809965	3473.538461538461	3597.069597069597	0.3973268529769137	-0.1021897810218978	0.5587846763540291
4612.335205078125	-13.15384615384616	8.340965079756114	23.02866908911745	63.14448889438673	16.25104375825443	-8.224036492177648	3469.169230769231	3604.395604395604	0.3997569866342648	-0.1034063260340633	0.5693527080581242
4631.866455078125	-13.11538461538462	8.666617909712386	22.09218143745766	62.70647413025087	14.87187179612579	-7.417121533545331	3489.558974358974	3605.860805860806	0.3948967193195626	-0.1192214111922141	0.5627476882430648
4651.397705078125	-12.23076923076923	9.114075876085485	21.91159081111043	62.71178228681831	13.00973132001401	-6.619469489259879	3458.974358974359	3602.930402930403	0.3839611178614824	-0.1289537712895377	0.5614266842800528
4670.928955078125	-12.07692307692308	10.05177988544682	21.02639034304367	60.90200066700108	12.58665527634251	-7.013765698804544	3491.015384615384	3608.791208791209	0.3839611178614824	-0.1338199513381995	0.560105680317041
4690.460205078125	-12.92307692307692	10.41959721623453	22.71244688058139	59.96919750038467	10.25877925108757	-7.435879692697052	3472.082051282051	3602.930402930403	0.3791008505467801	-0.1313868613138686	0.560105680317041
4709.991455078125	-12.73076923076923	10.95698866785736	22.57364353020878	58.15723626474827	8.435201492551611	-7.435995857926048	3470.625641025641	3602.930402930403	0.3876063183475091	-0.1496350364963504	0.5561426684280053
4729.522705078125	-12.57692307692308	12.3181083328201	21.67150643591797	59.56549305743365	9.834055673698586	-5.803436822816941	3454.605128205128	3604.395604395604	0.3754556500607533	-0.1532846715328467	0.5482166446499339
4749.053955078125	-12.42307692307692	13.0017629488206	21.95031409743179	57.33172329332471	11.77167405124453	-6.169886206706515	3469.169230769231	3610.25641025641	0.3778857837181044	-0.170316301703163	0.5508586525759578
4768.585205078125	-11.42307692307692	13.85726273326353	22.40609410605407	57.29788743460442	8.485653713584531	-6.202408051495913	3488.102564102564	3607.326007326007	0.3730255164034022	-0.1727493917274939	0.5482166446499339
4788.116455078125	-10.65384615384616	12.99518845845907	22.43288476935394	59.01052070989915	1.851672174004949	-6.694037464950778	3472.082051282051	3605.860805860806	0.3766707168894289	-0.183698296836983	0.5389696169088507
4807.647705078125	-12	13.64082034858656	22.26667487836423	57.61505984616785	-1.870961244501128	-7.125472455804648	3472.082051282051	3607.326007326007	0.3730255164034022	-0.1909975669099757	0.5548216644649934
4827.178955078125	-12.73076923076923	14.12490761840241	21.8700036952639	57.1615950747942	0.004716268785237759	-7.918507563570293	3486.646153846154	3605.860805860806	0.3742405832320777	-0.2043795620437956	0.5389696169088507
4846.710205078125	-13.03846153846154	16.13876485804028	21.48483402106301	57.63174054429571	0.9378349007890502	-7.505714566639147	3464.8	3602.930402930403	0.370595382746051	-0.1995133819951338	0.5310435931307794
4866.241455078125	-12.03846153846154	15.40299162406849	20.73503418119111	58.07989715910191	0.924297863614468	-7.510331503158955	3473.538461538461	3602.930402930403	0.3584447144592952	-0.2165450121654501	0.5389696169088507
4885.772705078125	-12.19230769230769	16.89800301779885	21.13831064851881	56.7037710717822	-0.9206096476573231	-7.923182582704598	3473.538461538461	3602.930402930403	0.3730255164034022	-0.2177615571776156	0.5270805812417437
4905.303955078125	-12.19230769230769	16.55157202685225	21.15216788815668	57.57591583088012	-3.294841106049346	-7.955646344879498	3480.820512820513	3601.465201465201	0.3730255164034022	-0.2262773722627737	0.5310435931307794
4924.835205078125	-11.92307692307692	16.98274003818439	20.47838270616493	58.39972364894906	-10.36338733252708	-8.034569885324965	3466.25641025641	3594.139194139194	0.3742405832320777	-0.2311435523114355	0.52443857331572
4944.366455078125	-11.92307692307692	17.78876947712016	20.56152614399212	56.11761694381115	-13.12008372306685	-8.447479047485105	3480.820512820513	3601.465201465201	0.3669501822600243	-0.2506082725060828	0.5270805812417437
4963.897705078125	-13.57692307692308	19.40357670751986	20.3211646240069	56.17126204140757	-10.28790943109292	-7.603367224929086	3466.25641025641	3602.930402930403	0.3730255164034022	-0.2493917274939173	0.5270805812417437
4983.428955078125	-14.15384615384616	19.99701299501139	20.07242717250724	55.78110975583614	-4.64119467221548	-7.542998554484597	3445.866666666666	3598.534798534799	0.3657351154313487	-0.2579075425790754	0.5178335535006605
5002.960205078125	-13	18.93870481000185	19.91091334606147	54.92299161658236	1.472903169522613	-8.289602925286923	3464.8	3602.930402930403	0.3778857837181044	-0.2639902676399027	0.5059445178335535
5022.491455078125	-12.57692307692308	19.9511378333436	18.86618525589703	54.07984902210183	6.663723488766064	-8.229263296149684	3467.71282051282	3602.930402930403	0.370595382746051	-0.2712895377128954	0.5085865257595773
5042.022705078125	-12.34615384615385	19.78104791525528	19.44760423723594	52.6904525433635	9.474167167773734	-10.63624448640896	3476.451282051281	3594.139194139194	0.3608748481166464	-0.2931873479318735	0.4980184940554822
5061.553955078125	-12.5	21.2960753217959	18.85008006405124	52.18381713685798	6.186098436165811	-11.48038535027223	3476.451282051281	3594.139194139194	0.3633049817739976	-0.2822384428223844	0.5046235138705416
5081.085205078125	-12.26923076923077	22.09599217835807	17.08500646671183	50.38588252106572	8.102387060975923	-12.25956964847845	3483.733333333333	3591.208791208791	0.3523693803159174	-0.305352798053528	0.4966974900924703
5100.616455078125	-11.96153846153846	22.63725595861304	18.56027899242471	49.9715617649798	11.40194443581051	-12.22243086716924	3470.625641025641	3589.743589743589	0.3608748481166464	-0.2968369829683699	0.4834874504623514
5120.147705078125	-11.65384615384616	21.9513841842705	17.93079078647534	50.89251792757124	11.39045579258385	-11.41542878461518	3450.235897435897	3594.139194139194	0.3535844471445929	-0.3102189781021898	0.4953764861294584
5139.678955078125	-11.73076923076923	22.64500061587732	17.94227689844183	47.70878983625347	10.52297395250503	-12.61675611802116	3560.923076923077	3692.307692307692	0.3523693803159174	-0.3187347931873479	0.4848084544253633
5159.210205078125	-11.53846153846154	23.03997043788877	17.2322473363306	49.97421584326352	10.47087419775462	-11.82360484502652	3460.430769230769	3594.139194139194	0.3535844471445929	-0.3248175182481752	0.4821664464993395
5178.741455078125	-11.42307692307692	23.94225380304243	16.23346369403215	47.69428875394478	9.114679522079308	-12.63069405150233	3552.184615384615	3696.703296703297	0.3365735115431349	-0.3272506082725061	0.4821664464993395
5198.272705078125	-11.57692307692308	23.58886339841104	14.82606084867894	46.34498521542327	8.685859156794484	-12.62148921976996	3563.835897435898	3699.6336996337	0.3402187120291616	-0.3357664233576643	0.47556142668428
5217.803955078125	-11.11538461538462	24.16326137833344	16.41385416025128	44.15471869824042	14.84836082561758	-12.94612480321602	3558.010256410256	3695.238095238095	0.3547995139732685	-0.3418491484184915	0.4663143989431968
5237.335205078125	-11.19230769230769	25.08398257067192	14.68548685101928	42.8515724849287	17.713353513554	-12.49628014889742	3566.748717948718	3699.6336996337	0.3329283110571081	-0.3442822384428224	0.4834874504623514
5256.866455078125	-10.19230769230769	24.89095122251648	13.72166964340704	40.1797879566839	18.27179992897132	-12.05581457415468	3461.887179487179	3589.743589743589	0.3341433778857837	-0.3503649635036497	0.4689564068692206
5276.397705078125	-8.5	25.26158619203055	14.65145962924185	40.20443088966294	18.28738536009382	-11.239578618561	3460.430769230769	3595.604395604395	0.3365735115431349	-0.3576642335766423	0.4729194187582563
5295.928955078125	-8.846153846153847	26.34238159758576	12.88092012071196	38.8411007312973	14.11869861146293	-10.4513056538514	3469.169230769231	3595.604395604395	0.3256379100850547	-0.3673965936739659	0.4649933949801849
5315.460205078125	-9.5	25.55315791094414	12.61133522202377	36.61794728032325	12.33203603678531	-9.222450949170071	3473.538461538461	3601.465201465201	0.31591737545565	-0.3807785888077859	0.4636723910171731
5334.991455078125	-8.230769230769232	26.37714787214387	12.45029870049886	36.64742390740518	12.81705294471638	-8.401569015749335	3479.364102564102	3602.930402930403	0.3171324422843256	-0.3795620437956205	0.4689564068692206
5354.522705078125	-8	26.29174108517584	12.64371497197758	33.04113105918934	7.315549667093931	-7.196031324125035	3473.538461538461	3602.930402930403	0.31591737545565	-0.3807785888077859	0.4623513870541612
5374.053955078125	-8.230769230769232	26.10770154585207	14.38415347662746	33.04378513747307	6.38447942903804	-6.797205301982308	3472.082051282051	3600	0.3110571081409477	-0.3868613138686132	0.4583883751651255
5393.585205078125	-8.038461538461538	27.98847539570118	12.46084559955657	29.02099191735213	2.782031811385712	-5.160348784733133	3477.907692307692	3611.721611721612	0.3061968408262454	-0.3759124087591241	0.453104359313078
5413.116455078125	-8.076923076923077	27.32409004126378	13.02626716758022	25.48455040239604	5.25307092394773	-4.283947447845707	3453.148717948718	3610.25641025641	0.3147023086269745	-0.3990267639902677	0.4464993394980185
5432.647705078125	-9.76923076923077	27.68711892590996	13.8748229352713	22.89275905808132	12.3913507302463	-3.370320205727329	3473.538461538461	3619.047619047619	0.3134872417982989	-0.3978102189781022	0.4464993394980185
5452.178955078125	-9.076923076923077	27.65030485927203	13.10014165178296	18.89536499936495	17.199706117342	-3.690425976575331	3492.471794871794	3613.186813186813	0.307411907654921	-0.4014598540145986	0.4398943196829591
5471.710205078125	-8.5	26.58803196403276	11.79070949066946	16.2376070909643	21.49801891610539	-4.029028534809813	3472.082051282051	3610.25641025641	0.3171324422843256	-0.3965936739659368	0.4478203434610304
5491.241455078125	-8.307692307692308	27.36022664285274	11.45020631890128	13.45805790506211	18.7236887004952	-6.069792671637505	3473.538461538461	3607.326007326007	0.3013365735115431	-0.3953771289537713	0.4464993394980185
5510.772705078125	-8.76923076923077	26.77966988975796	12.09342858902507	8.958862133943118	20.71340683279156	-7.229393328521719	3483.733333333333	3604.395604395604	0.3122721749696233	-0.4038929440389295	0.453104359313078
5530.303955078125	-7.384615384615385	26.6305967851204	12.39323766705672	9.849867206988076	22.54847323455417	-8.036279245846787	3463.343589743589	3598.534798534799	0.3025516403402187	-0.3965936739659368	0.4464993394980185
5549.835205078125	-6.5	28.06730769230769	12.75	7.931090238623384	12.72897493915	-8.931612989729427	3482.276923076923	3600	0.2928311057108141	-0.4014598540145986	0.4491413474240423
5569.366455078125	-7.461538461538462	27.32806244995997	12.21226211738622	7.471561082256761	8.071575354922615	-7.749101898089667	3467.71282051282	3600	0.2867557715674362	-0.4063260340632603	0.4398943196829591
5588.897705078125	-6.384615384615385	28.23130812342182	12.12690152121697	8.826172777345713	6.638255244095657	-6.960654685536581	3467.71282051282	3602.930402930403	0.2952612393681652	-0.4038929440389295	0.4464993394980185
5608.428955078125	-6.76923076923077	26.89323766705672	12.10734741639466	4.75409369126671	3.004636764198325	-6.956270079474765	3483.733333333333	3602.930402930403	0.2879708383961118	-0.4197080291970803	0.4425363276089828
5627.960205078125	-6.807692307692308	28.96796668103714	12.25551210198928	3.907066327612375	3.062881700792495	-5.31456429524779	3467.71282051282	3602.930402930403	0.2940461725394897	-0.4209245742092457	0.4359313077939234
5647.491455078125	-6.115384615384616	29.17673369464803	12.66331526759869	-0.5300476485944774	2.75999145797475	-3.640568996689409	3479.364102564102	3613.186813186813	0.2879708383961118	-0.413625304136253	0.4385733157199472
5667.022705078125	-5.576923076923078	27.53552842273819	13.41588655539817	-0.9535613304216446	2.789113926271835	-2.819716104575922	3485.189743589744	3619.047619047619	0.298906439854192	-0.4099756690997567	0.4504623513870542
5686.553955078125	-6.461538461538462	28.60851758329741	12.57412083512964	-1.837078631079984	0.4924087632618955	-1.609358187281071	3479.364102564102	3617.582417582417	0.2891859052247873	-0.4014598540145986	0.4385733157199472
5706.085205078125	-6.846153846153847	28.0302857670752	13.02417318470161	-2.659937524219831	2.897811083898923	0.05557748608118754	3498.297435897436	3624.908424908425	0.2879708383961118	-0.402676399026764	0.4359313077939234
5725.616455078125	-5.653846153846154	28.33384399827554	12.03856931699206	-3.54345482487817	0.6011059208889832	1.265935403376039	3486.646153846154	3619.047619047619	0.284325637910085	-0.4002433090024331	0.4478203434610304
5745.147705078125	-6.615384615384616	27.51684424462647	13.46548007636879	-4.017959526018035	-3.133016140843756	1.641502495076232	3483.733333333333	3624.908424908425	0.2928311057108141	-0.4111922141119221	0.4425363276089828
5764.678955078125	-6.307692307692308	27.83639219067562	12.56500585083451	-6.277602913996089	-7.274628815125486	2.43900933282544	3488.102564102564	3626.373626373626	0.2940461725394897	-0.402676399026764	0.4504623513870542
5784.210205078125	-6.576923076923078	28.6146532610704	12.38272156186488	-7.641407534826286	-9.111743610836024	2.434276231076637	3480.820512820513	3623.443223443223	0.284325637910085	-0.391727493917275	0.4491413474240423
5803.741455078125	-7.307692307692308	27.7846123052288	12.30784627702162	-9.83555882118295	-8.081817324662218	3.691006802720309	3483.733333333333	3633.699633699634	0.2879708383961118	-0.3990267639902677	0.4504623513870542
5823.272705078125	-6.884615384615385	28.23890650982325	12.24698220114553	-10.29120320837578	-7.606641526240315	3.292151739270334	3498.297435897436	3627.838827838828	0.2952612393681652	-0.4099756690997567	0.4491413474240423
5842.803955078125	-6.76923076923077	26.97407156494426	11.91180636817146	-13.38384734016402	-7.950142880581806	4.95229622826929	3501.210256410256	3630.769230769231	0.2916160388821385	-0.4014598540145986	0.4438573315719947
5862.335205078125	-7.538461538461539	26.96852866908912	12.95818193015951	-13.3763595677774	-8.411781641829126	5.355768228239073	3501.210256410256	3632.234432234432	0.3061968408262454	-0.4038929440389295	0.4504623513870542
5881.866455078125	-7.26923076923077	27.81233448297099	12.80635277452732	-16.14311282472552	-13.50989109479842	4.516128135666617	3507.035897435897	3629.304029304029	0.3037667071688943	-0.3965936739659368	0.4636723910171731
5901.397705078125	-8.615384615384617	26.60725503479707	12.86801749091581	-18.78760034170756	-13.8669294863145	6.171655688145767	3486.646153846154	3632.234432234432	0.3001215066828675	-0.4002433090024331	0.4491413474240423
5920.928955078125	-8.923076923076923	26.96825152429636	12.43357763133584	-22.26338344914517	-6.69378289010551	7.5026347811006	3483.733333333333	3636.630036630037	0.3122721749696233	-0.3990267639902677	0.451783355350066
5940.460205078125	-8.653846153846155	26.50947681221901	12.0261593890497	-26.27480412770568	-5.625293886355877	7.961597143229824	3502.666666666666	3635.164835164835	0.3147023086269745	-0.3892944038929441	0.4676354029062087
5959.991455078125	-8.730769230769232	26.02522787460738	13.23860626963109	-29.39910450239503	-7.854313863492904	9.195039743123713	3509.948717948718	3646.886446886447	0.3086269744835966	-0.3868613138686132	0.4610303830911493
5979.522705078125	-7.884615384615385	25.2809555336577	13.06760793249985	-30.80954091089958	-10.65366975950434	7.956660752330278	3512.861538461538	3638.095238095238	0.3098420413122722	-0.3832116788321168	0.4702774108322325
5999.053955078125	-8.307692307692308	25.20157664593213	13.61347539570118	-30.38773238242704	-14.41486589558624	8.322993970990854	3491.015384615384	3642.490842490842	0.3207776427703524	-0.364963503649635	0.47556142668428
6018.585205078125	-8.538461538461538	25.40015088994272	13.53091704132537	-33.60093710082673	-15.76736464359614	6.300784704164141	3521.6	3635.164835164835	0.31591737545565	-0.3637469586374696	0.4715984147952444
6038.116455078125	-9.153846153846155	24.99123914516228	13.43804274188582	-32.68746871062191	-15.31721452557548	6.704314786748423	3499.753846153846	3639.560439560439	0.3256379100850547	-0.3625304136253041	0.47556142668428
6057.647705078125	-8.615384615384617	24.6641620989099	13.86881813142822	-36.7423926361085	-18.47360881310299	7.121463348434136	3491.015384615384	3636.630036630037	0.3195625759416768	-0.3503649635036497	0.4676354029062087
6077.178955078125	-10.42307692307692	23.96862874915317	13.91471638849541	-40.76878885944225	-16.48184228685872	6.773481710623794	3511.405128205128	3638.095238095238	0.3244228432563791	-0.3503649635036497	0.476882430647292
6096.710205078125	-11	23.829171029131	15.6952946972963	-46.08117613549529	-11.14785888030819	7.288108682755952	3492.471794871794	3636.630036630037	0.3280680437424058	-0.3418491484184915	0.4795244385733157
6116.241455078125	-11	23.66673338670936	16.12486912607008	-47.86243005315968	-6.4227741102079	6.128682273715231	3501.210256410256	3635.164835164835	0.3317132442284325	-0.3284671532846715	0.4848084544253633
6135.772705078125	-10.76923076923077	23.76455010161976	16.77249491901213	-47.87522598211375	-4.098994872848797	4.927558229459995	3492.471794871794	3626.373626373626	0.3292831105710814	-0.3309002433090024	0.4782034346103039
6155.303955078125	-9.423076923076923	21.911798669705	17.67929728398103	-47.44687860618368	-3.658685864337309	4.111351315173565	3501.210256410256	3629.304029304029	0.3341433778857837	-0.3248175182481752	0.4808454425363276
6174.835205078125	-10.65384615384616	22.26337223625054	16.71600357208844	-47.97332325156535	-6.492908550259162	2.455620473543674	3492.471794871794	3623.443223443223	0.3244228432563791	-0.3138686131386861	0.4861294583883752
6194.366455078125	-11.26923076923077	21.48339440783396	17.86874114676357	-49.38423412253443	-6.960692493350242	0.4242354162918419	3499.753846153846	3630.769230769231	0.3365735115431349	-0.3187347931873479	0.4927344782034346
6213.897705078125	-11.53846153846154	21.69889757960214	18.90127486604668	-50.70671511225773	-5.973425712648101	0.8554961593022187	3483.733333333333	3624.908424908425	0.3353584447144593	-0.3029197080291971	0.5059445178335535
6233.428955078125	-10.34615384615385	20.84075722116155	18.30829278807661	-51.09904701364834	-1.727212668635124	1.310044874062377	3491.015384615384	3627.838827838828	0.3353584447144593	-0.305352798053528	0.5033025099075297
6252.960205078125	-10.26923076923077	21.54826168627209	17.47153107101066	-52.9334715664446	-2.165874143429121	0.09951270892403247	3486.646153846154	3621.978021978022	0.3462940461725395	-0.294403892944039	0.5085865257595773
6272.491455078125	-10.03846153846154	19.34731631459014	19.59572273203178	-54.32627835189218	-6.819577799991089	0.06690374021288853	3485.189743589744	3620.51282051282	0.3462940461725395	-0.2846715328467153	0.5217965653896962
6292.022705078125	-9.538461538461538	19.28890804951654	18.1699821395578	-53.0257862168642	-8.753500249871625	-0.7817669362484414	3492.471794871794	3621.978021978022	0.3402187120291616	-0.2664233576642336	0.5270805812417437
6311.553955078125	-9.230769230769232	20.02263349140851	19.6375561988052	-53.91944536819288	-9.657496413578354	-0.3737070410660995	3492.471794871794	3620.51282051282	0.3438639125151883	-0.2749391727493917	0.523117569352708
6331.085205078125	-10.26923076923077	18.44347016074398	20.78803042433947	-54.30334057226777	-10.53606603665341	2.070325806580633	3499.753846153846	3624.908424908425	0.3426488456865127	-0.2664233576642336	0.5178335535006605
6350.616455078125	-9.76923076923077	17.9731939397672	20.72491839625547	-52.93640741068931	-11.96159343191911	3.266890996930559	3498.297435897436	3629.304029304029	0.3450789793438639	-0.2591240875912409	0.5165125495376486
6370.147705078125	-10.15384615384616	17.68750384923323	21.93249984603067	-53.35461293594903	-13.79461143973381	4.885395933329498	3479.364102564102	3626.373626373626	0.3523693803159174	-0.2493917274939173	0.523117569352708
6389.678955078125	-11.42307692307692	17.44166871959106	22.03194863583174	-52.85982453346848	-12.8459073766075	6.114424885854323	3509.948717948718	3635.164835164835	0.3535844471445929	-0.2457420924574209	0.5270805812417437
6409.210205078125	-10.92307692307692	16.76892283057215	22.47693539446942	-50.96161303240545	-10.96778060914278	8.971366895661197	3504.123076923077	3642.490842490842	0.3560145808019441	-0.2372262773722628	0.5389696169088507
6428.741455078125	-12.19230769230769	16.70323181622221	23.18456303504342	-51.41242372549538	-10.02317333391231	8.577157810038278	3512.861538461538	3645.421245421245	0.3547995139732685	-0.2238442822384428	0.5217965653896962
6448.272705078125	-12.46153846153846	15.73240130565991	23.91839625546591	-50.5235982682696	-9.588608647014151	8.164451937028879	3509.948717948718	3639.560439560439	0.3584447144592952	-0.2165450121654501	0.5416116248348745
6467.803955078125	-11.38461538461539	13.94965202931576	23.51739853421199	-47.85882704994687	-12.0169882541045	8.113520428774748	3486.646153846154	3632.234432234432	0.3693803159173754	-0.2128953771289538	0.5482166446499339
6487.335205078125	-11.73076923076923	14.08276621297038	22.9770739668658	-47.04298146672909	-16.29232376641457	6.838118821901103	3521.6	3639.560439560439	0.3730255164034022	-0.2043795620437956	0.5350066050198151
6506.866455078125	-13.65384615384616	15.02698312496151	23.84315144423231	-44.7990698519498	-19.62265114326372	8.006866227903187	3501.210256410256	3641.025641025641	0.3730255164034022	-0.2007299270072993	0.5350066050198151
6526.397705078125	-13.11538461538462	13.33188858779331	23.44403214879596	-45.65936760702275	-14.9090550163901	7.65444190141653	3493.928205128205	3638.095238095238	0.3791008505467801	-0.1909975669099757	0.5350066050198151
6545.928955078125	-13.61538461538462	12.68819671121513	23.43631828539755	-44.78286361628648	-14.48228304505319	6.833618050610292	3502.666666666666	3639.560439560439	0.3778857837181044	-0.183698296836983	0.5455746367239102
6565.460205078125	-12.92307692307692	11.71524912237482	23.31446695818193	-43.88702484913863	-12.177785166482	6.03137811111228	3505.579487179487	3638.095238095238	0.3815309842041312	-0.1630170316301703	0.5548216644649934
6584.991455078125	-13.15384615384616	12.45502555890867	23.09487590072058	-43.93849033091588	-13.60945774359147	4.79308624424059	3501.210256410256	3633.699633699634	0.3803159173754556	-0.1690997566909976	0.5508586525759578
6604.522705078125	-13.26923076923077	11.29869280039416	23.3345907495227	-45.40787999358429	-17.37884745546505	1.912943386605682	3496.841025641026	3624.908424908425	0.3851761846901579	-0.1630170316301703	0.5627476882430648
6624.053955078125	-13.69230769230769	11.49645870542588	23.48475703639835	-45.44266477723366	-16.00172388728434	0.2944094088994932	3493.928205128205	3624.908424908425	0.393681652490887	-0.1581508515815085	0.5640686922060766
6643.585205078125	-13.73076923076923	11.06225749830634	22.1563558539139	-47.60999351479212	-13.55571045512357	1.973195891821175	3498.297435897436	3624.908424908425	0.3900364520048603	-0.1520681265206813	0.5482166446499339
6663.116455078125	-12.30769230769231	10.59216604052473	23.08400566607132	-46.60108193341942	-9.780576421636654	4.449837708179051	3507.035897435897	3632.234432234432	0.3948967193195626	-0.1362530413625304	0.5548216644649934
6682.647705078125	-11.57692307692308	10.56536767875839	23.6931545236189	-47.01833853375005	-16.27673833529206	7.654354777494783	3491.015384615384	3638.095238095238	0.3961117861482381	-0.1411192214111922	0.5455746367239102
6702.178955078125	-13.19230769230769	11.3918596415594	24.36855638356839	-49.17723057399279	-18.95550757021932	11.32262539330304	3486.646153846154	3643.956043956044	0.4009720534629404	-0.1204379562043796	0.5495376486129459
6721.710205078125	-14	10.16841165239884	24.81018661082712	-49.47895297831843	-11.85374208754866	13.84563986400974	3520.14358974359	3655.677655677655	0.3973268529769137	-0.1094890510948905	0.5535006605019816
6741.241455078125	-13.38461538461539	8.666564020447128	24.28718359302827	-48.94985425465305	-9.950589639682697	15.90019672778236	3511.405128205128	3657.142857142857	0.4119076549210206	-0.1192214111922141	0.5442536327608983
6760.772705078125	-13.61538461538462	8.505619880519799	24.87285212785613	-48.46738731866201	-9.009678292117632	16.72110770251034	3533.251282051282	3664.468864468864	0.4046172539489671	-0.1009732360097324	0.5521796565389696
6780.303955078125	-13.23076923076923	7.509515304551333	26.21654246474103	-45.36943503030632	-10.52831741388793	15.85861525779684	3517.230769230769	3660.07326007326	0.4070473876063183	-0.1009732360097324	0.5508586525759578
6799.835205078125	-14.03846153846154	7.996666564020447	25.74359487590072	-43.62467104964594	-17.60835228359233	16.58669379990543	3496.841025641026	3658.608058608058	0.4106925880923451	-0.08880778588807786	0.5640686922060766
6819.366455078125	-15.07692307692308	4.32967912791772	25.51604360411406	-42.32417891461795	-19.54227473347286	15.7380231234441	3502.666666666666	3657.142857142857	0.4131227217496962	-0.07177615571776155	0.5548216644649934
6838.897705078125	-16.26923076923077	6.406486727843814	24.79104822319394	-41.9129866992803	-19.5791899173312	14.50905225353377	3501.210256410256	3649.81684981685	0.4264884568651275	-0.06447688564476886	0.5521796565389696
6858.428955078125	-16.11538461538462	5.909196588039662	24.50170905955534	-42.7834263050236	-13.47288479115436	13.35432990493461	3537.620512820513	3655.677655677655	0.4277035236938031	-0.05474452554744526	0.5535006605019816
6877.960205078125	-17.03846153846154	4.783496027591304	24.0175063127425	-43.67803438128138	-9.713737049020374	12.17637766720016	3508.492307692307	3649.81684981685	0.416767922235723	-0.04014598540145985	0.560105680317041
6897.491455078125	-15.5	4.836153538215188	23.69232308924062	-42.79935077472593	-7.886463362819004	10.96137377207825	3515.774358974359	3651.282051282051	0.4325637910085055	-0.03892944038929441	0.5667107001321005
6917.022705078125	-15.5	4.226434994149165	23.40901952331096	-42.43867511623644	-14.01819502962752	10.08012316821303	3511.405128205128	3648.351648351648	0.425273390036452	-0.02798053527980535	0.5535006605019816
6936.553955078125	-14.88461538461539	4.516020508714664	23.6989745642668	-42.55781231545424	-22.02190828205699	8.776787611762542	3505.579487179487	3645.421245421245	0.4277035236938031	-0.0170316301703163	0.5548216644649934
6956.085205078125	-15.92307692307692	4.743687257498307	22.96948327893083	-43.86967699204265	-24.75892245357842	10.80335244334382	3518.687179487179	3646.886446886447	0.4264884568651275	-0.02676399026763991	0.5495376486129459
6975.616455078125	-18.30769230769231	3.282810864075876	23.39791833466773	-47.83228626710963	-21.32769063466342	12.10178065020201	3523.05641025641	3652.747252747252	0.4434993924665856	0.00364963503649635	0.5416116248348745
6995.147705078125	-17.34615384615385	2.473894500215557	24.42065960460676	-44.57823238006758	-14.81923835732049	13.76697769532951	3507.035897435897	3655.677655677655	0.4325637910085055	0.006082725060827251	0.5468956406869221
7014.678955078125	-15.03846153846154	2.929335776313359	24.34090349202439	-45.09936886888179	-19.51560151935412	12.90889889798507	3517.230769230769	3648.351648351648	0.4459295261239368	0.0145985401459854	0.5561426684280053
7034.210205078125	-17.88461538461539	2.333674632013303	24.27780686087332	-47.78783409525446	-21.76595124922699	13.72960658356231	3518.687179487179	3657.142857142857	0.456865127582017	0.006082725060827251	0.5468956406869221
7053.741455078125	-17.76923076923077	0.9957042557122621	23.75324875284843	-47.66386320193376	-13.29280651998895	15.03758811783986	3521.6	3661.538461538461	0.4641555285540704	0.0218978102189781	0.5402906208718626
7073.272705078125	-17.34615384615385	0.5223332512163577	23.92179897764365	-47.642348809703	-10.0145788978902	14.66199198483241	3527.425641025641	3652.747252747252	0.4544349939246658	0.03527980535279805	0.5350066050198151
7092.803955078125	-17.11538461538462	0.1012733263533904	23.59017983617664	-46.83835023051019	-16.62927907868187	13.77147846662032	3499.753846153846	3651.282051282051	0.4532199270959902	0.03527980535279805	0.5336856010568032
7112.335205078125	-18.30769230769231	-0.5340888095091458	23.85828662930344	-48.66576147338437	-15.19800736180283	12.17141223499337	3517.230769230769	3648.351648351648	0.4617253948967193	0.04987834549878346	0.5389696169088507
7131.866455078125	-19.15384615384615	-1.431129518999815	23.40262979614461	-49.53572661666311	-11.42327418854634	11.8096959528526	3518.687179487179	3649.81684981685	0.4592952612393682	0.05474452554744526	0.5350066050198151
7151.397705078125	-17.65384615384615	-2.372351727535875	22.80989406910144	-49.0510800648529	-9.081861126116813	12.23642688326491	3493.928205128205	3648.351648351648	0.4617253948967193	0.06812652068126521	0.5297225891677675
7170.928955078125	-17.38461538461539	-2.507021001416518	23.50489622467205	-50.44483577522959	-9.072420876838072	10.61780578163697	3520.14358974359	3646.886446886447	0.4617253948967193	0.07299270072992702	0.5376486129458389
7190.460205078125	-17.34615384615385	-2.035097308616124	22.94717312311388	-51.34598269894489	-9.514778279297481	10.62239367684953	3508.492307692307	3648.351648351648	0.4617253948967193	0.07177615571776155	0.5336856010568032
7209.991455078125	-17.15384615384615	-3.423862166656402	22.96233910205087	-52.18334267439342	-8.517670389086167	12.27339141673062	3508.492307692307	3649.81684981685	0.465370595382746	0.09002433090024331	0.523117569352708
7229.522705078125	-16.96153846153846	-2.325252509700068	23.60877933115723	-52.21016522319164	-9.933757535073134	11.85133550545261	3518.687179487179	3648.351648351648	0.4690157958687727	0.1021897810218978	0.5204755614266843
7249.053955078125	-17.80769230769231	-3.666494734248937	24.20935209706227	-51.72940344055523	-12.72491985529289	13.85943259095466	3514.317948717948	3655.677655677655	0.465370595382746	0.1070559610705596	0.52443857331572
7268.585205078125	-16.88461538461539	-4.629388125885323	23.35402167888157	-50.82560243855621	-13.21363269088937	14.25367071788483	3527.425641025641	3655.677655677655	0.473876063183475	0.1119221411192214	0.5165125495376486
7288.116455078125	-17.65384615384615	-5.227712939582434	23.27026236373714	-49.00349935224946	-12.78276393165663	15.05608490522634	3517.230769230769	3658.608058608058	0.473876063183475	0.1240875912408759	0.5178335535006605
7307.647705078125	-17.65384615384615	-5.248498799039231	24.30955533657695	-49.00302488978492	-15.11433588457698	15.84909097168473	3511.405128205128	3655.677655677655	0.473876063183475	0.1289537712895377	0.5217965653896962
7327.178955078125	-18	-6.427203301102421	23.97554967050563	-47.6462335788768	-15.14715428053948	16.24335813992215	3527.425641025641	3658.608058608058	0.4714459295261239	0.1399026763990268	0.5112285336856011
7346.710205078125	-17.57692307692308	-7.240076676725997	23.81152614399212	-43.14751227022235	-14.80530045991548	16.60995273034796	3515.774358974359	3660.07326007326	0.4775212636695018	0.1520681265206813	0.4900924702774108
7366.241455078125	-17.30769230769231	-6.895131489807231	23.60272833651537	-42.36284846744113	-23.29772654794143	15.70085530082765	3527.425641025641	3661.538461538461	0.4835965978128797	0.1642335766423358	0.5033025099075297
7385.772705078125	-19.53846153846154	-6.892498614276036	23.77877686764796	-44.61017038892967	-27.43154650666191	16.9064801163737	3521.6	3663.003663003663	0.4787363304981774	0.1654501216545012	0.4953764861294584
7405.303955078125	-20.30769230769231	-8.541664100511177	22.39089733325122	-44.02790103013242	-20.36464781390167	19.01214273624394	3518.687179487179	3664.468864468864	0.4835965978128797	0.1751824817518248	0.4821664464993395
7424.835205078125	-19.73076923076923	-9.308315883476013	23.60810186610827	-44.8715180870775	-12.84225554173786	18.27947629892278	3534.707692307692	3665.934065934066	0.488456865127582	0.1800486618004866	0.4874504623513871
7444.366455078125	-19.5	-8.252040093613351	20.56354314220607	-44.46297995002358	-11.9481004875403	16.65167940686973	3525.969230769231	3660.07326007326	0.4896719319562576	0.1909975669099757	0.4808454425363276
7463.897705078125	-20.15384615384615	-10.81268091396194	20.40327646732771	-46.2640431065641	-6.769169671753942	14.68066302006239	3504.123076923077	3651.282051282051	0.4908869987849331	0.1995133819951338	0.4782034346103039
7483.428955078125	-19.61538461538462	-10.3968559462955	20.22741269939028	-49.37090655470005	2.205824070024737	12.76066526543092	3524.51282051282	3652.747252747252	0.4811664641555285	0.2141119221411192	0.4663143989431968
7502.960205078125	-18.69230769230769	-11.05642975919197	19.59071872882922	-53.85778085932952	4.203334917882343	12.00918258634355	3524.51282051282	3652.747252747252	0.4848116646415552	0.2116788321167883	0.47556142668428
7522.491455078125	-18.15384615384615	-11.88313727905401	20.00301779885447	-55.23390694664924	2.358427406610553	11.5963315067979	3507.035897435897	3645.421245421245	0.4763061968408262	0.2238442822384428	0.4663143989431968
7542.022705078125	-16.76923076923077	-14.83137279054013	19.87633183469853	-49.48085082817661	-2.527454275867235	10.67361559817615	3517.230769230769	3648.351648351648	0.4714459295261239	0.2274939172749392	0.4636723910171731
7561.553955078125	-14.88461538461539	-11.7454502063189	17.54174108517584	-46.12761522666607	-25.16846146007533	10.41367317031897	3492.471794871794	3643.956043956044	0.4799513973268529	0.2360097323600973	0.4649933949801849
7581.085205078125	-19.30769230769231	-11.24516536305968	20.02749892221469	-54.19130575242945	-28.18743698190909	11.68861011627663	3525.969230769231	3652.747252747252	0.4823815309842041	0.2554744525547446	0.4570673712021136
7600.616455078125	-20.23076923076923	-12.15453901582805	20.26541232986389	-55.62557168907173	-8.785292981763064	17.20309666462411	3523.05641025641	3661.538461538461	0.4860267314702308	0.2506082725060828	0.4464993394980185
7620.147705078125	-17.19230769230769	-14.09009515304551	21.69706534458336	-57.20143814209169	3.998054049695455	20.20383165661174	3512.861538461538	3668.864468864469	0.4799513973268529	0.2700729927007299	0.4451783355350066
7639.678955078125	-16.57692307692308	-15.58116493194556	20.6351696742009	-57.26427616542936	-2.104555148815976	20.14343394486001	3539.076923076923	3670.32967032967	0.4896719319562576	0.2773722627737226	0.4412153236459709
7659.210205078125	-17.46153846153846	-16.82387448420275	20.19372421013734	-56.91061381686193	-10.10622000729753	19.6517174074834	3528.882051282051	3664.468864468864	0.4811664641555285	0.2858880778588808	0.4451783355350066
7678.741455078125	-17.30769230769231	-16.96780501324136	19.54409681591427	-55.71257818292389	-17.23505956431735	17.11946906373709	3547.815384615385	3667.399267399267	0.4811664641555285	0.2919708029197081	0.4332892998678996
7698.272705078125	-19.03846153846154	-17.67025158588409	19.85873314035844	-57.07420318793491	-17.67167264516343	16.72055591767261	3515.774358974359	3664.468864468864	0.4775212636695018	0.2980535279805353	0.4227212681638045
7717.803955078125	-20.07692307692308	-16.56495966003572	21.4018291556322	-55.65457385368912	-11.60188184261449	17.17522079766177	3514.317948717948	3657.142857142857	0.4835965978128797	0.316301703163017	0.428005284015852
7737.335205078125	-19.03846153846154	-19.12911098109257	21.64785674693601	-52.8829869026381	-6.034340912836626	18.01950686806128	3528.882051282051	3661.538461538461	0.4848116646415552	0.316301703163017	0.404227212681638
7756.866455078125	-17.19230769230769	-18.04941645624191	19.66313050440353	-49.3820863997569	-15.52347403084347	18.29776979715852	3512.861538461538	3663.003663003663	0.4811664641555285	0.3236009732360097	0.4081902245706737
7776.397705078125	-19.34615384615385	-19.07990238344522	19.49511917226089	-50.28275886100767	-18.29740338622323	19.09536375882948	3517.230769230769	3665.934065934066	0.4775212636695018	0.3369829683698297	0.3976221928665786
7795.928955078125	-19.73076923076923	-21.22169273880643	17.35386770955226	-50.5748138771275	-10.25677494993542	21.62767018519028	3501.210256410256	3670.32967032967	0.4799513973268529	0.3491484184914842	0.3963011889035667
7815.460205078125	-19.80769230769231	-20.52499692061342	17.21138449220915	-54.09334400306565	1.08670592862195	20.14363723401075	3541.989743589743	3670.32967032967	0.4811664641555285	0.3515815085158151	0.3896961690885073
7834.991455078125	-18.53846153846154	-21.83348217035167	17.90487774835253	-54.56178431921254	3.885660964402956	18.54365812630554	3552.184615384615	3670.32967032967	0.4799513973268529	0.354014598540146	0.3963011889035667
7854.522705078125	-18.15384615384615	-19.92110611566176	16.13222886001109	-53.3320924423734	-1.357659969821334	16.4381116716643	3523.05641025641	3657.142857142857	0.4726609963547995	0.3746958637469586	0.3738441215323646
7874.053955078125	-18.19230769230769	-20.82876301040832	15.39968898195479	-53.84574115880099	-6.51566189310229	15.98350487428964	3512.861538461538	3651.282051282051	0.473876063183475	0.3710462287104623	0.3685601056803171
7893.585205078125	-19.5	-21.84984141159081	15.8382244256944	-56.4520335854244	-0.7856765172294355	16.88319418292684	3530.338461538461	3661.538461538461	0.4714459295261239	0.3746958637469586	0.3738441215323646
7913.116455078125	-19.42307692307692	-21.08767783457535	14.19158403645994	-59.92829115532656	8.719042031899905	17.42116720942329	3528.882051282051	3660.07326007326	0.4811664641555285	0.3868613138686132	0.3619550858652576
7932.647705078125	-19.42307692307692	-22.15237574675125	13.58032579910082	-62.54159689187204	12.57909421609972	18.7103905845491	3515.774358974359	3665.934065934066	0.4714459295261239	0.3844282238442823	0.3593130779392338
7952.178955078125	-18.80769230769231	-23.61881043296176	13.20975241731847	-67.86242086524081	23.03786028973828	17.23553342379469	3527.425641025641	3663.003663003663	0.456865127582017	0.3990267639902677	0.3487450462351387
7971.710205078125	-17.11538461538462	-24.50071595738129	15.22810556137218	-69.18632524235774	31.01984292920149	15.28777596742988	3518.687179487179	3651.282051282051	0.4617253948967193	0.402676399026764	0.3461030383091149
7991.241455078125	-14.26923076923077	-23.67333097247029	15.24347170043727	-62.11126259662637	27.47826641894192	13.14079324933936	3540.533333333333	3655.677655677655	0.4532199270959902	0.4184914841849148	0.3315719947159841
8010.772705078125	-12.76923076923077	-24.54218759623083	14.87861058077231	-57.87015046281913	9.934967827472688	10.88213281555598	3521.6	3646.886446886447	0.456865127582017	0.413625304136253	0.3249669749009247
8030.303955078125	-14.96153846153846	-25.45258514503911	14.5138726365708	-54.83095873212374	-5.612066589625992	12.73708688060865	3498.297435897436	3649.81684981685	0.4459295261239368	0.4306569343065694	0.3394980184940555
8049.835205078125	-16.07692307692308	-26.40433885569994	13.21694278499723	-55.61903284161421	-4.583787837169675	16.0205565316771	3528.882051282051	3660.07326007326	0.4495747266099635	0.4330900243309003	0.3130779392338177
8069.366455078125	-16.03846153846154	-27.26655940136725	13.98181622220854	-54.62319895515657	-9.21166409286954	20.86227861392899	3514.317948717948	3667.399267399267	0.4471445929526123	0.4367396593673966	0.3064729194187583
8088.897705078125	-16.03846153846154	-27.246543388557	12.98101558169613	-52.74602738385976	-12.94333690042393	24.8878228232017	3525.969230769231	3679.120879120879	0.4495747266099635	0.4355231143552312	0.2972258916776751
8108.428955078125	-16.46153846153846	-26.42674139311449	12.79860811726304	-54.55268046292871	-16.62905513507167	25.68535870225816	3553.641025641025	3683.516483516483	0.4447144592952612	0.4464720194647202	0.2959048877146632
8127.960205078125	-17.38461538461539	-28.00126254850034	13.60158896347848	-51.84345707275081	-19.49569535672558	27.26225312736433	3552.184615384615	3689.377289377289	0.4434993924665856	0.462287104622871	0.2879788639365918
8147.491455078125	-16.61538461538462	-28.1304428157911	13.52214078955472	-50.03945807196558	-14.87890688402195	26.06589122616515	3563.835897435898	3683.516483516483	0.4471445929526123	0.4659367396593674	0.2787318361955086
8167.022705078125	-15.92307692307692	-28.4428619818932	13.06617601773727	-44.20110061299543	-15.04709565173027	26.41398902920448	3543.446153846154	3686.446886446886	0.4301336573511543	0.4708029197080292	0.2668428005284016
8186.553955078125	-15.92307692307692	-29.12571595738129	12.59349017675679	-42.94894541899642	-21.67533286969653	25.51885857447259	3531.794871794872	3682.051282051282	0.4362089914945322	0.4781021897810219	0.2575957727873184
8206.085205078125	-17.26923076923077	-29.41775728274928	13.15709490669459	-43.48505745258387	-25.44841850923552	23.85383577718858	3543.446153846154	3680.58608058608	0.4240583232077764	0.4805352798053528	0.2483487450462351
8225.616455078125	-17.57692307692308	-30.88822596538769	11.98822134630782	-42.52325212135008	-20.30395362312914	24.30382563804343	3527.425641025641	3674.725274725275	0.433778857837181	0.4829683698296837	0.2364597093791281
8245.147705078125	-15.84615384615385	-30.42674139311449	12.18322350187843	-38.93629404954584	-16.68017625274099	23.0797040351109	3533.251282051282	3679.120879120879	0.4313487241798298	0.4878345498783455	0.2351387054161163
8264.678955078125	-14.26923076923077	-30.63428435055737	11.3680636817146	-36.39378857118918	-23.84962692128456	20.53360488180516	3533.251282051282	3670.32967032967	0.4325637910085055	0.4902676399026764	0.2245706737120211
8284.210205078125	-14.5	-30.39875746751247	9.437873375623575	-33.43478272092744	-32.91813324979825	17.55618690287455	3531.794871794872	3660.07326007326	0.4313487241798298	0.4963503649635037	0.2272126816380449
8303.741455078125	-16.5	-30.13740992794236	7.985881012502309	-31.79655270703437	-37.26729912982499	13.82284355618026	3530.338461538461	3655.677655677655	0.4277035236938031	0.4975669099756691	0.2192866578599736
8323.272705078125	-16.03846153846154	-31.14581665332266	7.94467881997906	-30.92801095114927	-34.0473164443204	11.80554163894584	3518.687179487179	3651.282051282051	0.4325637910085055	0.5012165450121655	0.2047556142668428
8342.803955078125	-16.5	-29.73324043850465	7.00817577138634	-32.3222411239905	-31.70630424212131	9.393914470859507	3493.928205128205	3639.560439560439	0.4289185905224787	0.5048661800486618	0.2047556142668428
8362.335205078125	-16.92307692307692	-30.049732093367	7.871220052965449	-36.27177270414244	-19.87206213401954	8.327262411823677	3515.774358974359	3642.490842490842	0.4155528554070473	0.51338199513382	0.202113606340819
8381.866455078125	-15.80769230769231	-30.5529885446819	6.918658003325738	-37.04506396536323	-6.708699424591617	8.058465686224041	3509.948717948718	3638.095238095238	0.4131227217496962	0.5012165450121655	0.1889035667107001
8401.397705078125	-13.88461538461539	-29.81509053396563	6.56221900597401	-36.09027194405151	-3.434167730158278	8.897989613567502	3496.841025641026	3641.025641025641	0.4204131227217496	0.5012165450121655	0.190224570673712
8420.928955078125	-13.84615384615385	-32.31015581696126	6.277021617293835	-36.13595480679676	-9.059552736299885	9.250355857439661	3512.861538461538	3642.490842490842	0.4216281895504253	0.51338199513382	0.1862615587846764
8440.460205078125	-14.53846153846154	-31.90997413315268	6.191014349941492	-35.20921602517333	-13.26475380855869	11.64801605073757	3514.317948717948	3649.81684981685	0.4240583232077764	0.5145985401459854	0.1796565389696169
8459.991455078125	-14.53846153846154	-31.98310956457474	6.001632074890682	-35.19376601793554	-16.51960328397368	13.24796611713554	3546.358974358974	3655.677655677655	0.4191980558930741	0.5182481751824818	0.1690885072655218
8479.522705078125	-14.80769230769231	-31.54896994518692	5.717728028576707	-34.25252615400341	-19.31650992580677	15.65956424391462	3512.861538461538	3658.608058608058	0.4143377885783718	0.5267639902676399	0.1677675033025099
8499.053955078125	-15.42307692307692	-31.75849140851143	5.270724271725072	-33.39753655549791	-22.16796557656862	15.21433652611582	3501.210256410256	3657.142857142857	0.4094775212636695	0.5304136253041363	0.1479524438573316
8518.585205078125	-14.65384615384616	-31.91076707519862	4.422969144546407	-34.31147940816727	-20.28654374166892	14.01780037707315	3527.425641025641	3654.212454212454	0.4106925880923451	0.5231143552311436	0.1466314398943197
8538.116455078125	-15.38461538461539	-32.79469729629857	5.119480199544251	-35.61510008394353	-15.08997910081214	13.67463896493335	3517.230769230769	3655.677655677655	0.4094775212636695	0.5328467153284672	0.130779392338177
8557.647705078125	-13.84615384615385	-32.62194370881321	4.558723902198683	-34.17879005156987	-6.211392152973022	13.74906173408801	3509.948717948718	3652.747252747252	0.3973268529769137	0.524330900243309	0.1321003963011889
8577.178955078125	-13.80769230769231	-32.65965849602759	4.482924801379565	-31.93630182418423	-2.547003671061114	12.5387909407149	3514.317948717948	3651.282051282051	0.4034021871202916	0.5206812652068127	0.1347424042272127
8596.710205078125	-13.26923076923077	-33.17919720391697	4.921398657387449	-29.31550831525213	-6.868694616508254	11.65303956555887	3523.05641025641	3649.81684981685	0.4009720534629404	0.5316301703163017	0.1109643328929987
8616.241455078125	-13.88461538461539	-32.80979398903738	4.374314836484572	-27.16220619753782	-13.0545744320151	10.75332121561441	3520.14358974359	3649.81684981685	0.3924665856622114	0.5328467153284672	0.1109643328929987
8635.772705078125	-13.73076923076923	-33.06304274188582	5.34444478659851	-24.9407578999184	-14.9999855251223	10.71165262170714	3511.405128205128	3646.886446886447	0.3973268529769137	0.5206812652068127	0.1043593130779392
8655.303955078125	-13.80769230769231	-33.2339640943524	4.352050871466404	-23.13580997420407	-15.04634095825937	11.10130285342475	3499.753846153846	3646.886446886447	0.4034021871202916	0.5206812652068127	0.09511228533685601
8674.835205078125	-13.73076923076923	-33.22932961754019	4.043403953932376	-22.24480490115911	-13.21127455649675	10.29441693609968	3504.123076923077	3645.421245421245	0.3997569866342648	0.5291970802919708	0.09247027741083223
8694.366455078125	-13.80769230769231	-34.07848586561558	4.270447126932315	-20.48696322558368	-11.88829913701437	8.657415212314263	3514.317948717948	3643.956043956044	0.4034021871202916	0.5352798053527981	0.09379128137384413
8713.897705078125	-13.26923076923077	-33.88822596538769	3.834375192461662	-17.38199762730592	-11.53700506711163	7.405388701112146	3493.928205128205	3638.095238095238	0.4082624544349939	0.5474452554744526	0.09379128137384413
8733.428955078125	-13.76923076923077	-34.7936657017922	3.452515858840919	-14.77883374143078	-14.00434825200824	5.313867303873816	3477.907692307692	3630.769230769231	0.3948967193195626	0.5450121654501217	0.0845442536327609
8752.960205078125	-13.38461538461539	-34.28548993040586	2.659111904908542	-12.62430093282639	-14.12658244680991	2.433956776696899	3504.123076923077	3629.304029304029	0.393681652490887	0.5340632603406327	0.08586525759577279
8772.491455078125	-12.96153846153846	-33.35543049824474	1.886909527622098	-10.89764103768751	-17.02069760304342	1.163259230264808	3486.646153846154	3619.047619047619	0.4009720534629404	0.5340632603406327	0.08190224570673713
8792.022705078125	-14.19230769230769	-32.40106700745212	1.553350372605777	-9.974505259276898	-15.63168453140562	1.576081268503202	3495.384615384615	3627.838827838828	0.402187120291616	0.5340632603406327	0.08190224570673713
8811.553955078125	-14.61538461538462	-33.01240992794236	1.774342550963848	-8.498102286686414	-9.992361627858999	4.066690059649498	3479.364102564102	3629.304029304029	0.4046172539489671	0.5437956204379563	0.07529722589167767
8831.085205078125	-13.88461538461539	-33.0168827369588	1.267213771016813	-9.276983470435637	-5.693647968865183	6.566445599913663	3518.687179487179	3638.095238095238	0.3961117861482381	0.5328467153284672	0.07397622192866579
8850.616455078125	-12.69230769230769	-32.03585945679621	1.023742070579541	-9.214901675523498	-7.986256343979282	9.400041555356257	3511.405128205128	3642.490842490842	0.393681652490887	0.5401459854014599	0.06208718626155878
8870.147705078125	-12.76923076923077	-32.41156001724456	0.6549239391513211	-8.297355819641311	-15.46189232277558	12.58141585945845	3501.210256410256	3649.81684981685	0.393681652490887	0.5340632603406327	0.06605019815059446
8889.678955078125	-13.19230769230769	-31.64256790047423	1.089933485249738	-8.749397203621316	-20.58093066825028	14.167398951068	3518.687179487179	3651.282051282051	0.4046172539489671	0.537712895377129	0.06869220607661823
8909.210205078125	-13.76923076923077	-31.67193755004003	1.212262117386217	-7.367488497269606	-22.92973558601063	16.17090814135748	3520.14358974359	3661.538461538461	0.3924665856622114	0.5364963503649636	0.06340819022457067
8928.741455078125	-14.38461538461539	-32.1308893268461	1.698312496150767	-6.010697186361481	-22.96255398197313	16.5651753095949	3540.533333333333	3663.003663003663	0.3876063183475091	0.5328467153284672	0.05812417437252312
8948.272705078125	-14.34615384615385	-32.21556475949991	0.1243918211492272	-4.675894730148668	-23.94202804711402	16.54203254438136	3523.05641025641	3661.538461538461	0.3888213851761846	0.5425790754257908	0.05548216644649934
8967.803955078125	-14.61538461538462	-33.13327585145039	0.1253310340580158	-2.927245980314483	-25.88948753416913	15.68874493140023	3511.405128205128	3655.677655677655	0.3815309842041312	0.551094890510949	0.05284015852047556
8987.335205078125	-14.61538461538462	-33.2841657941738	-0.02247952207920179	-1.183905387047743	-25.97480654511247	14.03780527413364	3537.620512820513	3652.747252747252	0.3900364520048603	0.5401459854014599	0.04491413474240423
9006.866455078125	-14	-33.21552626716758	-0.2236866416209891	0.5625637469672672	-29.32276774703205	13.57869770546817	3509.948717948718	3655.677655677655	0.3754556500607533	0.5413625304136254	0.04359313077939234
9026.397705078125	-14.96153846153846	-33.40279146394039	0.4857270431729999	2.251784780173038	-29.90868909702896	10.29064015918716	3505.579487179487	3648.351648351648	0.3766707168894289	0.5352798053527981	0.0488771466314399
9045.928955078125	-15.5	-33.30820810494549	0.1411744780439737	2.633500368428755	-30.43062118881837	8.240787355856098	3505.579487179487	3643.956043956044	0.3681652490886999	0.5498783454987835	0.04227212681638045
9065.460205078125	-15.07692307692308	-33.00326414978137	-0.1444848186241301	3.891245484956191	-28.19420935635052	4.577104635260401	3491.015384615384	3633.699633699634	0.3693803159173754	0.5523114355231144	0.047556142668428
9084.991455078125	-15.03846153846154	-33.47363275235573	0.2585606947096137	4.260165144257841	-26.39236221078082	1.326127787674103	3496.841025641026	3626.373626373626	0.3669501822600243	0.5498783454987835	0.0369881109643329
9104.522705078125	-15.5	-33.45986789431545	0.0318562542341565	4.651073658254805	-23.64385939603274	-1.507439126461243	3492.471794871794	3621.978021978022	0.3596597812879708	0.5535279805352799	0.02774108322324967
9124.053955078125	-16.15384615384615	-33.57239637864137	0.5428958551456552	5.110602814621427	-18.98645981180536	-2.689950218101002	3472.082051282051	3614.652014652014	0.3888213851761846	0.5389294403892945	0.03434610303830912
9143.585205078125	-15.34615384615385	-33.4967897394839	-0.1989745642667982	4.663676890705304	-12.9092771539256	-4.665525458813655	3488.102564102564	3611.721611721612	0.3730255164034022	0.5413625304136254	0.03830911492734478
9163.116455078125	-14.80769230769231	-33.41353852312619	0.8692338486173553	5.120551968788204	-7.320807331642329	-6.246862572596141	3477.907692307692	3605.860805860806	0.370595382746051	0.5486618004866181	0.03170409511228534
9182.647705078125	-14.42307692307692	-33.79222608856315	0.1882275050809881	5.117897890504481	-6.389737093586438	-6.645688594738868	3467.71282051282	3607.326007326007	0.3791008505467801	0.551094890510949	0.0369881109643329
9202.178955078125	-14.11538461538462	-32.99306368171461	0.3070302395762763	5.080459028571379	-4.081543287349836	-8.663048594587782	3476.451282051281	3595.604395604395	0.370595382746051	0.5498783454987835	0.02906208718626156
9221.710205078125	-13.15384615384616	-34.24079263410728	0.1934778592104456	5.939807858715231	-4.131995508382754	-9.896636401017917	3467.71282051282	3598.534798534799	0.3754556500607533	0.5437956204379563	0.02642007926023778
9241.241455078125	-14.34615384615385	-33.57973301718298	1.025112397610396	5.931845623864064	-1.338784794215078	-11.0931144674461	3476.451282051281	3595.604395604395	0.3791008505467801	0.5437956204379563	0.03302509907529723
9260.772705078125	-14.15384615384616	-33.03464309909467	0.5013857239637866	5.478380852490415	0.5368927190712876	-11.88614957521174	3469.169230769231	3588.278388278388	0.3742405832320777	0.5559610705596108	0.035667107001321
9280.303955078125	-14.34615384615385	-33.13399180883168	-0.1081018661082711	6.82768439101192	0.9657130843561124	-11.89535440694411	3445.866666666666	3586.813186813186	0.3900364520048603	0.5425790754257908	0.02906208718626156
9299.835205078125	-13.61538461538462	-33.45410174293281	-0.2179897764365339	5.908907844239654	2.377703442447238	-13.09653653381384	3560.923076923077	3695.238095238095	0.3863912515188335	0.5401459854014599	0.03830911492734478
9319.366455078125	-14.03846153846154	-32.49495750446511	0.3247983001786046	5.89175268364724	1.900479250077415	-13.50930048943774	3547.815384615385	3690.84249084249	0.3827460510328068	0.5547445255474452	0.03963011889035667
9338.897705078125	-13.69230769230769	-33.38714048161607	0.357024080803104	7.236222528065847	1.859868138553668	-13.52315129899716	3541.989743589743	3690.84249084249	0.3888213851761846	0.537712895377129	0.03302509907529723
9358.428955078125	-13.80769230769231	-33.02764519307755	-0.1946634230461291	6.785411834975921	2.804475413784142	-13.91736038462008	3553.641025641025	3695.238095238095	0.3900364520048603	0.5450121654501217	0.03830911492734478
9377.960205078125	-13.88461538461539	-32.67584067253803	-0.4002740654061712	7.243235837987918	3.729801330226703	-13.91268536548577	3553.641025641025	3692.307692307692	0.3912515188335358	0.5450121654501217	0.02642007926023778
9397.491455078125	-13.11538461538462	-33.46554936256698	-0.1456087947280902	7.277546159172748	4.684249714966348	-13.08715745423798	3571.117948717948	3698.168498168498	0.3827460510328068	0.537712895377129	0.03963011889035667
9417.022705078125	-12.88461538461539	-33.04362720945988	-0.3186395270062201	7.30749724871923	2.837694669977068	-11.47326945435885	3470.625641025641	3595.604395604395	0.3924665856622114	0.5425790754257908	0.04227212681638045
9436.553955078125	-13.23076923076923	-32.75423415655602	-0.9805998645069902	6.426159563880066	1.941491221831591	-10.65709158137967	3456.061538461538	3592.673992673992	0.3863912515188335	0.5316301703163017	0.047556142668428
9456.085205078125	-13.5	-31.97135400628195	-1.39383814744103	6.450802496859101	1.957076652954094	-9.840855625785988	3482.276923076923	3600	0.3973268529769137	0.5364963503649636	0.04491413474240423
9475.616455078125	-13.23076923076923	-32.79580587546961	-0.8250908419042928	5.148130746011944	2.490497387970166	-8.598004905008988	3474.994871794872	3594.139194139194	0.3924665856622114	0.5352798053527981	0.04227212681638045
9495.147705078125	-12.84615384615385	-32.45314713309109	-1.034951037753279	5.652586536698288	4.378064404713623	-7.35968399683005	3466.25641025641	3601.465201465201	0.3973268529769137	0.5352798053527981	0.05284015852047556
9514.678955078125	-12.65384615384616	-32.60553827677526	-1.300009238159759	4.771248851859125	3.481860956568148	-6.543506123850868	3482.276923076923	3608.791208791209	0.393681652490887	0.5291970802919708	0.05548216644649934
9534.210205078125	-13.42307692307692	-32.01983894808154	-0.9695910574613535	3.877589700530443	2.577864792861421	-6.135446228668526	3485.189743589744	3607.326007326007	0.3948967193195626	0.5364963503649636	0.047556142668428
9553.741455078125	-12.61538461538462	-33.10516105191845	-1.357332019461723	3.473885257579413	2.153141215472436	-4.503003358788416	3488.102564102564	3611.721611721612	0.3888213851761846	0.5291970802919708	0.0488771466314399
9573.272705078125	-13.19230769230769	-33.4878903122498	-0.8747151567407774	3.067526736344661	2.659487876139344	-3.269386511051033	3488.102564102564	3616.117216117216	0.3900364520048603	0.5437956204379563	0.05680317040951123
9592.803955078125	-13.88461538461539	-32.68276929235696	-0.05384307445956771	3.085156359401625	0.8051401155888112	-2.06361648896874	3469.169230769231	3614.652014652014	0.3985419198055893	0.537712895377129	0.03434610303830912
9612.335205078125	-13.46153846153846	-32.83588409188889	-0.5134877132475211	1.723531354390602	0.368527034742735	-2.462529635033213	3495.384615384615	3620.51282051282	0.4034021871202916	0.5413625304136254	0.04623513870541612
9631.866455078125	-14.30769230769231	-32.6204963971177	-0.8213339902691383	2.19633090217584	0.3705754286906554	-1.650910615959341	3488.102564102564	3616.117216117216	0.4034021871202916	0.5352798053527981	0.04491413474240423
9651.397705078125	-13.73076923076923	-32.86827154030917	-0.5479614460799409	3.104965598277762	0.3512940699027422	-1.252026511202117	3472.082051282051	3621.978021978022	0.3924665856622114	0.5291970802919708	0.0369881109643329
9670.928955078125	-13.5	-33.60881782348956	-0.2898780562911867	2.19633090217584	0.3705754286906554	-1.650910615959341	3495.384615384615	3620.51282051282	0.3997569866342648	0.5304136253041363	0.0369881109643329
9690.460205078125	-13.11538461538462	-32.50862998090781	0.08534519923631234	2.196805364640388	-1.9609965242297	-0.8579045495009456	3492.471794871794	3623.443223443223	0.4034021871202916	0.5352798053527981	0.035667107001321
9709.991455078125	-14.53846153846154	-33.12479214140543	-0.3757775451130134	2.187137976434593	-2.899859477846843	-0.8671965051550592	3495.384615384615	3620.51282051282	0.3973268529769137	0.5206812652068127	0.0607661822985469
9729.522705078125	-13.92307692307692	-32.56883968713432	0.05736897210075753	2.211780909413629	-2.884274046724341	-0.05096054956137969	3498.297435897436	3624.908424908425	0.3924665856622114	0.5352798053527981	0.05548216644649934
9749.053955078125	-14.30769230769231	-32.63435363675556	-0.1284720083759314	2.243911614779284	-3.330327376849159	1.168747406002083	3482.276923076923	3620.51282051282	0.4034021871202916	0.5304136253041363	0.04491413474240423
9768.585205078125	-14.11538461538462	-31.7197373283242	0.1022510315945064	1.793100921689359	-2.385720101618684	0.7745383203791644	3499.753846153846	3626.373626373626	0.393681652490887	0.5364963503649636	0.05151915455746367
9788.116455078125	-14.57692307692308	-32.17942815791095	0.4714078955472071	1.810730544746322	-4.240067862169217	1.980308342461457	3472.082051282051	3624.908424908425	0.3997569866342648	0.5304136253041363	0.04623513870541612
9807.647705078125	-14.19230769230769	-32.78599033072612	-0.354329617540186	1.810730544746322	-4.240067862169217	1.980308342461457	3480.820512820513	3624.908424908425	0.4009720534629404	0.5218978102189781	0.047556142668428
9827.178955078125	-14.07692307692308	-32.45570302395763	0.3236127363429207	1.781253917664389	-4.72508477010029	1.15942640904072	3488.102564102564	3620.51282051282	0.3888213851761846	0.5267639902676399	0.04491413474240423
9846.710205078125	-14.65384615384616	-32.68908203485866	-0.8920521032210385	1.768932451174871	-4.732877485661541	0.7513084312438807	3499.753846153846	3626.373626373626	0.3948967193195626	0.5352798053527981	0.04227212681638045
9866.241455078125	-14.42307692307692	-32.55893176079324	0.06197265504711469	1.736801745809216	-4.286824155536724	-0.4683995243195818	3504.123076923077	3621.978021978022	0.3851761846901579	0.5462287104622872	0.04491413474240423
9885.772705078125	-14.65384615384616	-32.12709398287861	-0.1453008560694709	2.172636894125901	-4.308153908272558	-0.8811344386362294	3495.384615384615	3620.51282051282	0.393681652490887	0.5437956204379563	0.0488771466314399
9905.303955078125	-14.76923076923077	-32.7476134753957	0.2268276159389051	3.064116429635408	-4.804659459430294	-0.8950142895029019	3480.820512820513	3620.51282051282	0.3876063183475091	0.5291970802919708	0.05019815059445178
9924.835205078125	-14.76923076923077	-32.40657141097494	0.4824167025928433	2.603638348339688	-4.798915137816963	-1.298515330779934	3496.841025641026	3620.51282051282	0.3912515188335358	0.5328467153284672	0.04095112285336856
9944.366455078125	-14.65384615384616	-32.43118340826508	-0.3254449713617045	3.051794963145891	-4.812452174991545	-1.303132267299741	3483.733333333333	3620.51282051282	0.3815309842041312	0.5267639902676399	0.04491413474240423
9963.897705078125	-15.19230769230769	-33.35818654923939	0.4093274619695757	3.064116429635408	-4.804659459430294	-0.8950142895029019	3476.451282051281	3620.51282051282	0.393681652490887	0.5352798053527981	0.04095112285336856
9983.428955078125	-14.84615384615385	-31.82304304982448	0.2290755681468253	2.140506188760245	-3.86210057814774	-2.100842394199692	3486.646153846154	3613.186813186813	0.3948967193195626	0.5352798053527981	0.04623513870541612
10002.96020507813	-15.03846153846154	-32.42972069963663	-0.01396501816838081	2.147519498682317	-1.992167386474705	-2.490376460688304	3495.384615384615	3620.51282051282	0.4009720534629404	0.5413625304136254	0.05151915455746367
10022.49145507813	-14.23076923076923	-32.35873314035844	-0.5248814436164315	1.689221033205771	-0.5859213499969106	-3.288057546281006	3495.384615384615	3617.582417582417	0.402187120291616	0.5291970802919708	0.03963011889035667
10042.02270507813	-15	-32.3180852374207	0.1350311018045205	2.573212796328658	-0.6207881399073263	-3.705409397117462	3464.8	3610.25641025641	0.402187120291616	0.5413625304136254	0.04491413474240423
10061.55395507813	-14.26923076923077	-32.13240592473979	-0.2643191476257929	3.028857183521482	-1.095963938329229	-3.306554333667486	3464.8	3614.652014652014	0.3973268529769137	0.537712895377129	0.04095112285336856
10081.08520507813	-13.84615384615385	-32.18005173369465	-0.2281825460368294	1.657090327840116	-0.1398680198720928	-4.507765501844468	3493.928205128205	3613.186813186813	0.3985419198055893	0.5231143552311436	0.04227212681638045
10100.61645507813	-14.15384615384616	-32.83063373775944	-0.08369772741269932	2.568379102225761	-1.090219616715898	-3.710055374944518	3477.907692307692	3613.186813186813	0.3948967193195626	0.5389294403892945	0.05019815059445178
10120.14770507813	-14.03846153846154	-33.05848524973825	-0.3449682823181621	2.578520952896104	-2.48292861601911	-2.907757352832009	3479.364102564102	3619.047619047619	0.3888213851761846	0.5413625304136254	0.04623513870541612
10139.67895507813	-14.11538461538462	-32.82523711276714	-0.3919905154893146	2.122876565703281	-2.007752817597208	-3.306612416281984	3472.082051282051	3616.117216117216	0.3839611178614824	0.5389294403892945	0.04491413474240423
10159.21020507813	-14.03846153846154	-32.44568731908604	-0.2156340456980967	2.155007271068937	-2.453806147722025	-2.086904460718521	3464.8	3614.652014652014	0.3961117861482381	0.537712895377129	0.047556142668428
10178.74145507813	-13.73076923076923	-32.88751770647288	0.4143468621050686	1.275374739584399	0.3820640719173173	-2.457912698513405	3496.841025641026	3617.582417582417	0.3997569866342648	0.5255474452554745	0.03830911492734478
10198.27270507813	-13.84615384615385	-32.93758083389789	-0.8132659974133154	1.748174287369637	0.3841124658652376	-1.646293679439534	3476.451282051281	3611.721611721612	0.4034021871202916	0.5425790754257908	0.04359313077939234
10217.80395507813	-13.96153846153846	-32.18007482909404	-0.111643160682392	2.20381867456246	-0.09106333255666496	-1.247438615989558	3476.451282051281	3619.047619047619	0.3997569866342648	0.5437956204379563	0.0488771466314399
10237.33520507813	-13.65384615384616	-33.68891266859641	0.02255650674385668	2.191497208072942	-0.09885604811791622	-1.655556593786398	3496.841025641026	3620.51282051282	0.3912515188335358	0.5279805352798054	0.04359313077939234
10256.86645507813	-14	-32.75746751247151	-0.04970129950113944	2.174342047480527	-0.576080240487739	-2.068320549410295	3491.015384615384	3617.582417582417	0.3888213851761846	0.5389294403892945	0.0369881109643329
10276.39770507813	-13.88461538461539	-32.45797407156495	0.2448574244010595	2.659463061755282	-0.5662391309785675	-0.8485835525395833	3482.276923076923	3620.51282051282	0.3924665856622114	0.5450121654501217	0.05151915455746367
10295.92895507813	-14.30769230769231	-32.05696865184456	-0.1515674077723717	2.6717845282448	-0.5584464154173162	-0.4404655747427436	3489.558974358974	3620.51282051282	0.3961117861482381	0.5328467153284672	0.035667107001321
10315.46020507813	-13.65384615384616	-32.89135154277268	0.5291156001724455	3.107619676561485	-0.5797761681531497	-0.8532004890593912	3491.015384615384	3621.978021978022	0.4070473876063183	0.524330900243309	0.047556142668428
10334.99145507813	-15.19230769230769	-32.32274280963232	0.5602174046929851	3.560609985470585	-0.1238817285191604	-0.8531714477521423	3493.928205128205	3621.978021978022	0.4058323207776428	0.5413625304136254	0.04623513870541612
10354.52270507813	-13.96153846153846	-32.45952916179098	0.3995350126254851	4.021088066766306	-0.1296260501324914	-0.4496704064751104	3495.384615384615	3620.51282051282	0.3985419198055893	0.5401459854014599	0.04359313077939234
10374.05395507813	-13.88461538461539	-31.69582589148242	0.5989868818131428	4.927543147049053	-1.549409123784868	0.3433937425977832	3480.820512820513	3624.908424908425	0.393681652490887	0.5304136253041363	0.03963011889035667
10393.58520507813	-14.69230769230769	-32.4496674262487	0.6372174662807171	4.922709452946156	-2.018840600593439	0.3387477647707264	3496.841025641026	3624.908424908425	0.3985419198055893	0.5279805352798054	0.04095112285336856
10413.11645507813	-13.76923076923077	-32.68351604360412	-0.1318901274866047	4.87124397116891	-3.450513177702908	-0.8995441021009629	3495.384615384615	3624.908424908425	0.3985419198055893	0.5340632603406327	0.04623513870541612
10432.64770507813	-14.30769230769231	-33.5281455933978	0.330356592966681	5.361198679546563	-2.971240591385165	0.3248388725968051	3473.538461538461	3620.51282051282	0.393681652490887	0.5413625304136254	0.04095112285336856
10452.17895507813	-15.11538461538462	-32.39278345753526	0.1391728767629488	3.999099212070993	-1.076281719310886	-0.8670803399260636	3491.015384615384	3621.978021978022	0.4034021871202916	0.5401459854014599	0.04623513870541612
10471.71020507813	-14.80769230769231	-32.51743702654431	0.2949282502925419	3.557955907186862	0.8071885095367314	-1.251997469894868	3489.558974358974	3620.51282051282	0.3948967193195626	0.537712895377129	0.04491413474240423
10491.24145507813	-14.65384615384616	-32.54973979183347	-0.1668565621728151	2.663822293393631	2.234764298750359	-1.636943641170922	3504.123076923077	3621.978021978022	0.3924665856622114	0.5389294403892945	0.04359313077939234
10510.77270507813	-13.42307692307692	-32.14686364476196	-0.38758699267106	3.119466680586455	1.759588500328457	-1.238088577720947	3495.384615384615	3620.51282051282	0.3997569866342648	0.5316301703163017	0.03963011889035667
10530.30395507813	-14.5	-32.99929943955165	1.003433516043604	3.1247748371539	-0.1025519757833269	-0.4404365334354947	3461.887179487179	3616.117216117216	0.3973268529769137	0.524330900243309	0.05019815059445178
10549.83520507813	-14.84615384615385	-32.27417318470161	-2.214417687996551	2.644487516982042	0.3570383915160731	-1.655527552479149	3495.384615384615	3621.978021978022	0.4034021871202916	0.5316301703163017	0.05151915455746367
10569.36645507813	-14.80769230769231	-32.35422953747614	-0.1731385108086472	3.100131904174865	-0.1181374069058294	-1.256672489029174	3470.625641025641	3617.582417582417	0.3961117861482381	0.5352798053527981	0.05019815059445178
10588.89770507813	-14.69230769230769	-32.23795959844799	-0.3327893083697726	2.615010889900109	-0.127978516415001	-2.476409485899886	3479.364102564102	3617.582417582417	0.3888213851761846	0.5340632603406327	0.04623513870541612
10608.42895507813	-15	-32.59138079694525	0.3382706164931946	3.065347120525487	1.25898616127488	-2.875206466735363	3488.102564102564	3616.117216117216	0.3888213851761846	0.5352798053527981	0.04095112285336856
10627.96020507813	-14.69230769230769	-33.46817453963171	-0.3605037876455011	2.156712424423564	1.278267520062793	-3.274090571492587	3493.928205128205	3617.582417582417	0.3863912515188335	0.5340632603406327	0.0488771466314399
10647.49145507813	-14.73076923076923	-32.6844783519123	0.8777637494611075	2.166379812629358	2.217130473679936	-3.264798615838473	3492.471794871794	3619.047619047619	0.3912515188335358	0.5413625304136254	0.04623513870541612
10667.02270507813	-14.23076923076923	-32.49037691691815	0.2880766151382646	1.725710970209776	1.769028749607199	-2.856709679348882	3479.364102564102	3616.117216117216	0.3912515188335358	0.5425790754257908	0.0488771466314399
10686.55395507813	-14.69230769230769	-33.16870419412453	0.05059432161113531	2.181355357402599	1.293852951185296	-2.457854615898907	3477.907692307692	3617.582417582417	0.402187120291616	0.5352798053527981	0.04623513870541612
10706.08520507813	-14.76923076923077	-32.32034858656156	0.01742932807784681	3.104965598277762	0.3512940699027422	-1.252026511202117	3460.430769230769	3617.582417582417	0.3961117861482381	0.5291970802919708	0.047556142668428
10725.61645507813	-15.07692307692308	-32.32271971423293	0.4436780193385477	2.649321211084939	0.8264698683246446	-1.650881574652093	3491.015384615384	3623.443223443223	0.393681652490887	0.5413625304136254	0.05284015852047556
10745.14770507813	-14.38461538461539	-32.68286937242102	0.4511609287429945	2.644487516982042	0.3570383915160731	-1.655527552479149	3479.364102564102	3619.047619047619	0.3912515188335358	0.5255474452554745	0.04227212681638045
10764.67895507813	-14.34615384615385	-31.99923785181992	0.8465079756112584	2.632166050492524	0.3492456759548219	-2.063645530275989	3493.928205128205	3617.582417582417	0.3900364520048603	0.5279805352798054	0.0488771466314399
10784.21020507813	-14.69230769230769	-32.86923384861736	0.4616924308677712	2.179175741583424	-0.1066487636791675	-2.063674571583238	3485.189743589744	3613.186813186813	0.3961117861482381	0.5340632603406327	0.05680317040951123
10803.74145507813	-14.15384615384616	-32.83294327769908	0.03177926956950183	2.634820128776247	-0.58182456210107	-1.664819508133263	3489.558974358974	3620.51282051282	0.4034021871202916	0.537712895377129	0.04623513870541612
10823.27270507813	-14.88461538461539	-32.13098940691015	0.2802395762764056	2.19633090217584	0.3705754286906554	-1.650910615959341	3492.471794871794	3621.978021978022	0.3900364520048603	0.5364963503649636	0.06340819022457067
10842.80395507813	-14.73076923076923	-31.55126408819363	-0.01371866724148529	2.659463061755282	-0.5662391309785675	-0.8485835525395833	3469.169230769231	3619.047619047619	0.3924665856622114	0.5425790754257908	0.05548216644649934
10862.33520507813	-14.42307692307692	-32.4411452238714	-0.05812342181437447	1.760495753859155	0.3919051814264888	-1.238175701642694	3493.928205128205	3619.047619047619	0.3912515188335358	0.5401459854014599	0.05548216644649934
10881.86645507813	-14.23076923076923	-31.63584713924986	-0.1307199605838516	1.767983526245775	-0.06973357982083145	-0.8347037016729109	3482.276923076923	3619.047619047619	0.4034021871202916	0.5401459854014599	0.05019815059445178
10901.39770507813	-14.11538461538462	-33.1501123976104	0.4671583420582621	2.206472752846183	-1.022133570612557	-0.8486125938468322	3476.451282051281	3620.51282051282	0.3888213851761846	0.5364963503649636	0.05548216644649934
10920.92895507813	-13.5	-32.260816345384	-0.3822596538769478	1.741160977447565	-1.485820725807797	-1.256759612950921	3491.015384615384	3619.047619047619	0.3985419198055893	0.5364963503649636	0.04359313077939234
10940.46020507813	-14.69230769230769	-32.93005173369465	-0.3435671614214448	1.743815055731288	-2.416890963863689	-0.8579335908081945	3486.646153846154	3623.443223443223	0.3912515188335358	0.5437956204379563	0.0488771466314399
10959.99145507813	-14.11538461538462	-32.87835653137896	0.3409034920243887	0.4186799877242697	-0.4985539451056563	-0.825498869940544	3502.666666666666	3621.978021978022	0.3900364520048603	0.5389294403892945	0.04491413474240423
10979.52270507813	-14.65384615384616	-32.70370912114307	-0.1606977890004311	1.317647295620398	-1.456698257510713	-0.4359067208374335	3467.71282051282	3621.978021978022	0.3961117861482381	0.5316301703163017	0.04623513870541612
10999.05395507813	-13.80769230769231	-33.42488606269632	0.436610827123237	1.27101550794605	-2.41893935781161	-1.669552609882066	3477.907692307692	3619.047619047619	0.3863912515188335	0.5401459854014599	0.04359313077939234
11018.58520507813	-14.65384615384616	-33.17023618895116	0.08873252448112345	1.288170668538465	-1.941715165441787	-1.25678865425817	3460.430769230769	3616.117216117216	0.3924665856622114	0.5413625304136254	0.04623513870541612
11038.11645507813	-14.5	-33.87230553673709	0.4229691445464066	2.208652368665357	0.3783681442519066	-1.242792638162502	3470.625641025641	3619.047619047619	0.393681652490887	0.5291970802919708	0.04623513870541612
11057.64770507813	-13.92307692307692	-32.38253679866971	0.3576091642544805	1.317172833155849	0.8748736954096426	-1.228912787295829	3485.189743589744	3623.443223443223	0.393681652490887	0.5304136253041363	0.047556142668428
11077.17895507813	-13.84615384615385	-32.73203177926957	0.4477428096323213	1.745994671550462	-1.016389248999226	-1.252113635123864	3482.276923076923	3619.047619047619	0.3997569866342648	0.5486618004866181	0.05284015852047556
11096.71020507813	-14.5	-31.76369557184209	0.7617016690275298	2.162495043455558	-2.915444908969346	-1.683432460748739	3492.471794871794	3620.51282051282	0.3912515188335358	0.5304136253041363	0.04227212681638045
11116.24145507813	-14.42307692307692	-32.95386309047238	0.5777699082342798	1.706850656262735	-2.440269110547443	-2.082287524198714	3488.102564102564	3614.652014652014	0.3912515188335358	0.5413625304136254	0.04623513870541612
11135.77270507813	-14.23076923076923	-32.45188458459075	0.2865369218451686	2.179175741583424	-0.1066487636791675	-2.063674571583238	3489.558974358974	3614.652014652014	0.393681652490887	0.5255474452554745	0.04095112285336856
11155.30395507813	-14.03846153846154	-32.44953655231878	-0.0231723840610949	2.65680898347156	0.3648311070773244	-1.24740957468231	3477.907692307692	3619.047619047619	0.3924665856622114	0.5401459854014599	0.05284015852047556
11174.83520507813	-14.80769230769231	-32.28417349264026	0.1702130935517643	2.23064122336067	1.325023813430301	-0.8253827047115485	3482.276923076923	3621.978021978022	0.3973268529769137	0.5328467153284672	0.05151915455746367
11194.36645507813	-15.11538461538462	-32.64452331095645	1.187704009361335	1.787792765121913	-0.5235796255069005	-0.02311372390628813	3489.558974358974	3620.51282051282	0.3973268529769137	0.5340632603406327	0.05151915455746367
11213.89770507813	-13.61538461538462	-32.65500092381598	0.2115846523372544	2.659937524219831	-2.897811083898923	-0.05557748608118754	3480.820512820513	3624.908424908425	0.393681652490887	0.5401459854014599	0.04623513870541612
11233.42895507813	-14.84615384615385	-33.20645747367124	0.1690275297160806	2.191971670537491	-2.430428001038271	-0.8625505273280024	3493.928205128205	3620.51282051282	0.3961117861482381	0.5413625304136254	0.04227212681638045
11252.96020507813	-14.5	-31.97617324628935	-0.1528761470715032	2.642307901162867	-1.04346332334839	-1.26134750816348	3492.471794871794	3620.51282051282	0.3997569866342648	0.5328467153284672	0.0488771466314399
11272.49145507813	-14.34615384615385	-32.8568470160744	-0.503803042433947	3.078143049479552	-1.064793076084224	-1.674082422480127	3483.733333333333	3620.51282051282	0.4046172539489671	0.5401459854014599	0.05680317040951123
11292.02270507813	-14.76923076923077	-31.66751863028884	0.06823920675001549	2.634820128776247	-0.58182456210107	-1.664819508133263	3491.015384615384	3621.978021978022	0.3900364520048603	0.5401459854014599	0.04623513870541612
11311.55395507813	-14.53846153846154	-32.4042156802365	0.1338609349017677	3.095772672536516	-2.919140836634757	-0.4683124003978351	3463.343589743589	3616.117216117216	0.3924665856622114	0.5340632603406327	0.04227212681638045
11331.08520507813	-14.42307692307692	-32.94154554412761	-0.03810740900412646	2.17699612576425	-1.507150478543631	-1.669494527267568	3504.123076923077	3620.51282051282	0.3997569866342648	0.5304136253041363	0.05019815059445178
11350.61645507813	-14.53846153846154	-32.556645316253	0.06303504341935096	2.199459442924111	-2.892066762285592	-0.4590785273582194	3477.907692307692	3614.652014652014	0.3973268529769137	0.5316301703163017	0.05019815059445178
11370.14770507813	-14.30769230769231	-32.56814682515243	0.4073412576214819	1.73149358924177	-2.42468367942494	-1.266051568605034	3477.907692307692	3619.047619047619	0.3948967193195626	0.5328467153284672	0.05680317040951123
11389.67895507813	-14.73076923076923	-32.25182453655232	0.3989191353082464	1.273195123765224	-1.018437642947146	-2.063732654197735	3485.189743589744	3616.117216117216	0.3948967193195626	0.5413625304136254	0.03830911492734478
11409.21020507813	-14.69230769230769	-32.40578616739546	0.3662314466958183	1.273195123765224	-1.018437642947146	-2.063732654197735	3480.820512820513	3614.652014652014	0.3985419198055893	0.5328467153284672	0.03170409511228534
11428.74145507813	-13.57692307692308	-31.64187503849233	-0.4831711523064606	2.172162431661352	-1.976581955352203	-1.674140505094625	3477.907692307692	3614.652014652014	0.3827460510328068	0.5413625304136254	0.047556142668428
11448.27270507813	-14.96153846153846	-32.31807753895424	0.09618464001970795	1.288170668538465	-1.941715165441787	-1.25678865425817	3485.189743589744	3619.047619047619	0.4009720534629404	0.5389294403892945	0.04623513870541612
11467.80395507813	-14.57692307692308	-32.4881366631767	0.5222177742193757	1.280682896151845	-1.480076404194467	-1.660260654227953	3474.994871794872	3619.047619047619	0.3851761846901579	0.5340632603406327	0.05548216644649934
11487.33520507813	-14.69230769230769	-32.6405893945926	0.5679312680913964	0.8223844306752989	-0.07383036771667204	-2.457941739820654	3504.123076923077	3619.047619047619	0.3888213851761846	0.5364963503649636	0.03963011889035667
11506.86645507813	-14.19230769230769	-32.89453870788939	1.226935394469422	1.29783805674426	-1.002852211824644	-1.247496698604056	3473.538461538461	3617.582417582417	0.3985419198055893	0.5352798053527981	0.04491413474240423
11526.39770507813	-14.03846153846154	-32.45184609225842	0.09230461292110626	1.293004362641362	-1.472283688633215	-1.252142676431113	3480.820512820513	3620.51282051282	0.3815309842041312	0.537712895377129	0.04623513870541612
11545.92895507813	-14.5	-33.41347693539447	0.5584621543388557	0.8668366025304722	-0.5120909822802385	-0.8301158064603519	3483.733333333333	3621.978021978022	0.3997569866342648	0.524330900243309	0.04095112285336856
11565.46020507813	-14.57692307692308	-32.40884245858226	0.4036613906509823	0.8690162183496468	0.8884107325842249	-1.224295850776021	3486.646153846154	3620.51282051282	0.3948967193195626	0.5255474452554745	0.04095112285336856
11584.99145507813	-14.92307692307692	-32.70530270370142	0.1882121081480568	1.290350284357639	-0.5412134505773234	-1.650968698573839	3495.384615384615	3620.51282051282	0.3985419198055893	0.5364963503649636	0.0488771466314399
11604.52270507813	-14.57692307692308	-33.72220083759315	0.6869649565806493	1.319826911439572	-0.05619654264624922	-0.830086765153103	3495.384615384615	3620.51282051282	0.3985419198055893	0.5328467153284672	0.04623513870541612
11624.05395507813	-13.53846153846154	-33.4271417133707	0.2801625916117509	1.356791310908125	-0.03281839596249544	0.3942671682374162	3482.276923076923	3624.908424908425	0.3985419198055893	0.5328467153284672	0.05019815059445178
11643.58520507813	-13.69230769230769	-32.35323643530209	0.5848986881813142	0.8765039907362672	0.4267719713369045	-0.8208238508062384	3504.123076923077	3621.978021978022	0.393681652490887	0.551094890510949	0.05019815059445178
11663.11645507813	-14.07692307692308	-32.46263164377656	0.6700437272895241	1.745994671550462	-1.016389248999226	-1.252113635123864	3480.820512820513	3616.117216117216	0.402187120291616	0.5474452554744526	0.04491413474240423
11682.64770507813	-14.80769230769231	-33.58752386524603	-0.04688366077477335	3.08297674358245	-0.5953615992756522	-1.669436444653071	3477.907692307692	3619.047619047619	0.3985419198055893	0.5316301703163017	0.05680317040951123
11702.17895507813	-14.65384615384616	-32.61902599002278	-0.5487004988606268	2.193676823892117	1.301645666746547	-2.049736638102067	3493.928205128205	3617.582417582417	0.3924665856622114	0.5437956204379563	0.0488771466314399
11721.71020507813	-13.61538461538462	-32.6057307384369	-0.3288476935394469	1.762675369678329	1.792406896290952	-1.632355745958363	3479.364102564102	3621.978021978022	0.3900364520048603	0.5364963503649636	0.04095112285336856
11741.24145507813	-13.96153846153846	-32.76977736034981	0.5273295559524542	0.8347058971648166	-0.06603765215542078	-2.049823762023814	3499.753846153846	3616.117216117216	0.3973268529769137	0.5352798053527981	0.0369881109643329
11760.77270507813	-14.34615384615385	-31.57967142945125	-0.9010439120527192	1.300492135027983	-1.933922449880535	-0.84867067646133	3479.364102564102	3620.51282051282	0.393681652490887	0.5401459854014599	0.0488771466314399
11780.30395507813	-14.15384615384616	-32.28558231200345	-0.4131920921352468	-0.004833694102897418	-0.4694314768085716	-0.004645977827056742	3479.364102564102	3623.443223443223	0.3924665856622114	0.5352798053527981	0.04227212681638045
11799.83520507813	-14.23076923076923	-32.29329617540186	0.04942415470838202	-2.241257536495561	2.399257138793267	-0.7699213838593565	3504.123076923077	3621.978021978022	0.3912515188335358	0.5474452554744526	0.05019815059445178
11819.36645507813	-14	-32.47339409989531	-0.7918334667734186	-2.640128285343693	2.443965038212853	0.8671674638478103	3489.558974358974	3624.908424908425	0.3948967193195626	0.5352798053527981	0.047556142668428
11838.89770507813	-13.84615384615385	-32.24933793188396	-0.6100264827246413	-3.080797127763275	1.995863314140116	1.275256400337401	3480.820512820513	3621.978021978022	0.4009720534629404	0.5462287104622872	0.04491413474240423
11858.42895507813	-14.38461538461539	-32.78063989653261	-0.4295436349079262	-3.100131904174865	0.1181374069058294	1.256672489029174	3489.558974358974	3620.51282051282	0.393681652490887	0.5450121654501217	0.0369881109643329
11877.96020507813	-14.03846153846154	-32.63506959413684	-0.3619049085422184	-3.577765146063	-0.3533424638506624	0.4404074921282458	3496.841025641026	3624.908424908425	0.3948967193195626	0.5389294403892945	0.05416116248348745
11897.49145507813	-14.5	-32.24869895916734	0.0118710352897704	-4.028575839152926	0.5912648113798117	0.04619840650532738	3511.405128205128	3626.373626373626	0.3948967193195626	0.5474452554744526	0.04227212681638045
11917.02270507813	-13.65384615384616	-32.83284319763503	-0.4732247336330604	-4.033409533255823	0.1218333345712401	0.04155242867827064	3491.015384615384	3624.908424908425	0.3900364520048603	0.5389294403892945	0.035667107001321
11936.55395507813	-14.42307692307692	-33.10090379996304	0.2374976904600605	-4.053218772131961	0.5756793802573091	-0.7700375490883521	3474.994871794872	3620.51282051282	0.3924665856622114	0.5328467153284672	0.03434610303830912
11956.08520507813	-14.34615384615385	-33.17017460121944	-0.2220391697973763	-4.082695399213894	0.09066247232623505	-1.590919482509088	3496.841025641026	3620.51282051282	0.3985419198055893	0.5328467153284672	0.04095112285336856
11975.61645507813	-14.84615384615385	-33.93088316807292	-0.1481492886616984	-4.073028011008099	1.029525425943378	-1.581627526854975	3488.102564102564	3620.51282051282	0.3912515188335358	0.5474452554744526	0.03302509907529723
11995.14770507813	-14.76923076923077	-33.08865553981647	-0.02876147071503366	-3.164393314906176	1.010244067155465	-1.182743422097751	3483.733333333333	3620.51282051282	0.3912515188335358	0.5389294403892945	0.03830911492734478
12014.67895507813	-14.46153846153846	-33.12785613105869	-0.2995011393730367	-2.721070394202871	0.5272755531723111	-1.192006336444615	3493.928205128205	3619.047619047619	0.4046172539489671	0.5450121654501217	0.03434610303830912
12034.21020507813	-13.88461538461539	-32.58422892159882	-1.13470776621297	-2.294902634091981	-0.4329171531806654	-1.614033206415376	3492.471794871794	3623.443223443223	0.3961117861482381	0.537712895377129	0.03170409511228534
12053.74145507813	-14.46153846153846	-32.65670998337131	-0.7798854468189935	-1.381434243887161	0.01723296483999291	-1.210503123831096	3485.189743589744	3617.582417582417	0.3961117861482381	0.5352798053527981	0.02906208718626156
12073.27270507813	-14.80769230769231	-32.7915024327154	0.5366600973086162	-0.9038010019990254	0.4887128355964848	-0.3942381269301673	3477.907692307692	3620.51282051282	0.3948967193195626	0.5316301703163017	0.0369881109643329
12092.80395507813	-15.07692307692308	-33.65917349264026	-0.04132536798669695	0.004833694102897418	0.4694314768085716	0.004645977827056742	3477.907692307692	3623.443223443223	0.3985419198055893	0.5316301703163017	0.03302509907529723
12112.33520507813	-14.80769230769231	-32.86925694401675	0.5782318162222087	-0.01980923887613799	0.453846045686069	-0.8115899777666227	3493.928205128205	3620.51282051282	0.3900364520048603	0.5352798053527981	0.03830911492734478
12131.86645507813	-14.65384615384616	-33.08401336453778	-0.3762548500338732	0.4160259094405469	0.4325162929502356	-1.22432489208327	3495.384615384615	3623.443223443223	0.3912515188335358	0.5328467153284672	0.02642007926023778
12151.39770507813	-14.03846153846154	-33.67128318039046	-0.4743025189382273	0.4160259094405469	0.4325162929502356	-1.22432489208327	3482.276923076923	3619.047619047619	0.3876063183475091	0.5304136253041363	0.035667107001321
