Time Stamp	Accelerometer X	Accelerometer Y	Accelerometer Z	Gyroscope X	Gyroscope Y	Gyroscope Z	VSenseReg	VSenseBatt	Magnetometer X	Magnetometer Y	Magnetometer Z
1512.725830078125	-15.07692307692308	-32.5852374207058	0.1080248814436164	-77.02764467213156	-4.929249399867544	-9.891260945236542	3458.974358974359	3597.069597069597	0.3876063183475091	0.5437956204379563	0.05812417437252312
1532.257080078125	-14.34615384615385	-32.60895639588593	0.5632044096815916	-0.8765039907362672	-0.4267719713369045	0.8208238508062384	3505.579487179487	3632.234432234432	0.393681652490887	0.5437956204379563	0.05548216644649934
1551.788330078125	-14.57692307692308	-32.08935610026483	-0.1860411406047915	1.275374739584399	0.3820640719173173	-2.457912698513405	3482.276923076923	3620.51282051282	0.3973268529769137	0.5401459854014599	0.05019815059445178
1571.319580078125	-14.11538461538462	-32.38180544435549	0.5133491408511424	0.8148966582886786	0.3878083935306482	-2.861413739790437	3505.579487179487	3624.908424908425	0.402187120291616	0.5462287104622872	0.047556142668428
1590.850830078125	-13.84615384615385	-31.80436657017922	0.218328508961015	0.3817155882557166	-0.5219320917894101	-2.049852803331063	3491.015384615384	3621.978021978022	0.3876063183475091	0.5474452554744526	0.04095112285336856
1610.382080078125	-14.15384615384616	-32.61045759684671	0.44595676541233	0.3747022783336447	-2.391865283462445	-1.66031873684245	3486.646153846154	3627.838827838828	0.3985419198055893	0.5425790754257908	0.05548216644649934
1629.913330078125	-13.65384615384616	-32.42867370819733	0.472146948327893	-0.07345433647255791	-2.378328246287863	-1.655701800322643	3498.297435897436	3624.908424908425	0.3948967193195626	0.537712895377129	0.05151915455746367
1649.444580078125	-13.96153846153846	-32.59271263164377	1.289477736034982	0.3870237448231624	-2.384072567901194	-1.252200759045611	3482.276923076923	3620.51282051282	0.3876063183475091	0.5340632603406327	0.05019815059445178
1668.975830078125	-14.80769230769231	-32.4835637740962	0.5243425509638482	0.3892033606423369	-0.9835708530367304	-1.64638080336128	3480.820512820513	3623.443223443223	0.3973268529769137	0.5474452554744526	0.04491413474240423
1688.507080078125	-14.69230769230769	-32.01085483771633	-0.1495658064913468	-0.0690951048342088	0.422675183441064	-2.444061888953982	3491.015384615384	3621.978021978022	0.393681652490887	0.5437956204379563	0.04623513870541612
1708.038330078125	-13.5	-33.00987713247521	0.5323181622220852	0.3693941217661989	-0.5297248073506613	-2.457970781127903	3495.384615384615	3624.908424908425	0.3997569866342648	0.5535279805352799	0.05019815059445178
1727.569580078125	-14.57692307692308	-32.29798454147934	0.6299963047360966	0.8078833483666066	-1.482124798142387	-2.471879673301824	3496.841025641026	3626.373626373626	0.3973268529769137	0.5352798053527981	0.05284015852047556
1747.100830078125	-13.53846153846154	-32.58646917534026	0.5542279977828417	1.258694041456532	-2.426732073372861	-2.077670587678906	3488.102564102564	3620.51282051282	0.3961117861482381	0.5389294403892945	0.05416116248348745
1766.632080078125	-15.80769230769231	-32.39138233663854	0.7614245242347724	1.728839510958047	-1.493613441369049	-1.66487759074776	3473.538461538461	3621.978021978022	0.3912515188335358	0.5389294403892945	0.05416116248348745
1786.163330078125	-14.15384615384616	-32.95919812773295	0.5752910020323951	1.295183978460537	-0.07178197376875174	-1.646322720746783	3492.471794871794	3624.908424908425	0.3997569866342648	0.5364963503649636	0.05416116248348745
1805.694580078125	-14.38461538461539	-33.25640512409928	0.2817946665024329	1.285516590254742	-1.010644927385895	-1.655614676400896	3496.841025641026	3623.443223443223	0.3948967193195626	0.5474452554744526	0.05284015852047556
1825.225830078125	-14.15384615384616	-32.61353698343289	0.5999260947219315	2.18448389815087	-1.968789239790951	-1.266022527297785	3482.276923076923	3623.443223443223	0.393681652490887	0.5450121654501217	0.0488771466314399
1844.757080078125	-14.07692307692308	-33.02461969575661	-0.07670751986204327	2.155007271068937	-2.453806147722025	-2.086904460718521	3498.297435897436	3620.51282051282	0.3985419198055893	0.5462287104622872	0.0607661822985469
1864.288330078125	-14.38461538461539	-31.75597400997721	0.2602389603990885	1.711684350365632	-1.970837633738871	-2.077641546371657	3495.384615384615	3620.51282051282	0.3924665856622114	0.5401459854014599	0.0488771466314399
1883.819580078125	-14.30769230769231	-32.91380796945249	0.3827061649319457	1.721351738571427	-1.031974680121728	-2.068349590717543	3499.753846153846	3624.908424908425	0.3924665856622114	0.5498783454987835	0.03830911492734478
1903.350830078125	-13.76923076923077	-32.50183223501879	0.3993040586315206	0.8373599754485395	-0.9971078902113126	-1.650997739881088	3498.297435897436	3624.908424908425	0.402187120291616	0.5437956204379563	0.05151915455746367
1922.882080078125	-14.61538461538462	-32.11014965818809	0.8920982940198314	1.770637604529498	-1.000803817876723	-0.4358776795301846	3467.71282051282	3621.978021978022	0.402187120291616	0.5450121654501217	0.0607661822985469
1942.413330078125	-14.26923076923077	-32.881466711831	0.6502586684732401	0.3892033606423369	-0.9835708530367304	-1.64638080336128	3511.405128205128	3624.908424908425	0.3985419198055893	0.551094890510949	0.04359313077939234
1961.944580078125	-14.5	-32.48735141959723	0.4060325183223503	0.4186799877242697	-0.4985539451056563	-0.825498869940544	3496.841025641026	3624.908424908425	0.3924665856622114	0.5437956204379563	0.047556142668428
1981.475830078125	-14.07692307692308	-32.35793249984603	-0.7187596230830817	1.33214837792909	-0.04840382708499796	-0.4219687873562633	3474.994871794872	3620.51282051282	0.3973268529769137	0.5437956204379563	0.05548216644649934
2001.007080078125	-14.38461538461539	-32.51427295682701	-0.2863521586499969	0.406358521234752	-0.5063466606669076	-1.233616847737384	3502.666666666666	3624.908424908425	0.4070473876063183	0.5498783454987835	0.0488771466314399
2020.538330078125	-14.03846153846154	-32.50111627763749	0.6327369587978076	1.741160977447565	-1.485820725807797	-1.256759612950921	3489.558974358974	3626.373626373626	0.4009720534629404	0.5486618004866181	0.05284015852047556
2040.069580078125	-14.30769230769231	-32.7921721992979	0.07014842643345443	0.3892033606423369	-0.9835708530367304	-1.64638080336128	3515.774358974359	3629.304029304029	0.393681652490887	0.5425790754257908	0.0607661822985469
2059.600830078125	-14.15384615384616	-32.24862967296915	1.585329802303381	0.4336555324975103	-1.421831467600297	-0.01855487000097807	3496.841025641026	3630.769230769231	0.393681652490887	0.5474452554744526	0.05151915455746367
2079.132080078125	-14.84615384615385	-33.21954486666256	0.8233971792818871	0.8351803596293649	-2.397609605075776	-1.256817695565418	3476.451282051281	3624.908424908425	0.3973268529769137	0.5425790754257908	0.0488771466314399
2098.663330078125	-14.73076923076923	-32.20794327769908	0.1279331157233479	0.8272181247781963	0.3956011090918995	-2.453295761993597	3511.405128205128	3623.443223443223	0.3948967193195626	0.551094890510949	0.04095112285336856
2118.194580078125	-14.46153846153846	-31.601250230954	0.2932807784689291	1.772817220348672	0.3996978969877401	-0.8300577238458541	3483.733333333333	3626.373626373626	0.3900364520048603	0.5401459854014599	0.05812417437252312
2137.725830078125	-13.57692307692308	-32.74121604976288	0.6377255650674385	1.787792765121913	-0.5235796255069005	-0.02311372390628813	3486.646153846154	3629.304029304029	0.3888213851761846	0.5401459854014599	0.047556142668428
2157.257080078125	-14.42307692307692	-32.62128933916363	1.256774650489623	2.667425296606451	-3.359449845146243	0.3478945138885954	3464.8	3626.373626373626	0.3997569866342648	0.5462287104622872	0.047556142668428
2176.788330078125	-14.42307692307692	-33.0970545667303	0.04503602882305868	1.741160977447565	-1.485820725807797	-1.256759612950921	3499.753846153846	3626.373626373626	0.3924665856622114	0.5425790754257908	0.05151915455746367
2196.319580078125	-14.46153846153846	-33.06626839933485	0.4672661205887789	1.755662059756257	-0.07752629538208272	-1.24282167946975	3505.579487179487	3626.373626373626	0.3973268529769137	0.5425790754257908	0.05284015852047556
2215.850830078125	-15.5	-32.7824028453532	0.7739884215064359	1.760495753859155	0.3919051814264888	-1.238175701642694	3498.297435897436	3623.443223443223	0.3888213851761846	0.537712895377129	0.059445178335535
2235.382080078125	-14.96153846153846	-32.00936903368849	0.04537476134753948	2.216140141051977	-0.08327061699541369	-0.8393206381927187	3486.646153846154	3617.582417582417	0.3863912515188335	0.5498783454987835	0.0488771466314399
2254.913330078125	-15.42307692307692	-31.89860349818316	0.7378672168504035	1.327314683826192	-0.5178353038935696	-0.42661476518332	3488.102564102564	3620.51282051282	0.3961117861482381	0.5413625304136254	0.0488771466314399
2274.444580078125	-14.92307692307692	-32.47357886309047	0.1404816160620805	0.4138462936213723	-0.9679854219142279	-0.8301448477676008	3499.753846153846	3623.443223443223	0.3948967193195626	0.559610705596107	0.05151915455746367
2293.975830078125	-14.34615384615385	-32.51888433823982	-0.09424462647040688	1.300492135027983	-1.933922449880535	-0.84867067646133	3477.907692307692	3624.908424908425	0.3961117861482381	0.5413625304136254	0.05680317040951123
2313.507080078125	-15.46153846153846	-33.54223378702963	0.2655355053273387	1.314993217336675	-0.5256280194548209	-0.8347327429801598	3470.625641025641	3623.443223443223	0.393681652490887	0.5498783454987835	0.059445178335535
2333.038330078125	-14.57692307692308	-32.5843674939952	-0.4354714540863458	0.4010503646673063	1.355793815444876	-2.031268892022836	3496.841025641026	3617.582417582417	0.3973268529769137	0.5535279805352799	0.04623513870541612
2352.569580078125	-14.07692307692308	-32.2147410235881	-0.1860257436718606	-0.06160733244758852	-0.03896357780625631	-2.040589888984199	3501.210256410256	3617.582417582417	0.3924665856622114	0.5474452554744526	0.05019815059445178
2372.100830078125	-13.65384615384616	-31.98909127301842	-0.353128656771571	0.3720482000499218	-1.460795045406553	-2.059144758985176	3496.841025641026	3619.047619047619	0.4058323207776428	0.5486618004866181	0.05416116248348745
2391.632080078125	-14.88461538461539	-32.63292942045945	0.377240253741455	1.300492135027983	-1.933922449880535	-0.84867067646133	3477.907692307692	3619.047619047619	0.393681652490887	0.5462287104622872	0.04623513870541612
2411.163330078125	-14.46153846153846	-33.10168134507606	0.3148364845722733	0.3817155882557166	-0.5219320917894101	-2.049852803331063	3495.384615384615	3617.582417582417	0.3924665856622114	0.551094890510949	0.04095112285336856
2430.694580078125	-14.11538461538462	-32.10235111165856	0.002170967543265512	1.295183978460537	-0.07178197376875174	-1.646322720746783	3480.820512820513	3621.978021978022	0.3827460510328068	0.5474452554744526	0.04623513870541612
2450.225830078125	-13.65384615384616	-32.2454502063189	-0.9967204532857055	0.8373599754485395	-0.9971078902113126	-1.650997739881088	3485.189743589744	3623.443223443223	0.3863912515188335	0.5450121654501217	0.047556142668428
2469.757080078125	-14.19230769230769	-32.40645593397795	-0.1002802241793435	0.3693941217661989	-0.5297248073506613	-2.457970781127903	3499.753846153846	3623.443223443223	0.3985419198055893	0.5364963503649636	0.04227212681638045
2489.288330078125	-13.07692307692308	-32.65104391205271	-0.5247274742871217	0.3720482000499218	-1.460795045406553	-2.059144758985176	3488.102564102564	3619.047619047619	0.393681652490887	0.5450121654501217	0.05680317040951123
2508.819580078125	-14.5	-32.71137679374269	0.06883968713432287	-0.06160733244758852	-0.03896357780625631	-2.040589888984199	3509.948717948718	3620.51282051282	0.3876063183475091	0.5547445255474452	0.04359313077939234
2528.350830078125	-14.34615384615385	-31.98230122559587	-0.0003233355915499558	0.8545151360409545	-0.5198836978414898	-1.238233784257192	3488.102564102564	3623.443223443223	0.3961117861482381	0.5437956204379563	0.03963011889035667
2547.882080078125	-13.46153846153846	-32.40246042988237	0.8922522633491408	1.322480989723295	-0.9872667807021411	-0.4312607430103768	3480.820512820513	3616.117216117216	0.3900364520048603	0.5462287104622872	0.04491413474240423
2567.413330078125	-14	-32.91374638172076	0.07193447065344572	0.8646569867112978	-1.912592697144702	-0.4359357621446824	3496.841025641026	3624.908424908425	0.3961117861482381	0.5486618004866181	0.05284015852047556
2586.944580078125	-14.11538461538462	-31.71588809509146	-0.09021063004249563	1.771112066994046	-3.332375770797079	0.3571283869282111	3488.102564102564	3621.978021978022	0.3948967193195626	0.5547445255474452	0.04095112285336856
2606.475830078125	-14.42307692307692	-32.58895578000862	-0.3599033072611935	0.03478478364937856	-1.37712356818071	1.618533977706189	3485.189743589744	3627.838827838828	0.3924665856622114	0.5462287104622872	0.04623513870541612
2626.007080078125	-15.38461538461539	-31.86395270062204	-1.033134199667426	-1.319826911439572	0.05619654264624922	0.830086765153103	3488.102564102564	3624.908424908425	0.3863912515188335	0.5462287104622872	0.04491413474240423
2645.538330078125	-14.5	-32.0092766520909	-0.42078278007021	-3.007817253755266	6.705763513348334	2.137952134201648	3480.820512820513	3623.443223443223	0.3985419198055893	0.5462287104622872	0.0488771466314399
2665.069580078125	-12.76923076923077	-32.54474348709737	-0.3782102605161051	-3.913797871573466	5.793974634080355	2.13789405158715	3499.753846153846	3629.304029304029	0.3815309842041312	0.5474452554744526	0.04491413474240423
2684.600830078125	-14.19230769230769	-32.73210106546776	-1.125715957381289	-4.393136266816227	1.590421095539045	2.508815165460287	3505.579487179487	3629.304029304029	0.3863912515188335	0.5474452554744526	0.035667107001321
2704.132080078125	-16.5	-31.54699913777176	-0.3808123421814376	-6.577145702502549	1.22763838240964	4.567843759216468	3488.102564102564	3632.234432234432	0.3997569866342648	0.5498783454987835	0.04095112285336856
2723.663330078125	-18.23076923076923	-33.02006220360904	1.926187103528977	-7.419532068557553	14.81367627527862	1.854985144662851	3504.123076923077	3629.304029304029	0.3900364520048603	0.5535279805352799	0.03963011889035667
2743.194580078125	-18.19230769230769	-33.3187550040032	3.360827123237051	-5.146336523199903	25.02672728582678	-0.514595892521978	3496.841025641026	3624.908424908425	0.3863912515188335	0.5450121654501217	0.04623513870541612
2762.725830078125	-16.96153846153846	-33.55100234033381	4.127040093613352	-1.560801838789301	35.645220514976	-4.117735694829693	3467.71282051282	3613.186813186813	0.3863912515188335	0.5486618004866181	0.0488771466314399
2782.257080078125	-17.03846153846154	-34.46559555336577	3.779777668288477	0.2567493193755256	46.33344732394606	-6.886171795464498	3489.558974358974	3608.791208791209	0.3803159173754556	0.5498783454987835	0.04095112285336856
2801.788330078125	-15.80769230769231	-34.52693693416271	5.616077477366509	4.616049727471471	41.45700589074701	-9.427508805714181	3476.451282051281	3601.465201465201	0.3863912515188335	0.5474452554744526	0.03830911492734478
2821.319580078125	-16.03846153846154	-33.40223717435487	5.381089486974195	11.66694390268835	35.56827199644458	-11.59772141293999	3492.471794871794	3595.604395604395	0.3900364520048603	0.5450121654501217	0.05812417437252312
2840.850830078125	-16.26923076923077	-33.86727073966866	5.786613906509824	19.25129603320897	34.38369397973704	-12.50173724502451	3566.748717948718	3699.6336996337	0.3912515188335358	0.5413625304136254	0.05812417437252312
2860.382080078125	-13.5	-34.44641097493379	5.05131797745889	27.6616355976177	27.53107145141622	-13.87885666187018	3536.164102564102	3693.772893772893	0.3973268529769137	0.5486618004866181	0.05548216644649934
2879.913330078125	-14.65384615384616	-33.44815082835499	4.369079879288046	30.52832679745984	11.87493901646003	-17.73755428597326	3568.205128205128	3689.377289377289	0.3997569866342648	0.5450121654501217	0.07133421400264201
2899.444580078125	-16.34615384615385	-32.83415193693416	4.207596846708135	32.6494982098085	6.135112531078	-19.85698059148118	3540.533333333333	3684.981684981685	0.4034021871202916	0.5328467153284672	0.07397622192866579
2918.975830078125	-18.07692307692308	-32.72518014411529	4.335930282687689	32.26370515587541	14.58283071968437	-20.58497200966803	3528.882051282051	3677.655677655677	0.4046172539489671	0.5328467153284672	0.0845442536327609
2938.507080078125	-17.19230769230769	-33.19614922707397	3.922845969082959	32.0695547127036	38.07573431284878	-19.93993820399855	3544.902564102564	3679.120879120879	0.4046172539489671	0.5401459854014599	0.08982826948480846
2958.038330078125	-16.65384615384615	-32.91042834267414	4.482955595245427	33.54718837618416	49.77870283710057	-19.42952159008471	3540.533333333333	3682.051282051282	0.402187120291616	0.5316301703163017	0.1056803170409511
2977.569580078125	-15.88461538461539	-32.58385939520848	6.616046683500646	33.54671391371961	52.11027479002092	-20.22252765654311	3559.466666666666	3680.58608058608	0.4106925880923451	0.5304136253041363	0.107001321003963
2997.100830078125	-15.11538461538462	-32.79079417380058	6.578170228490484	38.00411159126715	49.62774703423224	-20.29192691087647	3536.164102564102	3677.655677655677	0.4082624544349939	0.5364963503649636	0.1030383091149273
3016.632080078125	-15.42307692307692	-32.94251555090226	6.779623698959167	41.95970755641207	44.32658202364422	-21.20082105124604	3525.969230769231	3680.58608058608	0.4155528554070473	0.5352798053527981	0.1268163804491413
3036.163330078125	-15.69230769230769	-33.55459752417318	6.883722362505389	44.53699781841809	35.78000778691993	-22.12838622684559	3536.164102564102	3677.655677655677	0.4155528554070473	0.5231143552311436	0.1334214002642008
3055.694580078125	-15.03846153846154	-32.27729106362013	7.749168565621728	47.58395908746108	30.49812413511982	-23.43616447197239	3537.620512820513	3670.32967032967	0.4216281895504253	0.5291970802919708	0.1387054161162483
3075.225830078125	-15.5	-31.89092042865061	8.122944509453717	51.1327220689067	28.03487773811905	-23.90444783106297	3524.51282051282	3673.260073260073	0.4155528554070473	0.5279805352798054	0.1505944517833553
3094.757080078125	-16.65384615384615	-32.47315544743487	7.61931083328201	52.84175234098861	26.99511034243607	-26.38091539957736	3540.533333333333	3673.260073260073	0.4228432563791008	0.5255474452554745	0.1690885072655218
3114.288330078125	-15.76923076923077	-32.01414978136356	6.861335222023772	53.70328078695164	28.34515983626762	-28.00868325032316	3517.230769230769	3664.468864468864	0.4228432563791008	0.51338199513382	0.1796565389696169
3133.819580078125	-16.42307692307692	-29.27516628687566	7.104468189936565	55.48747054886073	33.41579435465732	-30.01663512928897	3517.230769230769	3658.608058608058	0.4240583232077764	0.5085158150851582	0.1756935270805813
3153.350830078125	-16.34615384615385	-31.00730584467574	9.019138387633184	56.01732550095164	43.7141643761488	-30.73527650920721	3530.338461538461	3655.677655677655	0.4289185905224787	0.4951338199513382	0.1968295904887715
3172.882080078125	-14.88461538461539	-30.4288584713925	9.404462031163392	58.33592214309356	48.82581086629268	-29.89101948011494	3502.666666666666	3655.677655677655	0.4240583232077764	0.5097323600973236	0.1994715984147953
3192.413330078125	-14	-29.9044158403646	9.220792018229968	57.38160458424638	43.21970721893899	-29.93753734100001	3540.533333333333	3658.608058608058	0.4374240583232077	0.4987834549878346	0.225891677675033
3211.944580078125	-14.11538461538462	-30.03531286567716	10.1117971300117	59.12949710565505	32.87703015825834	-28.01762671029029	3533.251282051282	3667.399267399267	0.425273390036452	0.4963503649635037	0.2219286657859974
3231.475830078125	-14.96153846153846	-29.37341411590811	10.55532118002094	60.9600368892775	28.18311625040306	-25.22572839006221	3515.774358974359	3664.468864468864	0.4277035236938031	0.4963503649635037	0.2298546895640687
3251.007080078125	-16.73076923076923	-28.32061803288785	11.60782472131551	60.97984612815364	27.72927020471699	-24.41413841229559	3540.533333333333	3671.794871794872	0.4349939246658566	0.4878345498783455	0.249669749009247
3270.538330078125	-17.11538461538462	-29.51164777976227	11.92854283426741	61.96629439236648	32.88932052194586	-23.14791259584706	3533.251282051282	3673.260073260073	0.4410692588092345	0.4866180048661801	0.2602377807133421
3290.069580078125	-16.96153846153846	-29.41384646178481	12.65386155077909	65.16575425688301	41.22874241315557	-23.91283950619237	3555.097435897435	3673.260073260073	0.4410692588092345	0.4635036496350365	0.2668428005284016
3309.600830078125	-17.73076923076923	-29.5179297283981	14.78110180452054	67.86654094974519	43.48688485858969	-24.32542921397278	3540.533333333333	3670.32967032967	0.4471445929526123	0.4683698296836983	0.2800528401585205
3329.132080078125	-16.61538461538462	-29.77791463940383	15.12650120096077	72.28744869028873	38.6494070031969	-24.82617633523826	3514.317948717948	3668.864468864469	0.4471445929526123	0.4671532846715328	0.3064729194187583
3348.663330078125	-16.07692307692308	-28.72465664839564	15.77129395824352	72.12167970339657	29.68345265046653	-27.36315778073338	3544.902564102564	3664.468864468864	0.4410692588092345	0.4574209245742092	0.3104359313077939
3368.194580078125	-17.53846153846154	-28.1568023649689	15.76319517152183	75.62115681888412	27.18903539122076	-29.46391305101132	3515.774358974359	3661.538461538461	0.4349939246658566	0.4452554744525548	0.3183619550858652
3387.725830078125	-17.26923076923077	-26.94270031409743	16.32732339717928	77.02799022417582	35.5826054311288	-30.2103722152774	3507.035897435897	3655.677655677655	0.4325637910085055	0.4330900243309003	0.3461030383091149
3407.257080078125	-15.26923076923077	-26.83452146332451	16.61068855084067	80.64006569142367	36.89039627971911	-29.82525179615786	3493.928205128205	3658.608058608058	0.4398541919805589	0.4343065693430657	0.3540290620871863
3426.788330078125	-15.96153846153846	-25.7283904046314	15.84259715464679	81.94273744227083	36.35697554470303	-31.06810251693486	3508.492307692307	3655.677655677655	0.44228432563791	0.4124087591240876	0.3685601056803171
3446.319580078125	-16.38461538461539	-26.03487405308863	16.2052411159697	81.44794903979027	35.40827148157672	-32.29713146945969	3524.51282051282	3654.212454212454	0.4434993924665856	0.4002433090024331	0.380449141347424
3465.850830078125	-16	-23.66443924370266	16.52965449282503	81.02178127967939	36.3684641879297	-31.87510459948892	3508.492307692307	3652.747252747252	0.433778857837181	0.3978102189781022	0.3949801849405548
3485.382080078125	-15.5	-23.5311556937858	17.05778468928989	79.28592845879926	35.99214443762571	-29.82069294225255	3512.861538461538	3661.538461538461	0.44228432563791	0.3929440389294404	0.3989431968295905
3504.913330078125	-15.15384615384616	-22.12611627763749	19.53658311264396	77.99557817444162	36.53335788820303	-28.16972424367871	3536.164102564102	3665.934065934066	0.4325637910085055	0.3819951338199514	0.4147952443857332
3524.444580078125	-15.03846153846154	-22.48869095276221	20.2422399458028	79.40430942959154	35.60064011642965	-25.74415914211121	3527.425641025641	3670.32967032967	0.4313487241798298	0.3698296836982968	0.429326287978864
3543.975830078125	-14.42307692307692	-22.47702007760054	20.96638849541171	83.89649189078845	31.74098879246026	-24.19502441873838	3517.230769230769	3670.32967032967	0.4362089914945322	0.3552311435523115	0.4319682959048877
3563.507080078125	-15.30769230769231	-20.70885939520847	21.90450822196219	86.60306120268264	29.80541880886224	-23.01695601577494	3514.317948717948	3673.260073260073	0.4386391251518833	0.3442822384428224	0.4504623513870542
3583.038330078125	-16.46153846153846	-21.87155878548993	23.50101619757344	88.85085758663571	31.60766681466237	-23.42957476486259	3546.358974358974	3676.190476190476	0.4362089914945322	0.3369829683698297	0.4649933949801849
3602.569580078125	-14.65384615384616	-20.6948712816407	22.47433331280409	92.40227464636506	28.21335017960571	-23.49903210181045	3547.815384615385	3676.190476190476	0.4301336573511543	0.3175182481751825	0.4544253632760898
3622.100830078125	-15.46153846153846	-20.22465664839564	22.8482170351666	93.72740971437209	26.29501316084767	-23.5314668226781	3523.05641025641	3671.794871794872	0.425273390036452	0.3090024330900243	0.4848084544253633
3641.632080078125	-15.53846153846154	-18.95134569193816	22.72113075075445	94.61841478741704	28.13007956261029	-24.33835274000317	3507.035897435897	3663.003663003663	0.4301336573511543	0.2980535279805353	0.4821664464993395
3661.163330078125	-15.23076923076923	-17.86195109934101	21.78986265935826	94.20409403133111	31.42963693744487	-24.30121395869396	3508.492307692307	3667.399267399267	0.4204131227217496	0.2871046228710462	0.5033025099075297
3680.694580078125	-14.15384615384616	-16.15883476011578	22.0955841596354	92.90094781801942	34.2946296253813	-23.85136930437536	3540.533333333333	3673.260073260073	0.4106925880923451	0.2639902676399027	0.5006605019815059
3700.225830078125	-12.88461538461539	-16.06081018661083	21.69435548438751	94.27271467370078	33.33853370692417	-22.65015813619838	3528.882051282051	3676.190476190476	0.4191980558930741	0.2408759124087591	0.5363276089828269
3719.757080078125	-13.84615384615385	-14.11098109256636	21.31828539754881	91.6084179178426	33.43534136109416	-21.80622056148585	3546.358974358974	3680.58608058608	0.4204131227217496	0.2420924574209246	0.5336856010568032
3739.288330078125	-13.42307692307692	-13.60279762271356	22.40911190490854	88.98326517727216	34.95602887681238	-20.13210909769847	3543.446153846154	3683.516483516483	0.4277035236938031	0.2250608272506083	0.5389696169088507
3758.819580078125	-12.92307692307692	-12.45639588593952	22.28133275851451	87.25177158803038	37.38071255623731	-18.86605752909344	3536.164102564102	3680.58608058608	0.4046172539489671	0.2165450121654501	0.5482166446499339
3778.350830078125	-11.80769230769231	-12.21059155016321	22.33726981585268	86.3532787425988	36.00728491572202	-18.46264361173815	3544.902564102564	3686.446886446886	0.3997569866342648	0.2019464720194647	0.5521796565389696
3797.882080078125	-12.34615384615385	-11.04900073905278	24.4115754141775	88.1613552090614	32.69828729160869	-16.88116129141942	3536.164102564102	3684.981684981685	0.3900364520048603	0.1715328467153285	0.5640686922060766
3817.413330078125	-12.34615384615385	-9.886532302765287	23.98046129211061	87.70618528433313	30.84189113711024	-16.487010288411	3562.379487179487	3693.772893772893	0.3948967193195626	0.1776155717761557	0.5693527080581242
3836.944580078125	-12.69230769230769	-9.781132598386401	24.82586068855084	86.39602576109934	31.83695063337363	-15.64763156760379	3555.097435897435	3687.912087912088	0.3876063183475091	0.1557177615571776	0.5733157199471598
3856.475830078125	-12.69230769230769	-9.176033134199667	25.34011824844491	86.85384976411133	32.76227654981619	-15.64295654846948	3534.707692307692	3686.446886446886	0.3876063183475091	0.1496350364963504	0.5746367239101717
3876.007080078125	-11.42307692307692	-8.49446480261132	24.60785551518138	85.57003832721124	37.50499514498691	-15.17452798284265	3553.641025641025	3693.772893772893	0.3742405832320777	0.1435523114355231	0.5825627476882431
3895.538330078125	-11.23076923076923	-6.334236620065283	24.09644638787954	84.23788994928214	37.5533989720719	-14.75255919548639	3543.446153846154	3692.307692307692	0.3669501822600243	0.110705596107056	0.5970937912813739
3915.069580078125	-11.11538461538462	-5.838432284288969	24.19084498367925	82.93739781425414	39.48732142195244	-13.90388851902506	3558.010256410256	3695.238095238095	0.370595382746051	0.110705596107056	0.5997357992073976
3934.600830078125	-10.11538461538462	-4.119934409065714	23.80441276097801	82.07008674925913	42.33098435715304	-13.8667787790231	3559.466666666666	3695.238095238095	0.3523693803159174	0.09245742092457421	0.6089828269484808
3954.132080078125	-9.576923076923077	-4.790363059678512	24.09507606084868	81.18656944860079	40.0342791941431	-12.65642086172825	3543.446153846154	3696.703296703297	0.3499392466585662	0.08515815085158152	0.6169088507265522
3973.663330078125	-8.884615384615385	-3.626216357701546	24.81081788507729	79.91072024655185	41.98378707514613	-10.99151422967324	3474.994871794872	3600	0.3511543134872417	0.06447688564476886	0.6103038309114928
3993.194580078125	-8.846153846153847	-3.360611566176018	24.95365523187781	78.5983811074989	41.57834485654505	-9.757955464550353	3472.082051282051	3600	0.3341433778857837	0.04744525547445256	0.6103038309114928
4012.725830078125	-7.384615384615385	-1.816006651475026	23.18494795836669	77.27154088613725	39.76460820751827	-8.538334632908637	3464.8	3604.395604395604	0.3268529769137302	0.03527980535279805	0.618229854689564
4032.257080078125	-7.884615384615385	-1.558208104945495	24.25655909342859	75.02639858046788	37.03128996366225	-7.726889861678259	3488.102564102564	3605.860805860806	0.3183475091130012	0.02676399026763991	0.6261558784676354
4051.788330078125	-8	0.07461353698343282	23.50009238159759	74.09890357041893	32.84127346229552	-7.351351811285315	3489.558974358974	3605.860805860806	0.3280680437424058	0.01824817518248175	0.6142668428005285
4071.319580078125	-7.26923076923077	-0.09614614768738067	23.61499969206134	72.75490818846487	30.55031262089892	-6.544494935267496	3501.210256410256	3613.186813186813	0.3061968408262454	0.007299270072992701	0.6354029062087186
4090.850830078125	-7.192307692307693	1.672976843012872	23.5434655416641	73.21851481050886	27.28192610830934	-4.949161805389341	3469.169230769231	3611.721611721612	0.3110571081409477	-0.02068126520681265	0.6261558784676354
4110.382080078125	-6.730769230769231	2.845545667303074	24.06887048100019	70.99488689707027	27.82683548655207	-4.513313167166405	3472.082051282051	3614.652014652014	0.3025516403402187	-0.01338199513381995	0.6235138705416117
4129.913330078125	-7.038461538461539	2.6522525712878	24.42583297407157	69.66709775077952	30.676242743366	-4.879704468441481	3495.384615384615	3619.047619047619	0.3049817739975698	-0.03771289537712896	0.6287978863936592
4149.444580078125	-5.884615384615385	3.179058631520601	23.85476073166225	70.52957512167164	27.36314833135683	-4.921460186270494	3472.082051282051	3616.117216117216	0.2964763061968408	-0.03892944038929441	0.6287978863936592
4168.975830078125	-5.115384615384616	3.734272033011024	24.17101373406418	69.56729532797331	24.55025539817081	-6.164456113583738	3474.994871794872	3611.721611721612	0.2867557715674362	-0.04987834549878346	0.6274768824306473
4188.507080078125	-4.846153846153847	4.323258606885508	23.29860811726304	69.47185213680544	21.22527148270456	-8.237567847357335	3489.558974358974	3605.860805860806	0.2818955042527339	-0.06690997566909976	0.6235138705416117
4208.038330078125	-5.038461538461538	5.966842704933177	24.00401859949498	68.56103782488434	19.84405112662801	-8.242271907798889	3483.733333333333	3602.930402930403	0.2794653705953827	-0.06934306569343066	0.6301188903566711
4227.569580078125	-5.538461538461538	6.875161667795775	25.24191661021125	67.23855683516104	20.83131790733015	-7.811011164788512	3492.471794871794	3608.791208791209	0.2782503037667071	-0.08759124087591241	0.631439894319683
4247.100830078125	-6.115384615384616	7.861219745026791	24.59285890250662	65.97237502131789	23.71968874195033	-6.136812577079389	3479.364102564102	3613.186813186813	0.2733900364520048	-0.09732360097323602	0.6287978863936592
4266.632080078125	-4.653846153846154	8.325729814620926	24.90581696126132	65.58800535477846	25.17269107179563	-4.485785795891052	3467.71282051282	3613.186813186813	0.2612393681652491	-0.110705596107056	0.6261558784676354
4286.163330078125	-3.807692307692308	8.697735111165857	24.69016751863029	64.69169212516606	25.1997651461448	-4.476551922851436	3492.471794871794	3617.582417582417	0.2660996354799514	-0.1094890510948905	0.6340819022457067
4305.694580078125	-3.076923076923077	8.173615815729507	25.16536305967851	65.56165726844479	21.42503197288831	-4.114835640710666	3470.625641025641	3614.652014652014	0.25273390036452	-0.1399026763990268	0.6274768824306473
4325.225830078125	-3.576923076923077	9.609279731477489	25.03601342612551	65.10383326543278	20.49970605644575	-4.119510659844972	3474.994871794872	3616.117216117216	0.2575941676792223	-0.1411192214111922	0.6274768824306473
4344.757080078125	-3.76923076923077	10.28901582804705	25.85690090533966	64.6824991994248	21.9293302396073	-3.692837812047154	3488.102564102564	3620.51282051282	0.2454434993924666	-0.1435523114355231	0.6208718626155878
4364.288330078125	-3.730769230769231	10.15430036336762	24.86190490854222	64.27566621572549	24.76724885319456	-3.252227030768166	3492.471794871794	3621.978021978022	0.2478736330498177	-0.1545012165450122	0.6169088507265522
4383.819580078125	-2.961538461538462	11.21607285828663	24.85020323951469	63.85698622800123	25.26580279830022	-2.426728160827622	3498.297435897436	3620.51282051282	0.2393681652490887	-0.1751824817518248	0.6142668428005285
4403.350830078125	-2.769230769230769	11.30002463509269	24.30646055305783	64.32447761921901	27.12999166835992	-2.412761186039203	3496.841025641026	3620.51282051282	0.2345078979343864	-0.1690997566909976	0.6103038309114928
4422.882080078125	-2.192307692307693	12.60580002463509	23.82538338362998	65.21643161719307	24.30191416428183	-1.63363497044748	3482.276923076923	3623.443223443223	0.221142162818955	-0.1800486618004866	0.6129458388375165
4442.413330078125	-3.5	13.01432684609226	23.93750384923323	64.29064176049873	23.84397133069992	-2.4452830308286	3496.841025641026	3620.51282051282	0.2162818955042527	-0.194647201946472	0.6155878467635403
4461.944580078125	-1.769230769230769	12.76524296360165	23.12246720453286	64.75064537932991	26.16979896200694	-2.834788056009964	3492.471794871794	3619.047619047619	0.2174969623329283	-0.2055961070559611	0.6036988110964333
4481.475830078125	-1.538461538461539	14.53285705487467	22.97253187165117	64.7902638570822	25.26210687063481	-1.211608100476719	3482.276923076923	3624.908424908425	0.2308626974483596	-0.208029197080292	0.607661822985469
4501.007080078125	-2.153846153846154	14.8114183654616	21.19831249615077	63.84513922397625	22.92643812981861	-2.041840072166066	3496.841025641026	3624.908424908425	0.2150668286755771	-0.2201946472019465	0.6023778071334214
4520.538330078125	-1.576923076923077	14.9785905647595	21.87816406971731	64.75595353589736	24.30765848589516	-2.037136011724511	3492.471794871794	3623.443223443223	0.2053462940461725	-0.2299270072992701	0.5944517833553501
4540.069580078125	-1.346153846153846	16.17651813758699	21.36640081295806	64.27396106237087	21.03517518540974	-2.065040919994101	3499.753846153846	3624.908424908425	0.2029161603888214	-0.2481751824817518	0.607661822985469
4559.600830078125	-0.9615384615384616	16.62695541048223	21.53684486050378	63.36798044455267	20.12338630614176	-2.065099002608599	3499.753846153846	3623.443223443223	0.1907654921020656	-0.2481751824817518	0.5878467635402906
4579.132080078125	-1.192307692307692	17.63232894007514	21.49893761162776	63.4071244598404	21.54726616768998	-1.234925113533749	3477.907692307692	3623.443223443223	0.2004860267314702	-0.2591240875912409	0.583883751651255
4598.663330078125	-0.1538461538461539	17.58326661329063	20.99051548931453	62.91982382974647	20.13692334331634	-2.060482066088791	3495.384615384615	3624.908424908425	0.1834750911300122	-0.2652068126520681	0.5772787318361955
4618.194580078125	-0.3461538461538462	18.65100541972039	19.71895978321118	62.44749874442578	17.80330299644807	-2.079095018704267	3489.558974358974	3624.908424908425	0.1980558930741191	-0.281021897810219	0.5825627476882431
4637.725830078125	-0.1923076923076923	18.0343890497013	19.62670136108887	62.01384321192826	19.22513446404837	-2.060540148703288	3482.276923076923	3624.908424908425	0.1883353584447144	-0.2822384428223844	0.5746367239101717
4657.257080078125	0.3461538461538462	19.15693323889881	18.73026113198251	61.09288704933682	19.23662310727503	-2.867542231257352	3483.733333333333	3621.978021978022	0.1871202916160389	-0.2822384428223844	0.5746367239101717
4676.788330078125	-0.1923076923076923	20.07987158957936	19.27565129026298	58.84727028120292	18.83487681633937	-2.84910352648537	3483.733333333333	3621.978021978022	0.1798298906439854	-0.294403892944039	0.571994715984148
4696.319580078125	-0.6538461538461539	20.62944971361705	19.18136047299378	57.57047215422487	25.44752860318312	-2.770209027347152	3492.471794871794	3621.978021978022	0.1701093560145808	-0.3138686131386861	0.5627476882430648
4715.850830078125	0.7307692307692308	21.98003787645501	19.49810617724949	57.1662932488093	27.35437697871449	-1.930772223925438	3472.082051282051	3620.51282051282	0.1725394896719319	-0.3284671532846715	0.5640686922060766
4735.382080078125	0.4230769230769231	21.36101958489869	19.98748229352713	56.33547212081828	32.55299001351919	-1.462314616991358	3473.538461538461	3620.51282051282	0.1701093560145808	-0.3272506082725061	0.5535006605019816
4754.913330078125	0.8461538461538463	20.06776190182915	20.76575106238837	56.40845199482629	37.26289021272741	-0.5996188831271112	3498.297435897436	3623.443223443223	0.1603888213851762	-0.3272506082725061	0.5455746367239102
4774.444580078125	2.769230769230769	21.15209090349203	20.39545482539878	59.10705907186929	38.12053094329706	-0.6180285465918447	3495.384615384615	3626.373626373626	0.157958687727825	-0.3503649635036497	0.5561426684280053
4793.975830078125	2.5	21.86183562234403	19.79283426741393	60.48678816240183	34.37122431067225	1.779660688013316	3489.558974358974	3629.304029304029	0.1506682867557715	-0.3515815085158151	0.5495376486129459
4813.507080078125	2.769230769230769	22.09823243209953	19.24222454886986	61.77012513683739	31.96007766842189	0.5182260559280897	3502.666666666666	3629.304029304029	0.1470230862697448	-0.3600973236009732	0.5323645970937913
4833.038330078125	3.115384615384615	22.8196480261132	17.44067561741701	63.11023574961766	29.11846312716921	1.292735335000005	3499.753846153846	3626.373626373626	0.1409477521263669	-0.3746958637469586	0.5336856010568032
4852.569580078125	3.5	23.27316468559463	17.45715033565314	65.35680144268066	24.85706551226416	2.860308763144814	3498.297435897436	3630.769230769231	0.1458080194410693	-0.3673965936739659	0.5310435931307794
4872.100830078125	2.923076923076923	23.59176572026852	15.56556014042003	65.76410888884452	19.68757494575655	3.212704048324222	3504.123076923077	3633.699633699634	0.1324422843256379	-0.391727493917275	0.5099075297225891
4891.632080078125	2.461538461538462	23.67943585637741	15.48974564266798	66.6442158827936	14.52013277319685	4.376718352577501	3473.538461538461	3633.699633699634	0.12636695018226	-0.391727493917275	0.5217965653896962
4911.163330078125	3.038461538461539	24.91361550779085	14.74230153353452	65.26325610137099	12.20579378511649	3.959221295204801	3505.579487179487	3633.699633699634	0.1275820170109356	-0.4087591240875912	0.5059445178335535
4930.694580078125	2.769230769230769	25.99827554351174	14.62468436287491	64.77908401202532	7.532808769766604	4.325496431250882	3511.405128205128	3641.025641025641	0.12636695018226	-0.4087591240875912	0.5059445178335535
4950.225830078125	1.384615384615385	25.61076553550533	14.2309539939644	63.44210193999334	7.11178112004303	4.742819240780088	3491.015384615384	3635.164835164835	0.12636695018226	-0.413625304136253	0.4887714663143989
4969.757080078125	1.076923076923077	27.09727782225781	13.28995504095584	62.13364757011419	11.83891428409124	4.395011850813239	3509.948717948718	3635.164835164835	0.1324422843256379	-0.4294403892944039	0.4861294583883752
4989.288330078125	1.346153846153846	27.56077939274497	12.9225688242902	61.74832897864565	17.95506051977726	4.460026499084784	3505.579487179487	3638.095238095238	0.1202916160388821	-0.4257907542579076	0.47556142668428
5008.819580078125	0.1153846153846154	28.06324290201392	12.10708566853483	59.98157614328996	24.08843972030326	3.314538023525234	3508.492307692307	3635.164835164835	0.1300121506682868	-0.4452554744525548	0.4795244385733157
5028.350830078125	1.192307692307692	28.36523834452177	11.31500585083451	59.11161100001121	27.86317289355975	2.952821741384465	3498.297435897436	3632.234432234432	0.117861482381531	-0.4379562043795621	0.4729194187582563
5047.882080078125	2.730769230769231	28.29779977828417	11.22539570117633	57.79130962610709	30.25094138912635	2.989902440079172	3486.646153846154	3630.769230769231	0.1105710814094775	-0.4574209245742092	0.4663143989431968
5067.413330078125	2.038461538461539	29.24996150766767	10.46346307815483	56.88968823992724	32.1401559395873	2.201484268833335	3505.579487179487	3632.234432234432	0.1069258809234508	-0.462287104622871	0.451783355350066
5086.944580078125	2.769230769230769	29.69969822011456	10.32278130196465	56.42703054281235	30.74539854633617	2.192163271871972	3493.928205128205	3632.234432234432	0.1130012150668287	-0.4695863746958638	0.4464993394980185
5106.475830078125	3.461538461538462	30.31648395639589	9.560417564821089	55.53555100730284	31.2419040974939	2.206043122738645	3486.646153846154	3627.838827838828	0.1032806804374241	-0.4732360097323601	0.4385733157199472
5126.007080078125	4.230769230769231	30.28738375315637	8.323120034489129	52.8910634903208	30.88486570597783	3.861570675217794	3493.928205128205	3632.234432234432	0.1081409477521264	-0.4829683698296837	0.4319682959048877
5145.538330078125	4.269230769230769	30.55914731785428	8.158018722670445	51.54706810836674	28.59390486458122	4.668427551235613	3496.841025641026	3630.769230769231	0.09477521263669501	-0.5048661800486618	0.4319682959048877
5165.069580078125	3.192307692307693	31.50199390281456	8.246458705425878	49.3507372061909	28.22332943589056	6.319338167194955	3505.579487179487	3642.490842490842	0.1008505467800729	-0.4963503649635037	0.4214002642007926
5184.600830078125	3.576923076923077	29.12324474964587	7.568531748475703	48.91490205787422	28.2446591886264	6.732073081511603	3511.405128205128	3638.095238095238	0.09599027946537059	-0.5	0.4227212681638045
5204.132080078125	3.923076923076923	31.64841103652153	7.887140481616062	48.00456220841767	24.53186687962949	7.520375087528444	3491.015384615384	3638.095238095238	0.09599027946537059	-0.5072992700729927	0.4108322324966975
5223.663330078125	3.692307692307693	32.25962308308185	6.403461230522879	46.19961428270334	24.57822231276657	7.130724855810835	3515.774358974359	3641.025641025641	0.09356014580801943	-0.5121654501216545	0.4095112285336856
5243.194580078125	3.461538461538462	32.03401182484449	6.376331834698528	44.89210883775328	24.64221157097407	8.368929598760778	3505.579487179487	3643.956043956044	0.08869987849331712	-0.5218978102189781	0.3963011889035667
5262.725830078125	4.269230769230769	32.47606546775883	6.542880458212724	44.5120984028522	28.8962173305483	9.231596291317775	3496.841025641026	3643.956043956044	0.09599027946537059	-0.5145985401459854	0.3896961690885073
5282.257080078125	4.461538461538462	31.47222393299255	6.542649504218759	44.04678662745357	28.43253017535306	8.823449272213686	3511.405128205128	3645.421245421245	0.08262454434993924	-0.5304136253041363	0.3778071334214003
5301.788330078125	5.807692307692308	32.44096046067624	6.759669273880643	44.42461744653549	22.77802270091437	8.354962623972359	3514.317948717948	3643.956043956044	0.08140947752126367	-0.537712895377129	0.3830911492734478
5321.319580078125	5.038461538461538	32.65790324567346	6.2971454086346	44.84159228090513	18.54739508802389	8.716649864805879	3514.317948717948	3645.421245421245	0.08262454434993924	-0.5364963503649636	0.3685601056803171
5340.850830078125	4.076923076923078	33.16734926402661	4.863306029438935	45.75771474939367	18.06647496798866	9.519005969532886	3523.05641025641	3649.81684981685	0.0850546780072904	-0.5364963503649636	0.3619550858652576
5360.382080078125	4.269230769230769	32.80402013918828	5.529762271355546	46.70596792324788	17.13950151782861	11.54107002982336	3498.297435897436	3651.282051282051	0.08869987849331712	-0.5401459854014599	0.3593130779392338
5379.913330078125	4.653846153846154	33.60011855638357	5.724841411590812	47.59479338047367	17.57406620472676	11.12836415681396	3520.14358974359	3651.282051282051	0.0850546780072904	-0.5571776155717761	0.357992073976222
5399.444580078125	4.653846153846154	34.54549023834453	4.610103467389296	48.48191368434483	14.2765572238401	11.90284439457862	3514.317948717948	3654.212454212454	0.08626974483596597	-0.551094890510949	0.3408190224570674
5418.975830078125	4.961538461538462	33.2860827123237	5.734325922276283	49.77804658773445	9.541631344230638	11.84253380674863	3514.317948717948	3655.677655677655	0.09234507897934385	-0.5547445255474452	0.3262879788639366
5438.507080078125	3.961538461538462	34.25819886678573	4.282364353020878	51.58299451344878	9.495275911093559	12.23218403846624	3525.969230769231	3652.747252747252	0.09234507897934385	-0.5681265206812652	0.3249669749009247
5458.038330078125	4.807692307692308	33.40537814867278	3.769554104822319	53.82159797166062	8.027089010356185	12.60327940018287	3514.317948717948	3657.142857142857	0.09477521263669501	-0.5754257907542579	0.3262879788639366
5477.569580078125	4	33.86943400874545	2.528299562727105	56.46485479775259	2.320481781167085	12.92794402493619	3523.05641025641	3657.142857142857	0.08748481166464155	-0.5802919708029197	0.2998678996036988
5497.100830078125	3.076923076923077	34.41968959783211	0.938597031471331	58.1968228494589	-2.435773851178211	12.45489852278955	3518.687179487179	3655.677655677655	0.08869987849331712	-0.5912408759124088	0.2972258916776751
5516.632080078125	3.26923076923077	34.60603097862906	1.044604914700992	58.15331960253283	-6.660657142455354	12.41308472234604	3507.035897435897	3657.142857142857	0.1020656136087485	-0.5790754257907543	0.2892998678996037
5536.163330078125	2.153846153846154	36.42880458212725	-0.5171521832850897	56.3387042886127	-7.55316466293542	12.01414253497431	3520.14358974359	3652.747252747252	0.09477521263669501	-0.5997566909975669	0.2800528401585205
5555.694580078125	2.384615384615385	36.57512163577015	-0.3714664038923445	54.15592554381646	-1.85230175535965	12.09297895149803	3504.123076923077	3649.81684981685	0.09477521263669501	-0.5961070559610706	0.2760898282694848
5575.225830078125	1.961538461538462	35.19008283549917	-1.850295621112275	52.41646971972352	3.365592638232965	12.16255245367489	3514.317948717948	3654.212454212454	0.09963547995139732	-0.5985401459854015	0.261558784676354
5594.757080078125	0.1153846153846154	36.26518907433639	-1.836376793742687	51.13047866700423	6.707809518539215	13.02516106361739	3496.841025641026	3654.212454212454	0.1044957472660996	-0.5948905109489051	0.2523117569352708
5614.288330078125	0.6538461538461539	36.16367709552257	-3.06847016074398	50.2776686843179	10.95976688416553	13.07620873710052	3527.425641025641	3660.07326007326	0.1032806804374241	-0.6021897810218978	0.2391017173051519
5633.819580078125	1.538461538461539	36.87981154154092	-3.221346307815483	48.44466751891528	3.526389550610462	14.24469477133736	3530.338461538461	3660.07326007326	0.1032806804374241	-0.6192214111922141	0.2311756935270806
5653.350830078125	0.8846153846153847	36.91740315329187	-4.44708074151629	48.8176646438943	-2.597549400636802	13.77156214526897	3511.405128205128	3654.212454212454	0.1020656136087485	-0.6265206812652069	0.2192866578599736
5672.882080078125	0.2692307692307693	37.40074367186057	-4.921798977643654	46.86675697016396	-11.97099436591616	11.65652044582287	3507.035897435897	3652.747252747252	0.1044957472660996	-0.6192214111922141	0.2034346103038309
5692.413330078125	-1.538461538461539	37.06395885939521	-5.505635277452731	41.78434291531862	-12.38503102053934	6.805245036151623	3520.14358974359	3643.956043956044	0.1057108140947752	-0.6253041362530414	0.202113606340819
5711.944580078125	-0.8076923076923077	36.67764211369095	-6.151336453778407	41.83125646895395	-0.696000393692561	4.472686615047003	3495.384615384615	3627.838827838828	0.1130012150668287	-0.6301703163017032	0.1994715984147953
5731.475830078125	-0.2307692307692308	37.97494919012133	-6.208997967604853	39.14525262436143	9.180941117844926	1.333009946159324	3485.189743589744	3630.769230769231	0.1093560145808019	-0.648418491484185	0.1889035667107001
5751.007080078125	0.3076923076923077	37.43308492948205	-6.577323397179282	36.55516643340134	20.05129459192832	1.059451077503637	3469.169230769231	3620.51282051282	0.1166464155528554	-0.6301703163017032	0.1717305151915456
5770.538330078125	3.038461538461539	38.35513795651906	-7.333820902876147	34.72121634306963	17.28106116421396	0.641924978823688	3489.558974358974	3627.838827838828	0.09963547995139732	-0.6374695863746959	0.1677675033025099
5790.069580078125	2.269230769230769	38.96778191784196	-8.350634353636757	31.91626799576288	6.095927943855738	0.5581231300931734	3489.558974358974	3626.373626373626	0.1190765492102066	-0.6374695863746959	0.1571994715984148
5809.600830078125	1.653846153846154	37.97917564821088	-8.304936256697665	28.36267132021436	8.089742864047933	1.021760511356703	3501.210256410256	3623.443223443223	0.1117861482381531	-0.6386861313868614	0.1585204755614267
5829.132080078125	1.884615384615385	39.40574767506313	-8.710460676233295	24.82452465190364	6.828708308825132	3.085347959018194	3488.102564102564	3632.234432234432	0.1105710814094775	-0.6447688564476886	0.1492734478203435
5848.663330078125	2.230769230769231	38.94929789985835	-9.311048839071257	21.32286792059692	7.92262385320644	5.580283273611808	3509.948717948718	3639.560439560439	0.1130012150668287	-0.6374695863746959	0.1347424042272127
5868.194580078125	0.4615384615384616	38.89582435178912	-8.714294512533103	19.97233369118534	1.430157867216442	7.569680282576637	3492.471794871794	3633.699633699634	0.1117861482381531	-0.6459854014598541	0.1479524438573316
5887.725830078125	1.153846153846154	38.76585884091889	-8.677557430559833	18.58170652155693	-1.823044074481064	7.142891269549823	3502.666666666666	3643.956043956044	0.117861482381531	-0.648418491484185	0.1347424042272127
5907.257080078125	0.4230769230769231	38.43544835868696	-8.73395639588594	16.25780172284757	-5.072550088513158	5.500982196172106	3495.384615384615	3635.164835164835	0.1142162818955042	-0.6532846715328468	0.1413474240422721
5926.788330078125	-0.8076923076923077	38.68155293465541	-10.19303134815545	14.41494047273559	-0.3864288962191239	2.300965898147187	3507.035897435897	3629.304029304029	0.1227217496962333	-0.6447688564476886	0.1321003963011889
5946.319580078125	-0.1153846153846154	39.62090441584036	-9.775990022787461	11.26722785595728	3.432611316226519	0.7379803652149372	3518.687179487179	3630.769230769231	0.1227217496962333	-0.6496350364963504	0.1241743725231176
5965.850830078125	0.7307692307692308	38.68340056660713	-9.900797561125824	9.890627306173016	3.919275757875083	-0.4678767807891017	3492.471794871794	3623.443223443223	0.1154313487241798	-0.6459854014598541	0.1241743725231176
5985.382080078125	0.1538461538461539	39.27529716080557	-10.07255034797068	5.830395224118982	2.625021946459358	-0.848380263388841	3477.907692307692	3624.908424908425	0.1227217496962333	-0.6557177615571777	0.1281373844121533
6004.913330078125	-0.8461538461538463	38.60763995812035	-10.30507482909404	2.2649515445455	2.279472198169946	0.0001452065362444674	3499.753846153846	3627.838827838828	0.1190765492102066	-0.6532846715328468	0.1294583883751651
6024.444580078125	1	39.26006959413685	-10.15732586068855	0.4696710070369668	3.264690584924167	-0.3802130695272504	3489.558974358974	3621.978021978022	0.1215066828675577	-0.648418491484185	0.11889035667107
6043.975830078125	0.8846153846153847	39.17382367432408	-9.575799100819117	-2.732917398227841	-1.812089115309295	-0.8071182477830593	3486.646153846154	3624.908424908425	0.1202916160388821	-0.6581508515815085	0.11889035667107
6063.507080078125	-0.1923076923076923	40.2952746812835	-8.802195602635955	-3.636718400226866	-1.323376279712811	-1.201356374713227	3466.25641025641	3619.047619047619	0.1215066828675577	-0.6532846715328468	0.1281373844121533
6083.038330078125	0.4615384615384616	39.24302518938228	-8.766644084498367	-5.873142242619529	1.545312335889028	-1.966631780745526	3496.841025641026	3617.582417582417	0.1239368165249089	-0.6435523114355232	0.1215323645970938
6102.569580078125	-0.07692307692307693	39.02966988975796	-9.098879103282625	-7.218086549502685	3.91749540033313	-2.745787037644499	3488.102564102564	3620.51282051282	0.1336573511543135	-0.6508515815085159	0.1281373844121533
6122.100830078125	0.7692307692307693	39.17841965880397	-7.767136786352159	-9.965979492503767	3.028683807518475	-4.359849285367123	3492.471794871794	3614.652014652014	0.1227217496962333	-0.6411192214111923	0.1268163804491413
6141.632080078125	0.8846153846153847	37.66261470715034	-7.092273819055244	-10.04597267643385	-3.551149583362779	-4.833010952742757	3467.71282051282	3613.186813186813	0.1239368165249089	-0.6435523114355232	0.130779392338177
6161.163330078125	1.923076923076923	36.88681714602451	-7.802395762764057	-11.07905272832102	-9.673441000892552	-7.332882658235919	3491.015384615384	3608.791208791209	0.1215066828675577	-0.6532846715328468	0.1294583883751651
6180.694580078125	-0.2692307692307693	38.24284812465357	-8.027021617293835	-10.18055988288945	-8.300013360377253	-7.736296575591203	3470.625641025641	3605.860805860806	0.1130012150668287	-0.6532846715328468	0.1400264200792603
6200.225830078125	-0.03846153846153846	38.88956549855269	-7.901351850711338	-11.44020284927507	-1.210137381163682	-7.244638120829089	3469.169230769231	3602.930402930403	0.1154313487241798	-0.6472019464720195	0.1347424042272127
6219.757080078125	2.115384615384615	38.51123206257314	-6.523141590195233	-13.60317235519518	4.036879480726019	-6.354211726538746	3456.061538461538	3610.25641025641	0.12636695018226	-0.6447688564476886	0.1387054161162483
6239.288330078125	2.5	39.32272741269939	-7.097909096507975	-16.34575714162882	1.285927411799581	-7.170621929975919	3482.276923076923	3605.860805860806	0.1130012150668287	-0.6447688564476886	0.1492734478203435
6258.819580078125	1.653846153846154	38.65356131058694	-5.485757837038862	-19.07867453985665	-0.5261617035097146	-7.977740177758978	3501.210256410256	3607.326007326007	0.1105710814094775	-0.6545012165450121	0.142668428005284
6278.350830078125	2.076923076923077	38.14323766705672	-5.392652583605346	-17.25126329698247	-1.957433420388753	-6.377673946132021	3464.8	3611.721611721612	0.1227217496962333	-0.6386861313868614	0.1439894319682959
6297.882080078125	3.384615384615385	37.58228120958306	-5.575598940691014	-15.426506132392	-2.4576348992119	-5.17643373664779	3466.25641025641	3610.25641025641	0.1081409477521264	-0.6362530413625305	0.1479524438573316
6317.413330078125	2.115384615384615	38.6967651043912	-6.18440906571411	-14.10355068020416	-5.776473632834396	-4.814688413199771	3489.558974358974	3614.652014652014	0.1130012150668287	-0.6472019464720195	0.1585204755614267
6336.944580078125	2.653846153846154	38.28500492701853	-5.36563096631151	-14.58990238536899	-11.84996036304874	-4.054233232838021	3476.451282051281	3614.652014652014	0.1130012150668287	-0.6411192214111923	0.1611624834874505
6356.475830078125	1.692307692307693	37.92298454147934	-5.53384245858225	-16.89134386691849	-16.4843826608228	-4.485726306306389	3480.820512820513	3614.652014652014	0.1202916160388821	-0.6423357664233577	0.1558784676354029
6376.007080078125	0.6923076923076923	38.35312865677157	-6.81027899242471	-20.00863093168578	-16.84346944628679	-3.641817772901112	3485.189743589744	3614.652014652014	0.1081409477521264	-0.6411192214111923	0.1796565389696169
6395.538330078125	0.8846153846153847	37.88433054135616	-6.639603990885016	-23.08772290609442	-11.11553246436186	-3.553747483337776	3489.558974358974	3617.582417582417	0.1130012150668287	-0.6386861313868614	0.1704095112285337
6415.069580078125	0.9615384615384616	37.00287152799162	-6.874345630350434	-26.2059588957908	-6.811475343985139	-4.295851082849289	3507.035897435897	3617.582417582417	0.1227217496962333	-0.635036496350365	0.1809775429326288
6434.600830078125	0.8846153846153847	37.32157264272957	-5.424785982632259	-25.74548081449508	-6.81721966559847	-3.892350041572258	3472.082051282051	3616.117216117216	0.1130012150668287	-0.6508515815085159	0.1796565389696169
6454.132080078125	2.461538461538462	36.86767875839133	-5.460860996489499	-23.60232054745111	-11.6103904818021	-5.594366413629223	3472.082051282051	3611.721611721612	0.1105710814094775	-0.635036496350365	0.1849405548216645
6473.663330078125	1.115384615384615	38.00909188889573	-5.416132906325061	-25.06061943452009	-21.43563309881961	-6.086199116234831	3482.276923076923	3608.791208791209	0.1130012150668287	-0.6265206812652069	0.190224570673712
6493.194580078125	-0.4230769230769231	38.21895208474471	-4.755296544928251	-30.39016187116554	-16.57887388463891	-5.984336099726569	3486.646153846154	3614.652014652014	0.1166464155528554	-0.6338199513381996	0.1862615587846764
6512.725830078125	-0.4230769230769231	38.56692276898442	-4.846138449220915	-36.14852614620561	-9.830851726049335	-5.859272235390273	3467.71282051282	3610.25641025641	0.1130012150668287	-0.6265206812652069	0.2100396301188904
6532.257080078125	-0.3461538461538462	36.83940229106362	-3.162422245488699	-40.62886160337755	-3.63183573359834	-7.793295047424655	3486.646153846154	3605.860805860806	0.1142162818955042	-0.6204379562043796	0.2285336856010568
6551.788330078125	0.2307692307692308	36.20362443801195	-0.7966065159820164	-40.17729468186211	3.818774564796715	-10.17228420549259	3477.907692307692	3598.534798534799	0.1215066828675577	-0.6180048661800487	0.225891677675033
6571.319580078125	2.307692307692308	35.54967050563528	-0.9450637433023342	-37.1083445581238	-0.516453417825007	-11.06265251716844	3486.646153846154	3598.534798534799	0.1154313487241798	-0.6143552311435523	0.23778071334214
6590.850830078125	2.538461538461539	36.52742193755004	-0.06340456980969389	-36.74937405298893	-10.38025875241834	-10.7567170102596	3474.994871794872	3600	0.1130012150668287	-0.6119221411192214	0.2338177014531044
6610.382080078125	1.807692307692308	36.58116493194555	-0.09670813573936066	-35.41627675013073	-15.09180648534405	-9.592673664699071	3451.692307692307	3598.534798534799	0.1202916160388821	-0.6034063260340633	0.249669749009247
6629.913330078125	1.923076923076923	36.11158157295067	0.1901521216973579	-38.16199007731265	-14.58011636329424	-11.60091595673737	3474.994871794872	3594.139194139194	0.117861482381531	-0.6009732360097324	0.2668428005284016
6649.444580078125	0.576923076923077	36.67483987189752	0.2964679435856377	-39.06048292274423	-15.95354400380954	-11.19750203938208	3447.323076923077	3592.673992673992	0.1190765492102066	-0.6167883211678832	0.2681638044914135
6668.975830078125	0.3076923076923077	35.97037630104083	1.173492640266059	-40.32277996741357	-7.932597786540076	-11.10466960676269	3470.625641025641	3597.069597069597	0.1154313487241798	-0.597323600973236	0.2826948480845443
6688.507080078125	2.038461538461539	35.8490869618772	1.661036521524912	-39.83860787806792	-3.259612771190194	-11.47094474280877	3470.625641025641	3592.673992673992	0.1020656136087485	-0.597323600973236	0.2826948480845443
6708.038330078125	1.769230769230769	35.35171213894193	1.799008437519246	-38.5644638293736	-8.941194319978051	-11.94866526408972	3552.184615384615	3698.168498168498	0.1032806804374241	-0.5875912408759124	0.2760898282694848
6727.569580078125	1.307692307692308	35.29465110549978	3.190521648087701	-38.64758555405195	-12.25838551988306	-13.61365902006647	3574.030769230769	3696.703296703297	0.09963547995139732	-0.5888077858880779	0.2972258916776751
6747.100830078125	1.307692307692308	34.63335283611504	3.563127425016936	-36.44547203284412	-16.08152252022454	-13.67391152528197	3550.728205128205	3695.238095238095	0.1130012150668287	-0.5802919708029197	0.2985468956406869
6766.632080078125	2.538461538461539	34.7675525035413	3.314682515242964	-33.79084266519173	-17.11719312801168	-14.52714105564861	3543.446153846154	3693.772893772893	0.1093560145808019	-0.5802919708029197	0.3077939233817701
6786.163330078125	1.153846153846154	34.03823058446758	4.626932315082836	-32.50049238083408	-17.65840657858901	-16.17810975422244	3550.728205128205	3690.84249084249	0.1057108140947752	-0.5742092457420924	0.3183619550858652
6805.694580078125	1.884615384615385	34.08918673400258	3.271432530639896	-33.87443885233463	-18.10281237499633	-16.98514087808376	3555.097435897435	3687.912087912088	0.1044957472660996	-0.5693430656934306	0.3130779392338177
6825.225830078125	2.384615384615385	34.8968559462955	4.695664223686642	-35.18725245385213	-16.17668264067705	-16.54458817941927	3549.271794871795	3687.912087912088	0.1117861482381531	-0.5632603406326034	0.3302509907529723
6844.757080078125	2.615384615384615	34.40343043665702	4.136170474841412	-36.46405058083018	-9.564030853833296	-16.46569368028105	3541.989743589743	3683.516483516483	0.09963547995139732	-0.5693430656934306	0.3249669749009247
6864.288330078125	3.192307692307693	33.83462924185502	5.076230214941184	-36.88102541519982	-5.333403240942823	-16.82738092111457	3553.641025641025	3687.912087912088	0.09599027946537059	-0.5498783454987835	0.3394980184940555
6883.819580078125	3.692307692307693	33.23501878425817	5.710599248629673	-34.16744279338356	-5.399040032867813	-16.03884658463974	3555.097435897435	3692.307692307692	0.09356014580801943	-0.5571776155717761	0.3408190224570674
6903.350830078125	4.576923076923078	31.83253525897641	5.719390897333252	-32.39149703228662	-8.26198432685632	-15.67707221988447	3552.184615384615	3689.377289377289	0.09842041312272175	-0.5644768856447688	0.3527080581241744
6922.882080078125	4.192307692307693	33.30979398903738	7.241069778900043	-31.53072481474912	-15.30715240665031	-14.53164182693942	3531.794871794872	3692.307692307692	0.1020656136087485	-0.551094890510949	0.3394980184940555
6942.413330078125	4.038461538461538	33.4521848247829	6.044604914700992	-32.83121694977711	-13.37322995676977	-13.68297115047809	3560.923076923077	3693.772893772893	0.09720534629404616	-0.5425790754257908	0.3685601056803171
6961.944580078125	3.538461538461539	33.40512409927942	6.974564266798053	-32.38789402907381	-13.85619847075292	-13.69223406482495	3543.446153846154	3695.238095238095	0.1130012150668287	-0.5437956204379563	0.3593130779392338
6981.475830078125	3.961538461538462	32.71080710722424	8.575029254172568	-33.67871877589599	-10.98341306725525	-12.83427143270951	3550.728205128205	3699.6336996337	0.1020656136087485	-0.5389294403892945	0.3685601056803171
7001.007080078125	2.961538461538462	32.17248414115908	7.645023711276714	-33.17739152595792	-5.83320385953554	-12.78778261313169	3568.205128205128	3702.564102564103	0.09477521263669501	-0.5352798053527981	0.381770145310436
7020.538330078125	4.807692307692308	33.12900320256205	7.972916794974442	-31.34562105144538	-4.463472146685651	-11.97607647013608	3550.728205128205	3698.168498168498	0.09842041312272175	-0.5364963503649636	0.3725231175693527
7040.069580078125	4.307692307692308	31.1758021802057	8.056044835868695	-30.11498024967714	-14.36993698675065	-12.49561079186053	3549.271794871795	3692.307692307692	0.09599027946537059	-0.5291970802919708	0.3949801849405548
7059.600830078125	5	32.43079078647534	8.07584529161791	-29.63516739196983	-12.4979554011297	-12.07352583927527	3566.748717948718	3699.6336996337	0.08869987849331712	-0.524330900243309	0.3896961690885073
7079.132080078125	4.923076923076923	31.58702346492579	8.033442138326045	-29.14739229941135	-13.41918452967642	-10.45496282026183	3451.692307692307	3595.604395604395	0.09963547995139732	-0.5194647201946472	0.3923381770145311
7098.663330078125	5.115384615384616	31.34917934347478	8.194878980107163	-29.6470143959948	-14.8373200696113	-11.68863775061372	3473.538461538461	3591.208791208791	0.09356014580801943	-0.5182481751824818	0.4095112285336856
7118.194580078125	4.076923076923078	30.81392806552935	9.072827492763441	-30.95186576266113	-15.7044010494597	-10.05160698552105	3460.430769230769	3595.604395604395	0.0850546780072904	-0.5	0.40554821664465
7137.725830078125	4.730769230769231	30.46762794851266	8.426294882059494	-31.31519549943435	-8.641599144595286	-9.569182403798546	3469.169230769231	3601.465201465201	0.09234507897934385	-0.5085158150851582	0.40554821664465
7157.257080078125	4.615384615384616	30.10038800270986	11.51906140296853	-30.46020590092885	-11.49305479535713	-10.01441012159734	3477.907692307692	3597.069597069597	0.0789793438639125	-0.5024330900243309	0.4161162483487451
7176.788330078125	4.576923076923078	31.49765196772803	10.92509392129088	-29.09858089591782	-11.05644171451106	-9.615496975532869	3479.364102564102	3600	0.09234507897934385	-0.5012165450121655	0.4240422721268164
7196.319580078125	3.538461538461539	30.08554535936441	9.491962801010038	-27.7004659539028	-8.26487853406087	-8.785235962536273	3472.082051282051	3598.534798534799	0.08869987849331712	-0.5060827250608273	0.4332892998678996
7215.850830078125	5.307692307692308	30.93350064667119	9.555736897210075	-27.7321221968039	-10.15039715685641	-9.21193785164134	3473.538461538461	3601.465201465201	0.09963547995139732	-0.4866180048661801	0.429326287978864
7235.382080078125	5.038461538461538	30.85261285951838	10.02320317792696	-27.28349111953316	-12.49550614695135	-8.423548721702751	3460.430769230769	3600	0.09113001215066828	-0.489051094890511	0.4253632760898283
7254.913330078125	4.538461538461538	30.36366015889635	9.970838209028761	-27.68283633084583	-10.1192262946114	-7.579465940453981	3482.276923076923	3604.395604395604	0.09842041312272175	-0.489051094890511	0.4332892998678996
7274.444580078125	4.076923076923078	29.48671244688058	10.04899304058631	-27.22671748118846	-12.92597404595366	-6.387604810545611	3479.364102564102	3614.652014652014	0.09720534629404616	-0.4817518248175183	0.4359313077939234
7293.975830078125	3.653846153846154	29.57823951468867	9.741870419412454	-28.13269809900666	-13.83776292522164	-6.387662893160108	3474.994871794872	3611.721611721612	0.09720534629404616	-0.4805352798053528	0.4332892998678996
7313.507080078125	2.576923076923077	29.66655632198066	10.24910697789001	-28.6151650349977	-14.7786742727867	-7.208573867888093	3486.646153846154	3607.326007326007	0.09356014580801943	-0.4671532846715328	0.4451783355350066
7333.038330078125	2.461538461538462	28.80199544250785	11.28484325922276	-29.06427057473299	-10.10199332977141	-8.789969064285076	3480.820512820513	3601.465201465201	0.1032806804374241	-0.4732360097323601	0.4438573315719947
7352.569580078125	3.615384615384615	29.44196895978321	10.82462893391636	-30.43338335213064	-10.07696764937017	-9.592354210319332	3476.451282051281	3602.930402930403	0.1081409477521264	-0.4683698296836983	0.4412153236459709
7372.100830078125	3.384615384615385	28.82681529839256	11.04385046498738	-30.93082583289491	-10.09460147444059	-11.22020918498688	3479.364102564102	3597.069597069597	0.1044957472660996	-0.475669099756691	0.4689564068692206
7391.632080078125	4.576923076923078	29.28973178542834	11.70571842089056	-30.48484883390788	-11.50864022647964	-10.83064607719102	3458.974358974359	3597.069597069597	0.09963547995139732	-0.4574209245742092	0.4557463672391017
7411.163330078125	3.5	28.56432068731909	12.51473486481493	-32.33112039072911	-14.28666636975524	-11.65629015366781	3477.907692307692	3594.139194139194	0.08626974483596597	-0.4537712895377129	0.4636723910171731
7430.694580078125	3.5	27.96230060971854	11.84650797561126	-33.16194151872013	-9.088053334950534	-11.18783254673373	3477.907692307692	3597.069597069597	0.09234507897934385	-0.4428223844282239	0.4663143989431968
7450.225830078125	3.653846153846154	28.14863429204902	11.99136232062573	-33.60308482360426	-7.204583106102918	-11.57274967670254	3460.430769230769	3588.278388278388	0.1069258809234508	-0.4489051094890511	0.4821664464993395
7469.757080078125	3.230769230769231	28.25940752602082	12.64500831434378	-33.16023636536551	-5.355979667165717	-12.3750186575078	3565.292307692307	3701.098901098901	0.1008505467800729	-0.4525547445255475	0.4782034346103039
7489.288330078125	4.269230769230769	27.42972069963663	12.70627271047608	-33.6277277565833	-7.220168537225421	-12.38898563229622	3549.271794871795	3696.703296703297	0.09113001215066828	-0.4294403892944039	0.4821664464993395
7508.819580078125	4.769230769230769	27.06645316253002	13.06195725811418	-33.6132266742746	-5.811874106799706	-12.37504769881505	3566.748717948718	3699.6336996337	0.09963547995139732	-0.4367396593673966	0.4808454425363276
7528.350830078125	5	26.32898626593583	13.16607131859334	-33.23008769862524	-13.32852205735018	-12.04588230277092	3556.553846153846	3699.6336996337	0.1008505467800729	-0.4245742092457421	0.4914134742404227
7547.882080078125	5.653846153846154	26.22056876270247	14.08694648026113	-33.73795379602084	-22.68023640966328	-10.90983098940173	3461.887179487179	3597.069597069597	0.09842041312272175	-0.4197080291970803	0.4927344782034346
7567.413330078125	3.846153846153846	27.06626839933485	13.99427234094968	-35.06479401738248	-24.49397305869006	-9.690210157760014	3453.148717948718	3600	0.1032806804374241	-0.4209245742092457	0.4966974900924703
7586.944580078125	3.807692307692308	25.36720915193693	12.4472347108456	-36.77477321439348	-18.79106175716637	-8.799754722162421	3469.169230769231	3601.465201465201	0.09113001215066828	-0.4124087591240876	0.499339498018494
7606.475830078125	5.076923076923078	25.11187411467636	12.40629426618218	-36.80159576319169	-20.20714890315334	-9.22181063344043	3473.538461538461	3602.930402930403	0.1093560145808019	-0.4075425790754258	0.499339498018494
7626.007080078125	5.730769230769231	25.04656802364969	13.09467574059247	-39.5560275536503	-25.29746564056138	-9.653332748216048	3476.451282051281	3601.465201465201	0.1032806804374241	-0.4038929440389295	0.5085865257595773
7645.538330078125	3.730769230769231	24.12928034735481	12.8821364784135	-42.68829016319082	-24.73327490353073	-9.616368214750336	3482.276923076923	3601.465201465201	0.1069258809234508	-0.3880778588807786	0.5085865257595773
7665.069580078125	4.307692307692308	23.94771201576646	13.69132228860011	-46.23221945053354	-21.8005970297214	-9.143438877832693	3489.558974358974	3605.860805860806	0.1142162818955042	-0.3929440389294404	0.5204755614266843
7684.600830078125	3.884615384615385	24.88453070148426	15.35038800270986	-48.86315481013598	-16.08619708497105	-9.059985524789164	3485.189743589744	3601.465201465201	0.117861482381531	-0.3965936739659368	0.523117569352708
7704.132080078125	2.807692307692308	23.77034704686826	14.44418611812527	-51.04233055171941	-15.97954832129188	-6.996310953205928	3461.887179487179	3604.395604395604	0.1190765492102066	-0.3746958637469586	0.5270805812417437
7723.663330078125	3.846153846153846	23.23320194617232	15.2629796144608	-51.8859476086645	-8.457156049128072	-7.728977390527083	3482.276923076923	3604.395604395604	0.1130012150668287	-0.3905109489051095	0.5284015852047557
7743.194580078125	4.538461538461538	21.17784997228552	15.41519369341627	-53.71724362071249	-12.15845971489832	-7.747677467064305	3491.015384615384	3605.860805860806	0.1130012150668287	-0.3625304136253041	0.5402906208718626
7762.725830078125	4	22.10386770955225	15.80661452238714	-54.21857087065056	-17.30866892261802	-7.794166286642122	3469.169230769231	3604.395604395604	0.1227217496962333	-0.354014598540146	0.5284015852047557
7782.257080078125	2.846153846153846	21.8295713493872	17.21374022294759	-56.93167903000226	-19.57460408361338	-7.789694556658558	3492.471794871794	3605.860805860806	0.1287970838396112	-0.3491484184914842	0.5429326287978864
7801.788330078125	2.884615384615385	20.28218728829217	17.62140481616062	-56.49802349750475	-20.99643555121368	-7.808249426659536	3485.189743589744	3607.326007326007	0.12636695018226	-0.3442822384428224	0.5455746367239102
7821.319580078125	4.5	19.93607963293712	17.92678758391329	-57.83718518535591	-22.81796491580172	-6.996746572814661	3489.558974358974	3605.860805860806	0.12636695018226	-0.3321167883211679	0.560105680317041
7840.850830078125	3.5	19.60330572150028	18.25779084806306	-58.79851605412516	-30.29400175482845	-6.653730367211113	3476.451282051281	3608.791208791209	0.1397326852976914	-0.3199513381995134	0.5482166446499339
7860.382080078125	2.692307692307693	20.23364845722732	18.31757713863398	-58.31339503985041	-30.28416064531928	-5.433993370340402	3458.974358974359	3610.25641025641	0.1324422843256379	-0.3138686131386861	0.5746367239101717
7879.913330078125	2.576923076923077	20.15125177064729	18.70664223686642	-61.80462815452579	-19.85616457369529	-5.702964343783531	3491.015384615384	3608.791208791209	0.1348724179829891	-0.3004866180048662	0.5733157199471598
7899.444580078125	0.7307692307692308	19.56194955964772	21.17175278684486	-62.96446869810521	-6.640301249286539	-3.926554243879159	3473.538461538461	3614.652014652014	0.1458080194410693	-0.3065693430656934	0.5785997357992074
7918.975830078125	2.115384615384615	17.77926187103529	20.45998337131243	-61.39622553755967	7.91821971362294	-1.347671874018786	3482.276923076923	3621.978021978022	0.1445929526123937	-0.2798053527980535	0.5878467635402906
7938.507080078125	3.76923076923077	17.80499784442939	23.28856931699205	-60.89129528440878	7.474214777446043	0.6836551006185483	3505.579487179487	3629.304029304029	0.1433778857837181	-0.2822384428223844	0.5812417437252312
7958.038330078125	4.923076923076923	16.69818932068732	23.62899550409559	-59.18738047239075	-4.761773621591393	1.768745864426361	3489.558974358974	3623.443223443223	0.149453219927096	-0.2785888077858881	0.5931307793923382
7977.569580078125	4.115384615384616	16.46707365892714	24.45400936133522	-57.98090814113699	-17.01539584569925	1.225981653566622	3518.687179487179	3630.769230769231	0.1421628189550425	-0.2664233576642336	0.5944517833553501
7997.100830078125	4.269230769230769	16.6226134753957	24.21548007636879	-55.48797029469939	-34.94280690303372	0.6136148992227792	3479.364102564102	3621.978021978022	0.149453219927096	-0.2627737226277372	0.5931307793923382
8016.632080078125	2.269230769230769	15.34888680174909	24.51719837408388	-53.30253747161943	-41.57474004866538	0.9336045048417854	3480.820512820513	3627.838827838828	0.1421628189550425	-0.2457420924574209	0.5984147952443858
8036.163330078125	0.576923076923077	14.26691353082466	24.5389388433824	-51.03493184879021	-40.22633808855132	1.332575733520756	3488.102564102564	3619.047619047619	0.1591737545565006	-0.2469586374695864	0.6036988110964333
8055.694580078125	0.7692307692307693	14.59336700129334	23.40857301225596	-48.69918004605587	-34.63746740603762	2.589596718236917	3493.928205128205	3630.769230769231	0.1664641555285541	-0.2226277372262774	0.6050198150594451
8075.225830078125	0.7692307692307693	13.37085052657511	22.99593520970623	-48.35878808890706	-37.98378107423971	0.1037500701466735	3495.384615384615	3630.769230769231	0.1737545565006075	-0.2214111922141119	0.6155878467635403
8094.757080078125	-0.6923076923076923	13.71467943585638	22.65064359179652	-48.91158082062238	-44.56566285906889	-1.181030616302832	3464.8	3619.047619047619	0.1834750911300122	-0.2250608272506083	0.6116248348745046
8114.288330078125	-1.576923076923077	13.51819147625793	23.74427234094969	-52.55626145570042	-43.09582842461403	-3.578865057444238	3486.646153846154	3614.652014652014	0.1834750911300122	-0.2104622871046229	0.6089828269484808
8133.819580078125	-1.038461538461539	12.68609502987005	22.50294081418981	-52.51228374630978	-41.20251708625724	-2.744045190542331	3498.297435897436	3620.51282051282	0.1980558930741191	-0.2104622871046229	0.6155878467635403
8153.350830078125	-2.038461538461539	11.88833374391821	23.00638972716635	-51.95949101459446	-34.62063530142806	-1.459264504092825	3485.189743589744	3623.443223443223	0.1968408262454435	-0.1885644768856448	0.618229854689564
8172.882080078125	-0.4230769230769231	11.01796052226397	22.60197388680175	-51.9331429282608	-30.87297620252074	-1.830214659273211	3479.364102564102	3617.582417582417	0.2102065613608748	-0.1849148418491484	0.6261558784676354
8192.413330078125	-1.923076923076923	11.15007390527807	23.26553550532734	-54.20558224519292	-32.69080963944337	-2.233831865779239	3492.471794871794	3621.978021978022	0.2138517618469016	-0.1715328467153285	0.6169088507265522
8211.944580078125	-2.576923076923077	10.95440198312496	24.08759315144424	-56.416888692142	-32.13810754563938	-1.389865249759463	3488.102564102564	3624.908424908425	0.2017010935601458	-0.1715328467153285	0.618229854689564
8231.475830078125	-2.576923076923077	9.682615323027653	24.2153876947712	-57.19188510671743	-22.70681850399628	-0.4714758645850333	3480.820512820513	3623.443223443223	0.2138517618469016	-0.1569343065693431	0.6327608982826949
8251.007080078125	-1.846153846153846	9.48106177249492	25.86998829833097	-58.51919979054362	-22.18898320010271	-0.04486109940171335	3491.015384615384	3623.443223443223	0.2345078979343864	-0.1520681265206813	0.6274768824306473
8270.538330078125	-2.884615384615385	8.899619695756606	25.21132290447743	-58.93522569998417	-22.62149949305295	1.179463792681557	3496.841025641026	3630.769230769231	0.2174969623329283	-0.1435523114355231	0.6235138705416117
8290.069580078125	-2.384615384615385	7.371574182422861	26.11359857116463	-59.31476167242072	-20.69906568639907	2.835136551696951	3470.625641025641	3623.443223443223	0.2284325637910085	-0.1265206812652068	0.6393659180977543
8309.600830078125	-3.461538461538462	7.334405986327523	25.20277760670075	-58.89608168469643	-21.19761963150473	2.009637681756407	3505.579487179487	3630.769230769231	0.2284325637910085	-0.1228710462287105	0.6274768824306473
8329.132080078125	-3	6.189736404508222	26.20548746689659	-57.54146998960749	-22.63093974233169	2.798084894309493	3476.451282051281	3627.838827838828	0.2308626974483596	-0.1143552311435523	0.6380449141347424
8348.663330078125	-2.615384615384615	6.16517829648334	25.12570056044836	-57.62942540838874	-26.41756241904526	1.12844516050568	3511.405128205128	3626.373626373626	0.2478736330498177	-0.110705596107056	0.6380449141347424
8368.194580078125	-3.884615384615385	6.32351265627887	24.24744410913346	-56.30381587791717	-30.66747139072366	1.889016506096425	3485.189743589744	3627.838827838828	0.2454434993924666	-0.09975669099756691	0.6406869220607662
8387.725830078125	-3.76923076923077	5.75	27.80769230769231	-61.61497246308013	-19.26984236346796	0.4234513009961218	3496.841025641026	3630.769230769231	0.2503037667071689	-0.08637469586374696	0.6406869220607662
8407.257080078125	-4.192307692307693	6.027060109626163	25.91622528792265	-63.3609671346306	-18.25345311446873	1.675564936119986	3498.297435897436	3624.908424908425	0.2624544349939246	-0.07664233576642336	0.6340819022457067
8426.788330078125	-0.7307692307692308	2.61425294081419	27.71042988236743	-59.24926957079932	-15.52752672594354	3.294360285591415	3482.276923076923	3626.373626373626	0.2636695018226002	-0.05717761557177616	0.6367239101717305
8446.319580078125	-1.730769230769231	2.997436410666995	28.7820256204964	-52.63326161897003	-26.05807477335084	3.122894725599049	3504.123076923077	3630.769230769231	0.2685297691373025	-0.05109489051094891	0.6380449141347424
8465.850830078125	-2.615384615384615	3.729383506805444	29.60774773665086	-48.73424659566623	-43.98713336440279	4.53726705067998	3498.297435897436	3633.699633699634	0.2733900364520048	-0.04744525547445256	0.6380449141347424
8485.382080078125	-5.576923076923078	2.47009145778161	28.22619634168873	-46.59402217286696	-58.57602346909642	6.002628966629541	3482.276923076923	3633.699633699634	0.2721749696233293	-0.03284671532846716	0.6248348745046235
8504.913330078125	-5.807692307692308	0.6763025805259592	25.83871712754819	-45.66823231617263	-58.11808063551451	6.814277027010662	3502.666666666666	3639.560439560439	0.2770352369380316	-0.03041362530413625	0.6327608982826949
8524.444580078125	-7.423076923076923	1.95469452485065	25.07296606515982	-48.31319429561922	-56.14354707411022	7.676798513031415	3508.492307692307	3639.560439560439	0.307411907654921	-0.0170316301703163	0.6327608982826949
8543.975830078125	-8.192307692307693	1.636593890497013	24.43953624438012	-52.76310420078013	-54.12265807956887	8.14966976733456	3508.492307692307	3648.351648351648	0.3110571081409477	-0.0145985401459854	0.6301188903566711
8563.507080078125	-9.615384615384617	0.9650027714479276	24.8267845045267	-58.48545300128075	-42.68811386845484	7.913075432144585	3514.317948717948	3642.490842490842	0.3134872417982989	0.00121654501216545	0.619550858652576
8583.038330078125	-10.65384615384616	-0.05756143376239453	25.07037938042742	-60.98009600107297	-28.49277647890519	9.712628297262492	3508.492307692307	3641.025641025641	0.3244228432563791	0.008515815085158151	0.619550858652576
8602.569580078125	-10.92307692307692	-1.088439982755435	24.9604606762333	-60.86626695842261	-18.62692275036394	10.21831180942752	3521.6	3649.81684981685	0.3207776427703524	0.0291970802919708	0.6208718626155878
8622.100830078125	-8.153846153846155	-3.419751185563836	25.29525158588409	-60.42123888436468	-15.37781759656227	9.021862784306594	3505.579487179487	3642.490842490842	0.3244228432563791	0.0291970802919708	0.6089828269484808
8641.632080078125	-9.076923076923077	-2.262856438997352	26.06589887294451	-61.00881639972938	-20.58257581321074	6.1185481201509	3479.364102564102	3633.699633699634	0.3353584447144593	0.04257907542579076	0.619550858652576
8661.163330078125	-10.38461538461539	-1.320056044835869	24.4643407033319	-63.24353508876741	-13.98181352982408	4.166086603344535	3504.123076923077	3630.769230769231	0.330498177399757	0.05231143552311435	0.6248348745046235
8680.694580078125	-9.26923076923077	-3.636301348771325	25.69968282318162	-63.63103329605512	-9.26616900900253	4.62528129593175	3493.928205128205	3632.234432234432	0.3365735115431349	0.05596107055961071	0.6155878467635403
8700.225830078125	-7.692307692307693	-4.234156556014042	25.16936626224056	-61.37262059896715	-11.18820195542597	5.807966635415003	3496.841025641026	3636.630036630037	0.3341433778857837	0.06690997566909976	0.6129458388375165
8719.757080078125	-7.5	-4.064751801441154	26.12220545667303	-60.59762418439173	-20.61949099706907	4.889577250240572	3477.907692307692	3630.769230769231	0.3402187120291616	0.08880778588807786	0.6116248348745046
8739.288330078125	-7.576923076923078	-4.190252201761409	24.78184085730123	-60.66747551765146	-28.59203338725354	5.218713604977448	3493.928205128205	3633.699633699634	0.3523693803159174	0.09489051094890512	0.6063408190224571
8758.819580078125	-9.192307692307693	-4.746404816160621	25.35870234649258	-62.89498820026387	-33.17969939166008	7.235928398290119	3527.425641025641	3641.025641025641	0.3523693803159174	0.1046228710462287	0.6116248348745046
8778.350830078125	-8.461538461538462	-7.482293527129396	24.88390712570056	-60.6162918018352	-37.88715033668995	10.02320978199839	3520.14358974359	3649.81684981685	0.3560145808019441	0.1155717761557178	0.6089828269484808
8797.882080078125	-8.230769230769232	-8.116600973086161	25.59927942353883	-55.77793476445747	-49.28682775789356	10.67715596802482	3499.753846153846	3648.351648351648	0.3657351154313487	0.1301703163017032	0.5957727873183619
8817.413330078125	-10.26923076923077	-7.676656709983371	24.8712970376301	-52.27485464575711	-57.37545916103594	10.56123885280639	3507.035897435897	3643.956043956044	0.3645200486026731	0.1411192214111922	0.6010568031704096
8836.944580078125	-12.65384615384616	-8.128264149781364	24.8362844121451	-53.98578276769722	-47.00940395367154	9.865682155487194	3504.123076923077	3648.351648351648	0.3718104495747266	0.1508515815085158	0.583883751651255
8856.475830078125	-14.61538461538462	-8.996273942230708	24.04446634230461	-56.04724469745647	-31.90432607880184	10.85367408414573	3507.035897435897	3651.282051282051	0.3815309842041312	0.1557177615571776	0.5772787318361955
8876.007080078125	-13.26923076923077	-8.908241978197943	24.0659450637433	-59.87403607517778	-17.6605848621672	13.0751957366199	3511.405128205128	3651.282051282051	0.3851761846901579	0.1666666666666667	0.5759577278731837
8895.538330078125	-12.57692307692308	-10.28920828970869	23.19118371620373	-62.95796174368933	-12.40207935705083	13.15862004835618	3517.230769230769	3663.003663003663	0.3876063183475091	0.1776155717761557	0.5852047556142669
8915.069580078125	-10.5	-10.02935425263288	23.50617417010531	-66.65003039486726	-20.2897035965224	12.300337961861	3524.51282051282	3652.747252747252	0.3948967193195626	0.1849148418491484	0.5653896961690885
8934.600830078125	-12.42307692307692	-10.9574043850465	23.75483463694032	-71.65974634166555	-26.72062957848324	11.87796259620325	3520.14358974359	3649.81684981685	0.3997569866342648	0.1934306569343066	0.5548216644649934
8954.132080078125	-13.92307692307692	-12.38807969452485	23.71167703393484	-70.6851450814777	-23.89994392973598	13.52907650131333	3507.035897435897	3657.142857142857	0.3973268529769137	0.208029197080292	0.5455746367239102
8973.663330078125	-13.19230769230769	-11.76897671983741	22.79498983802426	-71.43066486897119	-13.9836379801618	15.2683478199085	3521.6	3660.07326007326	0.402187120291616	0.218978102189781	0.5482166446499339
8993.194580078125	-12.84615384615385	-14.20162283673093	24.85037260577693	-70.95568570536676	-12.58108787134942	15.6857867946667	3520.14358974359	3661.538461538461	0.4009720534629404	0.2311435523114355	0.5455746367239102
9012.725830078125	-12.84615384615385	-14.68970561064236	24.25451130134877	-66.91526286218887	-10.83298801424762	15.25470029949982	3517.230769230769	3660.07326007326	0.4046172539489671	0.2445255474452555	0.5442536327608983
9032.257080078125	-12.5	-15.20312403769169	24.57927880766151	-61.98336048350148	-9.581393708303565	14.80973395346626	3530.338461538461	3655.677655677655	0.3912515188335358	0.2554744525547446	0.5204755614266843
9051.788330078125	-10.73076923076923	-16.37986543080618	25.87788692492455	-57.64510000517174	-20.06763471652171	13.43699914268242	3525.969230769231	3655.677655677655	0.3961117861482381	0.2639902676399027	0.5310435931307794
9071.319580078125	-11.80769230769231	-16.50633583790109	25.58602266428528	-53.8301556314754	-36.65074060163796	11.6003655788698	3509.948717948718	3646.886446886447	0.4106925880923451	0.2712895377128954	0.512549537648613
9090.850830078125	-12.5	-17.60658526821457	23.59849417995935	-52.18661746101488	-42.86204695777649	8.664674276460954	3518.687179487179	3643.956043956044	0.4094775212636695	0.2798053527980535	0.5099075297225891
9110.382080078125	-13.88461538461539	-16.5960537660898	22.53345753525898	-50.41162062484704	-41.06184734592428	7.440436508299431	3495.384615384615	3641.025641025641	0.4106925880923451	0.2907542579075426	0.5033025099075297
9129.913330078125	-14.80769230769231	-17.27293373160067	22.6851481184948	-53.44720935232961	-31.10902707272221	7.570320598306277	3517.230769230769	3645.421245421245	0.4131227217496962	0.3004866180048662	0.5033025099075297
9149.444580078125	-14.65384615384616	-17.12817176818378	22.98551148611197	-54.16012397199289	-23.9703464061932	11.3223059389233	3509.948717948718	3646.886446886447	0.4143377885783718	0.2980535279805353	0.4874504623513871
9168.975830078125	-14.73076923076923	-18.51853020878241	23.34958736219745	-55.76717220544941	-15.40408995045057	14.68934510826427	3514.317948717948	3652.747252747252	0.4216281895504253	0.3138686131386861	0.4966974900924703
9188.507080078125	-15.57692307692308	-19.45714263718667	23.04943955164131	-52.54960825541136	-11.25058777271175	15.92319428645965	3523.05641025641	3660.07326007326	0.4179829890643985	0.3199513381995134	0.4821664464993395
9208.038330078125	-13.73076923076923	-18.71156155693786	22.38577015458521	-50.34749473420353	-15.07372477305324	15.86294178124416	3518.687179487179	3658.608058608058	0.416767922235723	0.3248175182481752	0.4636723910171731
9227.569580078125	-13.76923076923077	-19.64231385108086	20.88492332327401	-47.66822243357211	-16.09380994971787	15.82594820647119	3505.579487179487	3655.677655677655	0.4313487241798298	0.3369829683698297	0.4715984147952444
9247.100830078125	-14.84615384615385	-20.935101927696	19.29355792326168	-49.47677336249925	-10.45324037268419	13.45145981969407	3521.6	3658.608058608058	0.4155528554070473	0.3515815085158151	0.4570673712021136
9266.632080078125	-14.61538461538462	-21.16370019092197	18.95424031532919	-50.35204666234544	-4.816366723315923	12.29209149326784	3502.666666666666	3651.282051282051	0.4289185905224787	0.3588807785888078	0.4478203434610304
9286.163330078125	-14.07692307692308	-20.9349479583667	18.51662868756544	-51.69964504751231	-1.513113420815929	11.11411021422615	3525.969230769231	3651.282051282051	0.4301336573511543	0.364963503649635	0.4570673712021136
9305.694580078125	-12.76923076923077	-21.88236743240746	18.42606392806553	-51.25101397024157	-3.858222410910868	11.90249934416474	3511.405128205128	3651.282051282051	0.4191980558930741	0.3637469586374696	0.4253632760898283
9325.225830078125	-12.76923076923077	-22.64374576584345	18.03344213832605	-52.13187719261618	-7.085997811976697	13.51168328360231	3517.230769230769	3655.677655677655	0.4216281895504253	0.3710462287104623	0.4319682959048877
9344.757080078125	-12.42307692307692	-22.0832281209583	18.5075598940691	-49.91962182073801	-12.30184381162139	14.25372880049933	3512.861538461538	3657.142857142857	0.4179829890643985	0.3722627737226277	0.4266842800528402
9364.288330078125	-13.42307692307692	-22.56458243517891	18.57527560509946	-48.19201300067004	-19.85910287369562	14.56904338698403	3515.774358974359	3654.212454212454	0.4143377885783718	0.3844282238442823	0.428005284015852
9383.819580078125	-13.88461538461539	-22.75790632506005	17.16454702223317	-46.4063998513673	-21.78318421406698	14.94010970739341	3515.774358974359	3657.142857142857	0.4228432563791008	0.391727493917275	0.4161162483487451
9403.350830078125	-14.38461538461539	-23.9558877871528	17.94823551148611	-43.66286614000457	-23.69537605098125	17.34253204374737	3528.882051282051	3663.003663003663	0.4179829890643985	0.4002433090024331	0.4002642007926024
9422.882080078125	-12.92307692307692	-23.977920798177	17.58834760115785	-40.50283205673674	-27.50662354786564	19.31363555447646	3515.774358974359	3667.399267399267	0.4204131227217496	0.4087591240875912	0.3923381770145311
9442.413330078125	-14	-23.35687011147379	16.45889018907434	-37.8670630030314	-32.75159201580743	19.23482817925999	3533.251282051282	3665.934065934066	0.416767922235723	0.413625304136253	0.3896961690885073
9461.944580078125	-14.42307692307692	-23.87429174108518	15.82997166964341	-37.92336217891154	-34.65269606972547	17.99189033456124	3517.230769230769	3665.934065934066	0.4204131227217496	0.4209245742092457	0.3778071334214003
9481.475830078125	-14.23076923076923	-24.77882305844676	16.63346061464556	-37.88251301026919	-29.49674254039243	17.63487811286203	3507.035897435897	3663.003663003663	0.4228432563791008	0.4160583941605839	0.3883751651254954
9501.007080078125	-14.38461538461539	-25.30004003202562	15.92507852435795	-38.81190587017635	-24.36047123007774	14.83839189742139	3528.882051282051	3660.07326007326	0.4240583232077764	0.4343065693430657	0.3606340819022457
9520.538330078125	-14.11538461538462	-26.01671337069656	14.95105315021248	-37.45511455926822	-24.39328962604023	15.23265906565881	3498.297435897436	3657.142857142857	0.4216281895504253	0.4245742092457421	0.3513870541611625
9540.069580078125	-14.69230769230769	-26.06532918642607	14.11261316745704	-38.75873523504448	-19.19672498518345	14.88949765351902	3541.989743589743	3660.07326007326	0.4277035236938031	0.4416058394160584	0.3527080581241744
9559.600830078125	-15.03846153846154	-26.74979214140543	14.06653014719468	-38.77323631735317	-20.60501941560916	14.87555972003785	3530.338461538461	3660.07326007326	0.425273390036452	0.4343065693430657	0.3659180977542933
9579.132080078125	-14.26923076923077	-25.69648795959845	12.55516721069163	-40.08339584058694	-19.60995991934577	15.71493844084506	3508.492307692307	3660.07326007326	0.4216281895504253	0.4452554744525548	0.3368560105680317
9598.663330078125	-15.11538461538462	-25.8075152429636	13.18345445587239	-43.15500004260897	-14.34366169866816	16.20648073037818	3498.297435897436	3655.677655677655	0.4301336573511543	0.451338199513382	0.3368560105680317
9618.194580078125	-15.19230769230769	-27.03774558108025	13.23343290016629	-43.98146193896164	-6.344045234134527	15.88657824868092	3517.230769230769	3661.538461538461	0.4216281895504253	0.4537712895377129	0.3302509907529723
9637.725830078125	-13.53846153846154	-25.87032703085545	12.82404385046499	-43.09045686591668	-4.508978832371908	15.07969233135585	3528.882051282051	3664.468864468864	0.4216281895504253	0.4549878345498783	0.3236459709379128
9657.257080078125	-11.96153846153846	-26.9978367309232	13.77645193077539	-40.8888178071734	-6.000543879793037	14.22643375968197	3531.794871794872	3658.608058608058	0.4216281895504253	0.4586374695863747	0.3183619550858652
9676.788330078125	-13.34615384615385	-27.72561895670382	13.08864014288354	-40.36720685589464	-3.635752670679755	15.8775186234848	3525.969230769231	3658.608058608058	0.4070473876063183	0.4732360097323601	0.3117569352708058
9696.319580078125	-13.34615384615385	-27.87188981954795	12.70987559278192	-39.89004807647105	-0.8327008470029089	15.90077755392733	3543.446153846154	3661.538461538461	0.4082624544349939	0.4708029197080292	0.309114927344782
9715.850830078125	-11.92307692307692	-29.17110611566176	12.78607501385724	-38.118936009477	-4.165076617799987	16.25790594085554	3523.05641025641	3660.07326007326	0.4070473876063183	0.4841849148418492	0.2972258916776751
9735.382080078125	-11.53846153846154	-28.64060479152553	12.79947034550717	-35.00070001978062	-8.469133738176705	17.00000954036706	3509.948717948718	3661.538461538461	0.4034021871202916	0.4866180048661801	0.2972258916776751
9754.913330078125	-12.5	-27.74700529654493	13.31180328878488	-32.36493096607528	-13.71410220611849	16.92120216515059	3525.969230769231	3664.468864468864	0.4082624544349939	0.4866180048661801	0.2998678996036988
9774.444580078125	-11.84615384615385	-29.31582188827985	12.25263287553119	-30.6008322090033	-18.9164111685886	17.66786461856741	3528.882051282051	3664.468864468864	0.4034021871202916	0.489051094890511	0.2760898282694848
9793.975830078125	-12.84615384615385	-29.70556445156125	11.58591488575476	-28.78138320098028	-17.55447217129996	18.07145278376619	3524.51282051282	3668.864468864469	0.4058323207776428	0.4939172749391728	0.2747688243064729
9813.507080078125	-12.88461538461539	-30.640165978937	10.27752971608056	-28.77001065941986	-12.883535549898	16.89355862864624	3533.251282051282	3665.934065934066	0.4131227217496962	0.4975669099756691	0.2668428005284016
9833.038330078125	-12.19230769230769	-29.86325214017368	11.12414547022233	-27.37672941150773	-10.56140384625639	17.71917366381578	3517.230769230769	3665.934065934066	0.4009720534629404	0.5048661800486618	0.2721268163804492
9852.569580078125	-12.76923076923077	-30.92344644946727	10.864630165671	-27.40620603858967	-11.04642075418746	16.89829173039504	3523.05641025641	3661.538461538461	0.3997569866342648	0.5097323600973236	0.2681638044914135
9872.100830078125	-12.26923076923077	-31.15507021001416	10.40735665455441	-28.30735296230497	-11.48877815664687	16.9028796256076	3536.164102564102	3664.468864468864	0.3997569866342648	0.5145985401459854	0.2628797886393659
9891.632080078125	-13.26923076923077	-31.19992147564205	9.803766089794912	-27.3885764155327	-12.90076851473799	18.10406175247733	3518.687179487179	3667.399267399267	0.402187120291616	0.5158150851581509	0.261558784676354
9911.163330078125	-12.11538461538462	-30.01258699267106	8.898580402783766	-28.74318811062165	-11.46744840391104	17.31561453992424	3536.164102564102	3665.934065934066	0.3912515188335358	0.5085158150851582	0.2523117569352708
9930.694580078125	-12.11538461538462	-30.55070979860812	8.881643776559709	-27.85388819093132	-13.36445566993323	17.69591473337324	3523.05641025641	3663.003663003663	0.3851761846901579	0.51338199513382	0.2351387054161163
9950.225830078125	-11.57692307692308	-30.74306368171461	8.345491778037815	-27.00373228652871	-16.68534279750365	17.24604103774739	3521.6	3667.399267399267	0.3803159173754556	0.5206812652068127	0.2338177014531044
9969.757080078125	-13.15384615384616	-29.58014103590565	7.545513333743918	-26.59424522454569	-20.4543316491468	17.20425627861113	3534.707692307692	3664.468864468864	0.3900364520048603	0.524330900243309	0.2311756935270806
9989.288330078125	-13.5	-30.07445186918766	7.607208843998275	-26.59424522454569	-20.4543316491468	17.20425627861113	3520.14358974359	3663.003663003663	0.3791008505467801	0.5170316301703163	0.2298546895640687
10008.81958007813	-13.38461538461539	-31.89126685964156	6.024881443616431	-27.98534685663865	-21.37596163792395	15.98446119912592	3541.989743589743	3660.07326007326	0.3900364520048603	0.5328467153284672	0.2192866578599736
10028.35083007813	-13.5	-32.45096846708136	5.279192584837101	-27.61017011584045	-26.09939887430675	15.11714852874187	3528.882051282051	3660.07326007326	0.3827460510328068	0.524330900243309	0.2100396301188904
10047.88208007813	-13.57692307692308	-31.54025528114799	5.974302518938227	-27.71698584856874	-34.09531941117498	14.22193095008822	3504.123076923077	3651.282051282051	0.370595382746051	0.5316301703163017	0.2073976221928666
10067.41333007813	-12.15384615384616	-31.82712323705118	5.433084929482047	-28.27992043095441	-39.28449219670094	12.13485224152621	3525.969230769231	3654.212454212454	0.3827460510328068	0.5437956204379563	0.1941875825627477
10086.94458007813	-14.23076923076923	-30.41717989776437	4.320533349756729	-26.9864416058485	-43.08834783825451	11.67571563155349	3512.861538461538	3655.677655677655	0.3754556500607533	0.5352798053527981	0.1889035667107001
10106.47583007813	-13.88461538461539	-30.53720668842767	4.206488267537107	-30.10685721136405	-40.18479243274225	11.32779207635764	3520.14358974359	3657.142857142857	0.3778857837181044	0.5498783454987835	0.1770145310435931
10126.00708007813	-14.11538461538462	-30.74973055367371	5.448066145223871	-31.79532201614429	-31.20365350911981	11.84265137894779	3518.687179487179	3652.747252747252	0.3730255164034022	0.5352798053527981	0.178335535006605
10145.53833007813	-13.03846153846154	-31.65408480630658	5.358086469175341	-33.99525592153294	-25.98001479391387	11.50872383984762	3501.210256410256	3648.351648351648	0.3778857837181044	0.5364963503649636	0.1704095112285337
10165.06958007813	-12.46153846153846	-31.884923323274	4.784627702161729	-34.46056769693156	-26.44370194910911	11.10057682074353	3521.6	3649.81684981685	0.370595382746051	0.5486618004866181	0.1638044914134743
10184.60083007813	-12.19230769230769	-32.35678542834267	5.031579109441399	-34.06823579554096	-30.68991499312208	10.64602810598337	3523.05641025641	3649.81684981685	0.3742405832320777	0.551094890510949	0.1638044914134743
10204.13208007813	-12.92307692307692	-32.6194494056784	5.434008745457905	-33.23258097344704	-35.41909655111822	10.18221647687635	3508.492307692307	3649.81684981685	0.3803159173754556	0.5450121654501217	0.1439894319682959
10223.66333007813	-12.15384615384616	-32.74324074644331	5.085114245242348	-32.82091429564486	-37.78758368789691	9.746251673424416	3515.774358974359	3649.81684981685	0.3718104495747266	0.5462287104622872	0.1505944517833553
10243.19458007813	-13.15384615384616	-33.53561310586931	5.31911683192708	-34.18301376312042	-35.89262481582262	8.554332460901547	3521.6	3646.886446886447	0.3742405832320777	0.5535279805352799	0.1360634081902246
10262.72583007813	-13.42307692307692	-32.84126531994827	5.486342920490237	-33.64036288207544	-27.91803403169024	9.036815125238544	3512.861538461538	3648.351648351648	0.3742405832320777	0.5608272506082725	0.130779392338177
10282.25708007813	-12.15384615384616	-33.60777853051673	4.081234218143745	-32.74234449910841	-24.21303443825459	7.840395141424864	3511.405128205128	3639.560439560439	0.3791008505467801	0.5644768856447688	0.130779392338177
10301.78833007813	-12.23076923076923	-33.88801810679313	4.708597647348649	-29.22836630131217	-25.29915726707464	5.753577804628089	3505.579487179487	3639.560439560439	0.3803159173754556	0.5583941605839417	0.1162483487450462
10321.31958007813	-11.34615384615385	-34.21271632690768	4.674277883845538	-26.58823801596849	-27.7431223052875	4.886410340780278	3511.405128205128	3636.630036630037	0.3669501822600243	0.5486618004866181	0.1043593130779392
10340.85083007813	-11.69230769230769	-33.34901767567901	4.143191476257929	-23.51663381394645	-33.00942052596511	4.394868051247159	3492.471794871794	3623.443223443223	0.3815309842041312	0.5608272506082725	0.1003963011889036
10360.38208007813	-11.76923076923077	-33.31438997351727	4.41180636817146	-21.74116251531406	-33.54079286703326	3.963636349544032	3486.646153846154	3632.234432234432	0.370595382746051	0.5608272506082725	0.08718626155878467
10379.91333007813	-13.07692307692308	-34.08680790786475	3.955780008622282	-20.32684133763571	-25.60886158837255	3.620649185247733	3507.035897435897	3632.234432234432	0.3681652490886999	0.5523114355231144	0.08322324966974901
10399.44458007813	-12.46153846153846	-33.86804828478167	3.940875777545113	-18.38389589875654	-13.44220590892551	4.539212818265656	3493.928205128205	3629.304029304029	0.3730255164034022	0.5498783454987835	0.08190224570673713
10418.97583007813	-11.23076923076923	-33.73615815729506	3.807907864753342	-16.51127625560164	-6.916520666742588	4.993906739562059	3505.579487179487	3639.560439560439	0.3693803159173754	0.5571776155717761	0.06737120211360634
10438.50708007813	-10.19230769230769	-33.82910174293281	3.570471762025005	-13.80518140617201	-6.520518697420258	5.378969076067109	3488.102564102564	3638.095238095238	0.3754556500607533	0.5583941605839417	0.08190224570673713
10458.03833007813	-10.15384615384616	-34.0977705241116	3.503910820964464	-12.14932176922197	-12.72403233799752	2.851395751455101	3488.102564102564	3627.838827838828	0.3754556500607533	0.5571776155717761	0.07793923381770146
10477.56958007813	-10.03846153846154	-34.27866139065098	2.817684917164501	-11.32598841361758	-17.46100661155491	1.979466144551239	3509.948717948718	3627.838827838828	0.3766707168894289	0.551094890510949	0.06340819022457067
10497.10083007813	-10.84615384615385	-33.69296976042372	1.263872636570795	-9.128708586512643	-21.75357508870496	1.914567661508689	3483.733333333333	3620.51282051282	0.3669501822600243	0.559610705596107	0.06472919418758256
10516.63208007813	-10.88461538461539	-34.1133137279054	1.165686395270062	-7.399394613090046	-25.57876048299437	1.042696137219324	3473.538461538461	3621.978021978022	0.3620899149453219	0.5535279805352799	0.0488771466314399
10536.16333007813	-10.92307692307692	-34.86238221346308	0.1960337500769849	-6.074259545083028	-27.4970975017524	1.010261416351673	3498.297435897436	3623.443223443223	0.3645200486026731	0.5583941605839417	0.06605019815059446
10555.69458007813	-11.15384615384616	-33.13874176264088	0.7832419781979432	-4.237180914003045	-27.9895062650143	2.619619603632744	3492.471794871794	3626.373626373626	0.3657351154313487	0.5620437956204379	0.05548216644649934
10575.22583007813	-12.03846153846154	-32.29978598263226	0.1046837469975981	-3.255091881428564	-25.63045937751434	4.67420550871261	3507.035897435897	3639.560439560439	0.3657351154313487	0.551094890510949	0.05812417437252312
10594.75708007813	-13.26923076923077	-32.88588563158219	-0.1287953439674818	-2.226845523644283	-19.97759943679315	7.169431236378714	3491.015384615384	3643.956043956044	0.3718104495747266	0.5644768856447688	0.0488771466314399
10614.28833007813	-12.53846153846154	-31.66553242594075	-0.3387633183469854	-3.072167733943991	-16.18728083241416	7.623950909831624	3509.948717948718	3641.025641025641	0.3693803159173754	0.5681265206812652	0.0488771466314399
10633.81958007813	-12.96153846153846	-34.37470745827431	-0.9953963170536428	-3.975494273478469	-18.03013994973803	8.022718849359851	3509.948717948718	3643.956043956044	0.3584447144592952	0.5620437956204379	0.05680317040951123
10653.35083007813	-12.92307692307692	-33.45858225041572	-0.6862720945987557	-4.457961209469501	-18.97105129730309	7.201807874631867	3504.123076923077	3641.025641025641	0.3633049817739976	0.5693430656934306	0.03830911492734478
10672.88208007813	-12.15384615384616	-33.692461661637	-1.299993841226828	-4.007624978844125	-17.58408661961321	6.80301089379639	3501.210256410256	3641.025641025641	0.3547995139732685	0.5681265206812652	0.04491413474240423
10692.41333007813	-13.92307692307692	-33.09387510008006	-0.6139373036891052	-4.030088296003985	-16.19917033587125	5.592594893887041	3501.210256410256	3635.164835164835	0.3608748481166464	0.5693430656934306	0.03302509907529723
10711.94458007813	-13.61538461538462	-32.94215372297839	-0.8153907741577879	-4.544685937360674	-16.69402835331149	3.551975963595593	3504.123076923077	3633.699633699634	0.3608748481166464	0.5656934306569343	0.03170409511228534
10731.47583007813	-13.11538461538462	-34.10837131243457	-0.6968189936564635	-3.266657119492552	-17.24303451945007	1.492889287224914	3496.841025641026	3632.234432234432	0.3438639125151883	0.5669099756690997	0.04227212681638045
10751.00708007813	-13.03846153846154	-33.57639188273696	-0.4496366323828294	-3.329969605294767	-21.01407176504114	0.6394855090147811	3482.276923076923	3629.304029304029	0.3669501822600243	0.5620437956204379	0.03434610303830912
10770.53833007813	-12.57692307692308	-33.96661175093921	-0.6309509145778163	-2.032606011015055	-19.68535202394543	-1.401017256047671	3491.015384615384	3627.838827838828	0.339003645200486	0.559610705596107	0.03434610303830912
10790.06958007813	-13.38461538461539	-33.83282010223564	-0.7436102728336516	-2.055069328174916	-18.30043574020347	-2.61143325595702	3495.384615384615	3620.51282051282	0.3560145808019441	0.5583941605839417	0.0369881109643329
10809.60083007813	-14.42307692307692	-33.7545036028823	0.2251801441152923	-1.149088710356716	-17.38864686093549	-2.611375173342522	3476.451282051281	3620.51282051282	0.3535844471445929	0.551094890510949	0.0369881109643329
10829.13208007813	-12.53846153846154	-34.0828508961015	-0.6266859641559404	0.2168955262926561	-14.15103035036049	-3.000822115909388	3466.25641025641	3616.117216117216	0.3560145808019441	0.5620437956204379	0.02509907529722589
10848.66333007813	-13.26923076923077	-33.49483432900166	-0.4505912422245488	-0.6605573893727077	-9.91465841585668	-3.766010398019941	3488.102564102564	3614.652014652014	0.3645200486026731	0.5559610705596108	0.01717305151915456
10868.19458007813	-13.19230769230769	-33.8166148303258	-1.746181560633122	-0.6197082207303538	-4.758704886523646	-4.123022619719157	3474.994871794872	3616.117216117216	0.3608748481166464	0.5547445255474452	0.02774108322324967
10887.72583007813	-12.34615384615385	-33.64476966188335	-1.569209213524666	-1.034028976816275	-1.459147511689063	-4.085883838409951	3492.471794871794	3620.51282051282	0.3633049817739976	0.5547445255474452	0.01717305151915456
10907.25708007813	-12.42307692307692	-34.35920274681283	-0.3860165055121019	-1.027015666894202	0.4107856799839721	-4.475417904898564	3486.646153846154	3616.117216117216	0.3596597812879708	0.5571776155717761	0.02509907529722589
10926.78833007813	-12.61538461538462	-33.8819363182854	-0.9801071626531994	-0.9905257298901977	2.765735779588082	-4.044070037966441	3489.558974358974	3620.51282051282	0.3633049817739976	0.5608272506082725	0.03038309114927345
10946.31958007813	-12.03846153846154	-33.54693755004004	-0.999276344152245	0.3592522710958558	0.8629841919525508	-3.260268803240412	3464.8	3614.652014652014	0.3572296476306197	0.5656934306569343	0.01717305151915456
10965.85083007813	-12.42307692307692	-34.38845691938166	-0.8463848001478107	0.3491104204255126	2.255693191255763	-4.062566825352922	3479.364102564102	3614.652014652014	0.3718104495747266	0.5669099756690997	0.01585204755614267
10985.38208007813	-11.46153846153846	-34.12574675124716	-1.481893206873191	1.252911422424538	1.766980355659278	-3.668328698422754	3470.625641025641	3613.186813186813	0.3560145808019441	0.5608272506082725	0.007926023778071334
11004.91333007813	-11.61538461538462	-33.3959629241855	-1.278776867647965	1.243244034218743	0.828117402042135	-3.677620654076867	3482.276923076923	3614.652014652014	0.3742405832320777	0.5669099756690997	0.01717305151915456
11024.44458007813	-11.42307692307692	-33.34896378641374	-1.897964525466527	1.688746570741223	1.745650602923445	-4.081063612739402	3491.015384615384	3617.582417582417	0.3718104495747266	0.5656934306569343	0.01981505944517834
11043.97583007813	-11.88461538461539	-35.12432253495104	-1.130027098601959	1.701068037230741	1.753443318484696	-3.672945634942562	3488.102564102564	3614.652014652014	0.3754556500607533	0.5608272506082725	0.011889035667107
11063.50708007813	-11.69230769230769	-34.01724456488268	-0.9070025250970004	2.178701279118876	2.224923189241188	-2.856680638041634	3486.646153846154	3620.51282051282	0.3620899149453219	0.5571776155717761	0.02113606340819023
11083.03833007813	-11.42307692307692	-34.25199390281455	-0.9772279361951097	2.629511972208801	1.280315914010714	-2.462471552418715	3476.451282051281	3620.51282051282	0.3535844471445929	0.5559610705596108	0.01849405548216645
11102.56958007813	-11.65384615384616	-33.86480723039971	-0.8750230953993965	2.617190505719284	1.272523198449463	-2.870589530215555	3496.841025641026	3620.51282051282	0.3730255164034022	0.559610705596107	0.02113606340819023
11122.10083007813	-11.46153846153846	-33.50371066083636	-1.81446695818193	3.489335264817202	-1.10170825994256	-2.903053292390454	3482.276923076923	3616.117216117216	0.3657351154313487	0.5608272506082725	0.01585204755614267
11141.63208007813	-11.5	-33.11879503602882	-1.791017429328078	3.947633730293747	-2.507954296420354	-2.105372206797753	3480.820512820513	3617.582417582417	0.3608748481166464	0.5559610705596108	0.02113606340819023
11161.16333007813	-12.30769230769231	-34.76719837408388	-1.255465911190491	3.036344955908102	-1.557602699576549	-2.903082333697703	3493.928205128205	3617.582417582417	0.3681652490886999	0.559610705596107	0.01453104359313078
11180.69458007813	-11.38461538461539	-34.9448481862413	-0.988359918704194	2.595676113488519	-2.005704423649287	-2.494993397208112	3493.928205128205	3619.047619047619	0.370595382746051	0.551094890510949	0.02774108322324967
11200.22583007813	-12.23076923076923	-33.65398472624253	-1.223840610950299	3.041178650010999	-1.088171222767978	-2.898436355870647	3499.753846153846	3624.908424908425	0.3669501822600243	0.5523114355231144	0.01849405548216645
11219.75708007813	-11.96153846153846	-35.81181098725134	-1.294066022048408	2.590842419385622	-2.475135900457858	-2.499639375035169	3492.471794871794	3619.047619047619	0.3633049817739976	0.559610705596107	0.02642007926023778
11239.28833007813	-12.30769230769231	-33.45537968836608	-1.461784812465357	4.432280282103955	-0.1665412339908274	-1.678641276385438	3479.364102564102	3617.582417582417	0.3633049817739976	0.5523114355231144	0.01981505944517834
11258.81958007813	-12.03846153846154	-33.5785012625485	-1.344167641805752	3.082502281117902	1.736210353644703	-2.462442511111466	3495.384615384615	3620.51282051282	0.3633049817739976	0.551094890510949	0.02113606340819023
11278.35083007813	-12.30769230769231	-33.30064051240993	-1.506435917965141	3.070655277092932	-0.6031543148369034	-2.07755442244991	3491.015384615384	3619.047619047619	0.3730255164034022	0.5571776155717761	0.01849405548216645
11297.88208007813	-11.80769230769231	-33.22971454086346	-1.706580649134692	3.974456279091958	-1.091867150433388	-1.683316295519743	3477.907692307692	3620.51282051282	0.3499392466585662	0.559610705596107	0.023778071334214
11317.41333007813	-11.65384615384616	-33.91407741577878	-2.257667672599618	2.620319046467555	-1.990118992526785	-1.678757441614433	3495.384615384615	3624.908424908425	0.3742405832320777	0.5547445255474452	0.023778071334214
11336.94458007813	-11.65384615384616	-33.16193724210137	-1.40313789493133	3.085630821866173	-1.526431837331544	-1.270610422510344	3491.015384615384	3623.443223443223	0.3742405832320777	0.5498783454987835	0.02509907529722589
11356.47583007813	-11.53846153846154	-34.0426187103529	-1.715218328508961	2.181829819867147	-1.037719001735059	-1.664848549440512	3499.753846153846	3623.443223443223	0.3681652490886999	0.5583941605839417	0.03170409511228534
11376.00708007813	-11.42307692307692	-33.65228336515366	-2.116600973086161	2.194151286356665	-1.029926286173808	-1.256730571643672	3489.558974358974	3624.908424908425	0.3669501822600243	0.5571776155717761	0.0369881109643329
11395.53833007813	-11.76923076923077	-33.43602574367186	-1.044866662560818	1.763149832142877	-0.5391650566294031	-0.8393496794999676	3482.276923076923	3623.443223443223	0.3669501822600243	0.5583941605839417	0.01981505944517834
11415.06958007813	-12.26923076923077	-33.29216450083143	-1.968698035351358	0.859348830143852	-0.05045222103291825	-1.233587806430135	3509.948717948718	3623.443223443223	0.3693803159173754	0.5547445255474452	0.02245706737120212
11434.60083007813	-12	-34.29907002525096	-1.892652583605346	0.8496814419380572	-0.9893151746500614	-1.242879762084248	3492.471794871794	3620.51282051282	0.3645200486026731	0.5559610705596108	0.035667107001321
11454.13208007813	-11.61538461538462	-33.82861673954548	-0.7999322534951037	1.736327283344668	-1.955252202616369	-1.261405590777978	3483.733333333333	3623.443223443223	0.3608748481166464	0.5620437956204379	0.023778071334214
11473.66333007813	-12.46153846153846	-34.11285951838394	-1.126254850033873	1.73149358924177	-2.42468367942494	-1.266051568605034	3482.276923076923	3624.908424908425	0.3754556500607533	0.5535279805352799	0.03302509907529723
11493.19458007813	-12.42307692307692	-33.80183377471207	-1.331388187473055	1.273195123765224	-1.018437642947146	-2.063732654197735	3498.297435897436	3619.047619047619	0.3596597812879708	0.5535279805352799	0.02906208718626156
11512.72583007813	-12.03846153846154	-33.89182884769354	-1.062403769169182	1.733673205060945	-1.024181964560477	-1.660231612920704	3498.297435897436	3626.373626373626	0.3657351154313487	0.5523114355231144	0.02509907529722589
11532.25708007813	-11.76923076923077	-33.70316253002402	-1.149565806491347	1.260873657275706	-1.026230358508397	-2.471850631994575	3496.841025641026	3619.047619047619	0.3657351154313487	0.559610705596107	0.01585204755614267
11551.78833007813	-12.30769230769231	-33.64861119664963	-1.415594013672476	2.169508353377629	-1.04551171729631	-2.072966527237351	3477.907692307692	3617.582417582417	0.370595382746051	0.551094890510949	0.02113606340819023
11571.31958007813	-11.88461538461539	-33.66546313974256	-0.9960737821026051	2.152353192785214	-1.522735909666134	-2.485730482861248	3493.928205128205	3621.978021978022	0.3645200486026731	0.5547445255474452	0.03302509907529723
11590.85083007813	-12.30769230769231	-33.75869926710599	-1.680421260084991	2.619844584003007	0.3414529603935706	-2.471763508072828	3493.928205128205	3619.047619047619	0.3681652490886999	0.5608272506082725	0.01453104359313078
11610.38208007813	-12.65384615384616	-33.64637094290817	-1.181452854591365	3.068475661273757	-2.003656029701367	-1.683374378134241	3473.538461538461	3621.978021978022	0.3718104495747266	0.5632603406326034	0.01717305151915456
11629.91333007813	-12.53846153846154	-34.1020970622652	-1.587454579047854	2.605343501694314	-1.066841470032144	-2.485701441553999	3496.841025641026	3620.51282051282	0.3645200486026731	0.5486618004866181	0.02113606340819023
11649.44458007813	-11.42307692307692	-34.25661298269385	-0.7462739422307074	3.053500116500517	-1.080378507206727	-2.490318378073807	3493.928205128205	3619.047619047619	0.3681652490886999	0.559610705596107	0.02509907529722589
11668.97583007813	-12.03846153846154	-33.58235049578124	-1.15170598016875	3.046012344113897	-0.618739745959406	-2.89379037804359	3493.928205128205	3621.978021978022	0.3645200486026731	0.5535279805352799	0.023778071334214
11688.50708007813	-12.11538461538462	-33.85874083882491	-0.7168042126008498	2.619844584003007	0.3414529603935706	-2.471763508072828	3496.841025641026	3620.51282051282	0.3669501822600243	0.5608272506082725	0.02509907529722589
11708.03833007813	-12	-33.9772741269939	-0.6747551887663976	3.964314428421615	0.3008418488698239	-2.485614317632252	3473.538461538461	3611.721611721612	0.3620899149453219	0.5583941605839417	0.02642007926023778
11727.56958007813	-12.80769230769231	-34.00745981400505	-0.2808554535936441	3.063167504706312	-0.1415155535895832	-2.481026422419693	3498.297435897436	3623.443223443223	0.3584447144592952	0.5523114355231144	0.03963011889035667
11747.10083007813	-11.5	-34.24662037322165	-1.168981338917287	2.627332356389627	-0.1201858008537497	-2.068291508103046	3486.646153846154	3619.047619047619	0.3657351154313487	0.5620437956204379	0.02906208718626156
11766.63208007813	-12.03846153846154	-33.58850926895363	-0.8437673215495476	2.622498662286729	-0.5896172776623212	-2.072937485930102	3480.820512820513	3617.582417582417	0.3681652490886999	0.5571776155717761	0.035667107001321
11786.16333007813	-11.80769230769231	-33.97800548130812	-0.8304951653630599	1.745520209085914	1.31518270392113	-2.04511970158226	3495.384615384615	3619.047619047619	0.3608748481166464	0.559610705596107	0.023778071334214
11805.69458007813	-12.73076923076923	-33.86733232740038	-1.594922091519369	1.750353903188811	1.784614180729701	-2.040473723755203	3495.384615384615	3617.582417582417	0.3693803159173754	0.5498783454987835	0.02906208718626156
11825.22583007813	-12.53846153846154	-33.01122436410667	-2.284935640820348	1.770163142064949	1.330768135043632	-1.22888374598858	3483.733333333333	3620.51282051282	0.3620899149453219	0.5474452554744526	0.02642007926023778
11844.75708007813	-12.38461538461539	-33.87188212108148	-1.713586253618279	1.779830530270744	2.269631088660775	-1.219591790334467	3489.558974358974	3624.908424908425	0.3608748481166464	0.5644768856447688	0.03302509907529723
11864.28833007813	-11.69230769230769	-33.81862413007329	-1.222639650181684	2.184009435686322	0.3627827131294041	-2.059028593756181	3479.364102564102	3616.117216117216	0.3645200486026731	0.5547445255474452	0.023778071334214
11883.81958007813	-13.19230769230769	-33.98290170598017	-1.124145470222332	1.731019126777222	-0.09311172650458524	-2.05905763506343	3498.297435897436	3619.047619047619	0.3718104495747266	0.5583941605839417	0.035667107001321
11903.35083007813	-12.07692307692308	-34.11201268707274	-1.553211800209398	1.757841675575432	1.322975419482381	-1.63700172378542	3496.841025641026	3624.908424908425	0.3669501822600243	0.5693430656934306	0.03170409511228534
11922.88208007813	-11.88461538461539	-33.70241577877687	-1.07151875346431	2.225807529257772	0.8555923366217294	-0.8300286825386052	3480.820512820513	3624.908424908425	0.3547995139732685	0.5620437956204379	0.02906208718626156
11942.41333007813	-12.26923076923077	-33.11125053889266	-1.399011516905832	1.280208433687296	0.8514955487258888	-2.453266720686348	3485.189743589744	3621.978021978022	0.3742405832320777	0.5608272506082725	0.02509907529722589
11961.94458007813	-13.30769230769231	-33.08451376485804	-1.697388680174909	0.4322321451038653	5.57288439116077	-2.397573069376165	3495.384615384615	3621.978021978022	0.3608748481166464	0.5559610705596108	0.03434610303830912
11981.47583007813	-12.46153846153846	-33.41537845661145	-1.384923323274004	-0.3964093670679759	12.17199914082994	-2.323295506757755	3489.558974358974	3619.047619047619	0.3681652490886999	0.559610705596107	0.02245706737120212
12001.00708007813	-12.80769230769231	-33.50244041386956	-0.5318254603682946	-1.219742722672371	16.90897341438732	-1.451365899853893	3498.297435897436	3624.908424908425	0.3669501822600243	0.559610705596107	0.03170409511228534
12020.53833007813	-11.34615384615385	-34.24812927264888	-1.247382521401737	-0.3647531241668686	14.05751776362547	-1.896593617652688	3482.276923076923	3619.047619047619	0.370595382746051	0.5620437956204379	0.03038309114927345
12040.06958007813	-11.53846153846154	-33.80319640327647	-0.2247952207920181	-0.4254115316853604	9.355410279978505	-2.351171373720096	3502.666666666666	3624.908424908425	0.3633049817739976	0.5583941605839417	0.03170409511228534
12059.60083007813	-11.5	-33.80857763133584	-1.917272279361951	0.8948898422187601	6.967641784411901	-2.388252072414803	3498.297435897436	3623.443223443223	0.3669501822600243	0.5693430656934306	0.03434610303830912
12079.13208007813	-12.42307692307692	-34.27990854221839	-0.504572889080495	2.646667132801217	1.757540106380537	-2.049707596794819	3466.25641025641	3616.117216117216	0.3560145808019441	0.5523114355231144	0.047556142668428
