Time Stamp	Accelerometer X	Accelerometer Y	Accelerometer Z	Gyroscope X	Gyroscope Y	Gyroscope Z	VSenseReg	VSenseBatt	Magnetometer X	Magnetometer Y	Magnetometer Z
386.749267578125	-5.189773998988	-33.26755903025288	5.022600101199995	-57.88881626271699	129.6491000479508	1.604740471847057	3489.558974358974	3639.560439560439	0.2025641025641026	0.5875634517766497	0.102257636122178
406.280517578125	-5.10798113395703	-32.77016982393417	5.201886604296936	0.05388847295637923	2.575171494721337	0.9378919336388618	3482.276923076923	3633.699633699634	0.1948717948717949	0.5926395939086294	0.09428950863213811
425.811767578125	-4.909985558686764	-33.80860689341867	5.001444131323614	4.22069872213703	2.67386909552185	0.4258454064088476	3483.733333333333	3632.234432234432	0.2012820512820513	0.6002538071065989	0.100929614873838
445.343017578125	-4.425030132237123	-33.31841187413281	5.496986776287683	3.50631748774691	1.55062451220501	0.2163561711190319	3466.25641025641	3629.304029304029	0.1961538461538462	0.5951776649746192	0.09296148738379813
464.874267578125	-4.184529943256596	-32.62900937269545	5.547005674340383	2.448189628893017	2.293213964953746	-0.4588967000140651	3489.558974358974	3633.699633699634	0.2051282051282051	0.5850253807106599	0.09428950863213811
484.405517578125	-3.703129443658565	-34.25060849267408	5.687055634143548	3.130957792509145	0.8192366554293119	-0.4374358595769185	3492.471794871794	3630.769230769231	0.2038461538461538	0.58248730964467	0.08897742363877821
503.936767578125	-4.191224286029107	-33.89147885572599	4.87757139708933	3.136245387976682	0.06299800154041604	-0.009103126029414266	3496.841025641026	3629.304029304029	0.2	0.583756345177665	0.08897742363877821
523.468017578125	-4.712097708472607	-33.57770439136574	4.790229152739356	3.850064112210681	-0.3152095238605666	0.6821198069623133	3470.625641025641	3630.769230769231	0.2166666666666667	0.5913705583756345	0.100929614873838
542.999267578125	-4.908185011320365	-33.31042544625874	5.181498867963553	3.861201813301874	-0.3262347229205356	1.05705157635541	3466.25641025641	3629.304029304029	0.1935897435897436	0.6053299492385786	0.08632138114209827
562.530517578125	-5.589181572736573	-32.64877276538221	5.081842726342654	3.861764323457996	1.175217385797287	0.5753178786534977	3480.820512820513	3632.234432234432	0.2141025641025641	0.6015228426395939	0.08233731739707835
582.061767578125	-4.351839882401173	-33.31233402646712	4.816011759882696	3.518017698994224	3.041051421862864	0.1095542428102163	3489.558974358974	3630.769230769231	0.1974358974358974	0.5799492385786802	0.07569721115537847
601.593017578125	-4.703448925396399	-33.20182427765733	5.655107460360257	2.456402277172382	1.909582038479315	-0.05726444854376478	3488.102564102564	3627.838827838828	0.2038461538461538	0.5901015228426395	0.099601593625498
621.124267578125	-4.352717072143777	-33.1191403725194	4.728292785622213	2.456402277172382	1.909582038479315	-0.05726444854376478	3480.820512820513	3632.234432234432	0.2076923076923077	0.5799492385786802	0.08764940239043824
640.655517578125	-3.634402089004289	-33.08617696702874	4.559791099571192	2.804198974760224	3.419258947263847	-0.5816686901815114	3498.297435897436	3632.234432234432	0.208974358974359	0.5901015228426395	0.102257636122178
660.186767578125	-4.112001433051032	-32.96841701415692	4.799856694896786	2.820624271318954	2.651995094314982	0.2215958127590892	3485.189743589744	3630.769230769231	0.2025641025641026	0.5862944162436548	0.09030544488711818
679.718017578125	-3.507919330553412	-34.32469378383336	5.208066944658867	3.155595737347239	-0.3316591239939855	0.7674608948339825	3482.276923076923	3632.234432234432	0.1987179487179487	0.5901015228426395	0.09296148738379813
699.249267578125	-4.750385655700872	-32.84826433389596	4.961434429912847	3.155033227191118	-1.833111232711808	1.249194592535895	3486.646153846154	3633.699633699634	0.2076923076923077	0.5939086294416244	0.08100929614873838
718.780517578125	-4.879623097729402	-32.72234990206253	4.037690227059795	3.513967625870153	-0.334459522987245	1.099722120291244	3485.189743589744	3632.234432234432	0.1935897435897436	0.5926395939086294	0.08897742363877821
738.311767578125	-4.590200959553243	-32.35005087700507	4.979904044675735	2.825911866786489	1.895756440426086	0.6499285463065935	3493.928205128205	3635.164835164835	0.2038461538461538	0.5939086294416244	0.08764940239043824
757.843017578125	-4.823468180480713	-34.12368175309909	5.65318195192877	3.162570863283138	3.416458548270587	-0.2494074647242495	3491.015384615384	3626.373626373626	0.2012820512820513	0.6027918781725888	0.08499335989375829
777.374267578125	-3.904910785186389	-33.74680933773098	5.508921481361102	3.501029892279373	2.306863166093906	-0.2119765624284722	3469.169230769231	3627.838827838828	0.191025641025641	0.5875634517766497	0.07968127490039841
796.905517578125	-4.349854663510015	-33.27587755908564	5.014533648998526	3.503392434935081	1.178017784790547	0.2430566531962359	3498.297435897436	3632.234432234432	0.2	0.5888324873096447	0.09030544488711818
816.436767578125	-4.147134575064666	-34.1267786945693	5.286542493533418	3.844776516743145	0.4410291300283294	0.2537870734148092	3483.733333333333	3632.234432234432	0.1961538461538462	0.5913705583756345	0.08233731739707835
835.968017578125	-4.187484687652739	-33.24140969623996	5.251531234726126	3.855914217834338	0.4300039309683603	0.6287188428079056	3474.994871794872	3629.304029304029	0.2076923076923077	0.5951776649746192	0.08764940239043824
855.499267578125	-4.785918919351484	-33.00622189145501	5.408108064851714	3.147945599223996	1.55342491119827	-0.1159050543382299	3493.928205128205	3627.838827838828	0.2025641025641026	0.5888324873096447	0.09561752988047809
875.030517578125	-4.910816580548179	-32.73084448441557	4.918341945182104	3.864689376269824	1.547824113211751	0.5486173965762938	3486.646153846154	3629.304029304029	0.1987179487179487	0.598984771573604	0.09030544488711818
894.561767578125	-4.833840564454672	-33.19012872220847	4.615943554532885	3.520380241649932	1.912206040559505	0.5645874584349244	3489.558974358974	3636.630036630037	0.1974358974358974	0.5888324873096447	0.09163346613545816
914.093017578125	-4.98731552853606	-33.46434977771704	5.268447146394042	3.147945599223996	1.55342491119827	-0.1159050543382299	3493.928205128205	3629.304029304029	0.1935897435897436	0.5939086294416244	0.08366533864541832
933.624267578125	-5.147069324459251	-32.03992152075769	5.2930675540749	3.511605083214445	0.7943858583161143	0.6446889046665362	3472.082051282051	3630.769230769231	0.1987179487179487	0.6002538071065989	0.09296148738379813
953.155517578125	-4.668485065613793	-32.62021469911468	5.151493438620724	2.806561517415932	2.290413565960487	-0.1266354745568032	3508.492307692307	3629.304029304029	0.1935897435897436	0.583756345177665	0.08499335989375829
972.686767578125	-4.189608410187466	-33.93157242878758	5.039158981253378	2.820624271318954	2.651995094314982	0.2215958127590892	3488.102564102564	3630.769230769231	0.2051282051282051	0.5939086294416244	0.08764940239043824
992.218017578125	-4.196687485303225	-33.23211487061298	4.331251469677551	3.156720757659481	2.67124509344166	-0.1960065005698417	3476.451282051281	3626.373626373626	0.1987179487179487	0.5850253807106599	0.08233731739707835
1011.749267578125	-4.55682219702482	-32.80530188869724	4.317780297518137	3.858839270646167	0.8026106583828239	0.6020183607307016	3461.887179487179	3627.838827838828	0.2025641025641026	0.581218274111675	0.09163346613545816
1031.280517578125	-4.481092713723434	-33.14794251298548	3.890728627656653	2.797786358980446	1.172593383717097	-0.04653402832519149	3482.276923076923	3627.838827838828	0.2012820512820513	0.583756345177665	0.09561752988047809
1050.811767578125	-4.670516452386141	-33.54123992155153	4.948354761385922	3.133882845320974	1.191843382843775	-0.4641363416541224	3483.733333333333	3632.234432234432	0.1987179487179487	0.5939086294416244	0.08100929614873838
1070.343017578125	-4.319138248796866	-33.07459344563824	4.086175120313498	2.806561517415932	2.290413565960487	-0.1266354745568032	3485.189743589744	3626.373626373626	0.1974358974358974	0.6027918781725888	0.09428950863213811
1089.874267578125	-4.234513753719592	-33.65698726258936	4.54862462804077	2.798348869136567	2.67404549243492	-0.5282677260271036	3493.928205128205	3629.304029304029	0.1987179487179487	0.6040609137055837	0.08100929614873838
1109.405517578125	-3.591851307412838	-33.47376864105149	4.814869258716187	2.814774165695297	1.906781639486055	0.2749967769134971	3480.820512820513	3627.838827838828	0.2025641025641026	0.5901015228426395	0.08499335989375829
1128.936767578125	-3.441377255608782	-32.69651666414282	3.8622744391218	2.459327329984211	2.282188765893777	-0.08396493062096871	3491.015384615384	3626.373626373626	0.1935897435897436	0.5939086294416244	0.09163346613545816
1148.468017578125	-4.661929226484851	-33.0114514812503	5.80707735151486	3.178433649685747	1.147742586603899	1.035590735918263	3474.994871794872	3632.234432234432	0.2012820512820513	0.5901015228426395	0.09296148738379813
1167.999267578125	-4.348069505437345	-32.73921903027751	5.193049456265474	2.806561517415932	2.290413565960487	-0.1266354745568032	3498.297435897436	3629.304029304029	0.1974358974358974	0.598984771573604	0.08764940239043824
1187.530517578125	-3.993628832395818	-32.92951180235715	4.637116760418244	2.828274409442197	0.7669110591227264	1.104961761931302	3476.451282051281	3629.304029304029	0.2076923076923077	0.5888324873096447	0.09296148738379813
1207.061767578125	-3.267573034510184	-33.25052046591394	5.242696548981659	2.481040222010476	0.7586862590560169	1.147632305867136	3477.907692307692	3632.234432234432	0.2051282051282051	0.581218274111675	0.08632138114209827
1226.593017578125	-3.916237305371602	-32.42767724465161	4.37626946283978	2.133806034578755	0.7504614589893075	1.190302849802971	3498.297435897436	3632.234432234432	0.1961538461538462	0.5926395939086294	0.08499335989375829
1246.124267578125	-3.908573437094107	-33.58926390545803	5.142656290589262	2.127955928955098	0.005248004160380605	1.243703813957379	3483.733333333333	3629.304029304029	0.1961538461538462	0.5901015228426395	0.08632138114209827
1265.655517578125	-4.517026099011022	-33.30549594769118	4.297390098897757	2.500390571381034	0.3640291335216155	1.924196326730533	3470.625641025641	3632.234432234432	0.1935897435897436	0.5977157360406091	0.07835325365205843
1285.186767578125	-4.677841756201578	-33.22614905700563	4.215824379842241	1.823472513388563	2.583219897874977	1.849334522138979	3492.471794871794	3635.164835164835	0.1935897435897436	0.5786802030456852	0.07304116865869853
1304.718017578125	-3.78887735717812	-32.85938771540395	5.112264282187939	1.476800836112963	4.07644720652609	1.410271368372901	3482.276923076923	3632.234432234432	0.1974358974358974	0.598984771573604	0.08100929614873838
1324.249267578125	-4.222740944016212	-33.0919547234667	5.72590559837883	2.534928694966856	3.333857753777354	2.085524239505998	3466.25641025641	3633.699633699634	0.1974358974358974	0.6027918781725888	0.08499335989375829
1343.780517578125	-5.551401472201396	-33.1084691284612	4.859852779860462	1.815259865109199	2.96685182434941	1.447702270668678	3488.102564102564	3632.234432234432	0.1961538461538462	0.5977157360406091	0.08897742363877821
1363.311767578125	-6.270131966271593	-33.1025513294503	4.986803372840727	1.110778809466805	5.964331640711605	0.1946441937434267	3488.102564102564	3630.769230769231	0.1987179487179487	0.5901015228426395	0.08233731739707835
1382.843017578125	-5.513821432484706	-33.06796343011352	4.617856751529388	1.466675653302788	14.22503043919636	-2.310095802856376	3480.820512820513	3626.373626373626	0.1923076923076923	0.5964467005076142	0.08366533864541832
1402.374267578125	-4.252087711587399	-34.71769910360441	6.79122884126005	3.835101342057866	19.22571828759107	-6.330281801948736	3480.820512820513	3619.047619047619	0.2025641025641026	0.5862944162436548	0.09163346613545816
1421.905517578125	-5.249529395397739	-33.86412915680213	7.047060460226062	7.286292834504931	22.33292090381375	-8.470318175497098	3467.71282051282	3607.326007326007	0.1858974358974359	0.5951776649746192	0.08366533864541832
1441.436767578125	-4.66382210961363	-34.278770438521	5.617789038636976	10.3726998226493	23.19625835548293	-10.4074811126464	3477.907692307692	3613.186813186813	0.1961538461538462	0.5926395939086294	0.08499335989375829
1460.968017578125	-5.219520888196166	-34.89289928753725	6.04791118038345	13.7882281711983	20.33072813401423	-11.74537800356641	3457.517948717949	3604.395604395604	0.2064102564102564	0.5862944162436548	0.08499335989375829
1480.499267578125	-4.857739522045472	-34.43676000581099	6.226047795452893	16.46361232020685	14.48994489121633	-13.5341934887833	3440.041025641025	3597.069597069597	0.2012820512820513	0.5862944162436548	0.102257636122178
1500.030517578125	-4.350208617265803	-34.39090468117692	4.979138273419734	18.08143112051763	10.893203209885	-16.47999554283521	3544.902564102564	3696.703296703297	0.1987179487179487	0.5862944162436548	0.09163346613545816
1519.561767578125	-5.178324364452948	-33.8945077765179	6.167563554705245	20.11623536761911	7.611141861675023	-17.24557800654157	3552.184615384615	3702.564102564103	0.1884615384615385	0.58248730964467	0.09827357237715803
1539.093017578125	-5.133065067165034	-34.05406582062485	6.693493283496643	21.80144288463316	5.449701094701696	-18.42352314193681	3550.728205128205	3696.703296703297	0.1961538461538462	0.5862944162436548	0.1075697211155378
1558.624267578125	-5.290833644197067	-33.59318109628403	6.916635580293331	24.88379979965346	2.937527601520776	-19.37051820160509	3533.251282051282	3690.84249084249	0.1935897435897436	0.58248730964467	0.1128818061088977
1578.155517578125	-5.846717094304361	-33.74558496552182	7.328290569563916	26.24629857204267	6.751620071232093	-21.68286404508594	3556.553846153846	3687.912087912088	0.2128205128205128	0.581218274111675	0.1195219123505976
1597.686767578125	-7.852911592816524	-32.75779006048608	6.708840718347608	29.01764695368543	11.70540672439367	-23.87106174114866	3537.620512820513	3682.051282051282	0.2166666666666667	0.5748730964467005	0.1102257636122178
1617.218017578125	-6.797145101341577	-33.43796037072193	8.285489865842292	29.72021547479701	18.47287821422731	-25.93673858398238	3517.230769230769	3677.655677655677	0.2256410256410256	0.583756345177665	0.1168658698539177
1636.749267578125	-6.320484504212359	-33.20861834305321	7.951549578764251	32.4692884542574	23.44871526550882	-28.87479981883129	3528.882051282051	3671.794871794872	0.217948717948718	0.5926395939086294	0.1248339973439575
1656.280517578125	-4.996717771433286	-32.9563919739293	8.328222856671504	35.20497369200209	22.42976908097901	-30.26085803226564	3511.405128205128	3671.794871794872	0.2192307692307692	0.567258883248731	0.1367861885790173
1675.811767578125	-5.838468432865129	-33.36930072896006	8.153156713487054	36.16702481619054	18.02726354844546	-31.56819095671908	3525.969230769231	3673.260073260073	0.2230769230769231	0.5634517766497461	0.150066401062417
1695.343017578125	-5.675867617601906	-31.91198909083746	8.413238239809516	37.89914568022508	14.69287660392889	-30.79137579891723	3514.317948717948	3668.864468864469	0.2205128205128205	0.5634517766497461	0.1527224435590969
1714.874267578125	-6.434255706042329	-32.75217096766648	8.574429395767082	39.60021598364174	10.26271987528888	-30.68432273366996	3504.123076923077	3665.934065934066	0.2243589743589744	0.5710659898477157	0.1633466135458167
1734.405517578125	-6.421036302728337	-31.80398410347515	9.896369727166288	41.62680758246385	7.364290453553338	-31.85153744884662	3528.882051282051	3670.32967032967	0.2397435897435898	0.5532994923857868	0.1766268260292165
1753.936767578125	-6.658135457794554	-31.99682164916596	10.18645422054458	43.02924457593764	6.257319073456846	-31.19225463957215	3523.05641025641	3668.864468864469	0.2435897435897436	0.5532994923857868	0.1699867197875166
1773.468017578125	-6.891818189652732	-30.73157132075843	10.81818103472686	45.83760612585316	5.917435149396151	-30.38212320080234	3512.861538461538	3670.32967032967	0.241025641025641	0.5583756345177665	0.1739707835325365
1792.999267578125	-7.128194047913643	-29.73283170391491	11.18059520863573	46.93207214079245	5.514376826881971	-28.60877550356716	3491.015384615384	3667.399267399267	0.2346153846153846	0.5520304568527918	0.1899070385126162
1812.530517578125	-8.440680428388694	-30.18875892117357	11.93195716113083	44.86914238588493	8.073275118382957	-28.53965561449257	3530.338461538461	3680.58608058608	0.258974358974359	0.5444162436548223	0.1899070385126162
1832.061767578125	-8.31996865508653	-30.99837011990107	12.00313449134691	45.92254515942741	9.58837642824094	-28.7744691746089	3528.882051282051	3677.655677655677	0.2525641025641026	0.5545685279187816	0.2098273572377158
1851.593017578125	-8.595986718423941	-30.88420726054567	12.40132815760607	48.35082192879374	10.77479541001127	-29.52819619778444	3512.861538461538	3673.260073260073	0.2551282051282051	0.5431472081218274	0.2191235059760956
1871.124267578125	-8.432170148956054	-30.46658507263131	12.78298510439481	50.05942986830243	11.59420846235365	-30.91974518979731	3528.882051282051	3676.190476190476	0.2576923076923077	0.5418781725888324	0.2284196547144754
1890.655517578125	-8.354578561113348	-30.46495257635244	12.54214388866523	51.38975305976152	11.30962693050587	-32.93838573042893	3511.405128205128	3667.399267399267	0.2666666666666667	0.5304568527918782	0.2390438247011952
1910.186767578125	-7.941689966057375	-30.78966236505128	13.83100339426262	54.79999381284298	9.200335362926056	-34.70461535489644	3524.51282051282	3667.399267399267	0.2756410256410257	0.5241116751269035	0.2337317397078353
1929.718017578125	-7.73995479241074	-29.17803027504976	14.0045207589261	55.4599240641206	6.246956342803737	-34.95128435554357	3505.579487179487	3664.468864468864	0.2833333333333333	0.5266497461928934	0.2576361221779548
1949.249267578125	-7.969143850499783	-28.14808778791829	15.08561495002173	56.44537561080368	4.825304629585888	-36.47222113661464	3517.230769230769	3658.608058608058	0.2846153846153846	0.5101522842639593	0.2709163346613546
1968.780517578125	-7.965973655991421	-30.07436660744866	15.40263440085786	58.20562198264425	2.214080741778315	-34.99894340418101	3495.384615384615	3661.538461538461	0.2743589743589744	0.5114213197969543	0.2656042496679947
1988.311767578125	-9.119214087236365	-28.68497838727588	16.0785912763634	59.20277374057465	2.28285593821832	-36.62668211356089	3520.14358974359	3661.538461538461	0.2794871794871795	0.4974619289340101	0.2908366533864542
2007.843017578125	-9.951577279492964	-28.5689069477121	16.84227205070341	59.88554190419077	0.8088786286938848	-36.60522127312375	3521.6	3663.003663003663	0.2769230769230769	0.4911167512690355	0.2868525896414342
2027.374267578125	-10.38320941874022	-27.38065079476468	17.67905812597799	61.61350019307002	1.233634555501864	-37.22020624427322	3504.123076923077	3649.81684981685	0.2935897435897436	0.4847715736040609	0.300132802124834
2046.905517578125	-10.58020468991804	-25.84322403241354	17.97953100819572	63.33380834382601	3.543474517502099	-38.7185571645949	3530.338461538461	3658.608058608058	0.3051282051282052	0.482233502538071	0.3067729083665339
2066.436767578125	-10.42962291305788	-25.33531162704231	17.03770869421227	63.35135866069697	5.77911488198888	-38.87876005705812	3507.035897435897	3652.747252747252	0.2948717948717949	0.4619289340101522	0.3213811420982736
2085.968017578125	-10.93530710258996	-24.99841674946107	18.46928974100434	64.0633773524314	8.03120484660908	-39.12430403739302	3498.297435897436	3657.142857142857	0.3051282051282052	0.4581218274111675	0.3373173970783532
2105.499267578125	-11.40779720111837	-23.65504790379352	19.22027988816292	64.08329021195807	9.137999829792502	-38.82947371423154	3509.948717948718	3654.212454212454	0.3141025641025641	0.4467005076142132	0.3386454183266932
2125.030517578125	-12.31818288144211	-23.46325067435885	20.18171185578877	64.08857780742561	8.381761175903606	-38.40114098068403	3517.230769230769	3660.07326007326	0.3153846153846154	0.4289340101522842	0.3612217795484727
2144.561767578125	-11.23288495087122	-23.97940158423545	20.71150491287813	65.45118908184604	5.061199829440271	-38.33151881773254	3518.687179487179	3658.608058608058	0.3179487179487179	0.4302030456852792	0.3519256308100929
2164.093017578125	-13.11850617972479	-22.45492414309335	20.14938202752098	66.07770622985008	2.140896406497859	-39.70298312655896	3515.774358974359	3652.747252747252	0.3128205128205128	0.4213197969543147	0.3665338645418326
2183.624267578125	-12.3512846366834	-21.70058713233438	20.87153633166021	67.11063363370975	1.047750624454598	-39.75089331213485	3489.558974358974	3651.282051282051	0.3192307692307692	0.4098984771573604	0.3691899070385126
2203.155517578125	-12.86997277941725	-20.85055826201934	21.00272205827494	67.78867671201448	1.831464077536881	-40.63949890294712	3515.774358974359	3655.677655677655	0.3243589743589744	0.3972081218274111	0.3904382470119522
2222.686767578125	-12.70106235372476	-21.16885009966106	21.89376462752369	68.7934786080681	0.01515523878463054	-41.38387166315479	3509.948717948718	3649.81684981685	0.3333333333333333	0.3807106598984771	0.401062416998672
2242.218017578125	-12.5243957239924	-20.87959108799845	23.56042760075986	70.87339616969048	-1.809554796947398	-41.13146074699068	3482.276923076923	3642.490842490842	0.3307692307692308	0.3769035532994924	0.4050464807436919
2261.749267578125	-12.40426874385198	-20.22707318409412	23.57312561480228	70.85640836297563	-2.543743052716357	-41.45299155222938	3517.230769230769	3652.747252747252	0.3371794871794872	0.3629441624365482	0.4077025232403718
2281.280517578125	-13.47547008136627	-18.95592906397391	24.45299186337261	72.30575870346989	-4.823660610356083	-38.83894844975782	3496.841025641026	3657.142857142857	0.3435897435897436	0.3553299492385786	0.4143426294820717
2300.811767578125	-12.32873932136908	-18.06951174695569	23.12606786309192	73.35623642420053	-3.681166027912564	-39.04706152779693	3514.317948717948	3657.142857142857	0.3576923076923077	0.333756345177665	0.4316069057104913
2320.343017578125	-13.92181438541932	-17.98358285534187	23.81856145806787	74.43067707758195	1.943634482564485	-39.95051216015558	3515.774358974359	3658.608058608058	0.3538461538461539	0.3274111675126903	0.4382470119521912
2339.874267578125	-13.96225683376977	-15.8673513671233	23.77431662302263	73.06165318738174	3.017530265481068	-39.48499966125077	3505.579487179487	3654.212454212454	0.3628205128205128	0.3083756345177665	0.4448871181938911
2359.405517578125	-13.83569712885025	-16.29825359216894	24.43028711497526	73.42936274449625	5.634002157449022	-39.71457357972703	3521.6	3657.142857142857	0.358974358974359	0.2944162436548223	0.4555112881806109
2378.936767578125	-13.99212683732778	-14.18487497122202	24.78731626722216	73.12139176596178	6.337915215031332	-38.60050869176631	3495.384615384615	3657.142857142857	0.3730769230769231	0.2855329949238579	0.451527224435591
2398.468017578125	-13.51997530326142	-13.68174802062904	24.00246967385778	71.77700582059966	6.260915218524618	-36.93009943845059	3509.948717948718	3665.934065934066	0.3717948717948718	0.2703045685279188	0.4661354581673307
2417.999267578125	-13.71016850661063	-13.15119134678481	24.98314933893749	71.8074938710614	5.855232893930248	-35.77860364819409	3489.558974358974	3658.608058608058	0.3564102564102564	0.2550761421319797	0.4648074369189907
2437.530517578125	-13.63028391400216	-10.88264401608858	24.97160859978356	70.75757866048689	6.214190420204552	-36.05222426785689	3527.425641025641	3665.934065934066	0.367948717948718	0.2411167512690355	0.4794156706507304
2457.061767578125	-14.43119200544658	-10.41218838219126	24.88079945534211	71.4310091555114	2.120940819718904	-35.46892828348622	3528.882051282051	3665.934065934066	0.3666666666666666	0.232233502538071	0.4873837981407702
2476.593017578125	-14.62395522084868	-10.45595907309668	25.60447791513235	70.03273473719291	-0.5312306715091471	-34.73641096380936	3508.492307692307	3665.934065934066	0.3692307692307693	0.1954314720812183	0.49667994687915
2496.124267578125	-13.65498311486692	-10.12846705398441	26.50168851330804	70.73541576033573	-0.8984129978501607	-34.42011980021073	3517.230769230769	3671.794871794872	0.3730769230769231	0.2119289340101523	0.49800796812749
2515.655517578125	-14.13639900375868	-8.468390852357576	26.36009962413189	71.10312531745025	1.718058894117793	-34.64969371868699	3508.492307692307	3667.399267399267	0.3717948717948718	0.1967005076142132	0.50066401062417
2535.186767578125	-14.65217856997758	-6.890530413553412	26.78214300224191	71.14880114212726	4.676862315313562	-34.11343403651843	3528.882051282051	3670.32967032967	0.3730769230769231	0.1675126903553299	0.5112881806108898
2554.718017578125	-15.5296471665848	-6.999671746364741	27.03528334152043	70.16098705278846	7.227359409834771	-33.04753047107207	3508.492307692307	3673.260073260073	0.3858974358974359	0.1598984771573604	0.5139442231075697
2574.249267578125	-15.0921824850139	-5.770741843982108	26.78175149860942	69.84120336097546	13.57549937393388	-34.20863166123489	3502.666666666666	3671.794871794872	0.382051282051282	0.1383248730964467	0.5139442231075697
2593.780517578125	-14.25315572857226	-5.547389637218944	26.68442714277447	68.84810167616912	16.88223512234398	-33.57106082933603	3528.882051282051	3674.725274725275	0.3730769230769231	0.1269035532994924	0.5205843293492696
2613.311767578125	-14.64671537070347	-3.549894398666425	27.32846292965369	67.14061875697269	19.06572628743725	-33.14297923272698	3525.969230769231	3667.399267399267	0.3666666666666666	0.116751269035533	0.5285524568393094
2632.843017578125	-13.35914364120539	-2.801111076228712	28.0856358794612	66.1323292979511	19.00797629005721	-31.89017229274019	3528.882051282051	3674.725274725275	0.367948717948718	0.09517766497461928	0.5351925630810093
2652.374267578125	-13.74031551745577	-2.776127481215828	25.96844825442319	66.8731485096789	16.35002760392957	-29.53901938971285	3509.948717948718	3680.58608058608	0.3628205128205128	0.09010152284263959	0.5365205843293492
2671.905517578125	-12.93435973766794	-1.867065895724608	26.56402623320566	65.49771200369892	15.17725782329941	-28.53837222895171	3539.076923076923	3683.516483516483	0.3705128205128205	0.0748730964467005	0.5338645418326693
2691.436767578125	-13.49678363761045	0.333289935525015	26.3216362389551	65.16870314532552	11.77147168026265	-26.75567026874865	3530.338461538461	3686.446886446886	0.3641025641025641	0.06345177664974619	0.548472775564409
2710.968017578125	-13.38298165719302	-0.2001116031581293	25.70183428069825	63.44603245191382	10.59047709956577	-25.71235256405168	3531.794871794872	3689.377289377289	0.3628205128205128	0.04949238578680203	0.5312084993359894
2730.499267578125	-13.216779747197	1.253562929284349	26.32202528030059	61.34800206326435	8.6780946620932	-25.32282689005065	3549.271794871795	3690.84249084249	0.3705128205128205	0.04060913705583756	0.548472775564409
2750.030517578125	-13.53905741191476	2.028294139880062	26.09425880852394	59.59833088235884	9.77684124212298	-25.93943915538928	3539.076923076923	3686.446886446886	0.3628205128205128	0.01269035532994924	0.5524568393094289
2769.561767578125	-13.25162049262976	2.364136697556057	26.83795073702405	57.89613555862994	11.20409375332735	-25.08302482523273	3563.835897435898	3690.84249084249	0.35	0.01649746192893401	0.5391766268260292
2789.093017578125	-12.46210047854548	3.366721483330932	25.78995214545222	57.56532666775694	10.42860510031177	-24.2370897783563	3536.164102564102	3692.307692307692	0.3564102564102564	-0.005076142131979695	0.545816733067729
2808.624267578125	-11.64712657263193	3.72821322297363	27.28734273680737	56.8978587803873	8.132414339451699	-22.49181872044902	3527.425641025641	3692.307692307692	0.3615384615384615	-0.01776649746192893	0.548472775564409
2828.155517578125	-11.96608014990403	5.191894797556919	27.39198500959676	55.53063492268669	6.5760126323471	-21.08953930821757	3553.641025641025	3699.6336996337	0.3551282051282051	-0.01522842639593909	0.5577689243027888
2847.686767578125	-12.00473744018182	4.844784814583633	27.52625598181847	55.54886025174501	3.178451289377054	-19.34950789195036	3553.641025641025	3701.098901098901	0.3487179487179487	-0.04314720812182741	0.5511288180610889
2867.218017578125	-12.17383253739906	6.624801632003821	26.61674626009383	55.91195722557933	0.9179601277770755	-18.10718023524368	3454.605128205128	3601.465201465201	0.3487179487179487	-0.04060913705583756	0.5630810092961487
2886.749267578125	-12.96812323253962	7.550112157172702	27.18767674603848	54.16757364014136	1.260468053917961	-18.2954597670348	3467.71282051282	3598.534798534799	0.3615384615384615	-0.05076142131979695	0.547144754316069
2906.280517578125	-13.41215914253318	6.750896118573893	26.78408574668237	53.50708087870762	2.712394965322457	-17.56705706868576	3464.8	3602.930402930403	0.35	-0.06472081218274112	0.549800796812749
2925.811767578125	-13.84713075851982	8.288678989181941	27.28692414801792	51.77439750451696	4.545329801121196	-17.8621385287857	3463.343589743589	3601.465201465201	0.3666666666666666	-0.08248730964467005	0.547144754316069
2945.343017578125	-12.77174353311099	9.55176866074979	26.82564668890111	51.82299838200581	7.876739949731428	-17.35257932869434	3470.625641025641	3602.930402930403	0.358974358974359	-0.09263959390862943	0.5564409030544488
2964.874267578125	-13.05065478366962	8.899622869967855	26.93452163303798	52.86706348695668	6.772568968628198	-17.02555774487714	3448.779487179487	3594.139194139194	0.3538461538461539	-0.1053299492385787	0.547144754316069
2984.405517578125	-12.85215136170627	9.591442106092558	26.78486382937336	51.80072297982342	7.898790347851366	-18.10244286748054	3488.102564102564	3602.930402930403	0.3448717948717949	-0.1078680203045685	0.5524568393094289
3003.936767578125	-12.52205593577371	10.27035341820837	27.7944064226294	50.40886117728471	7.493284420170066	-17.90506020966	3473.538461538461	3602.930402930403	0.358974358974359	-0.1091370558375635	0.548472775564409
3023.468017578125	-12.45137414081573	10.54819557453158	26.86258591842689	52.52039180968108	8.265796277279312	-17.46462089864322	3448.779487179487	3598.534798534799	0.3525641025641026	-0.1383248730964467	0.5537848605577689
3042.999267578125	-12.8629238673172	11.52539925983653	25.7076132682797	51.82356089216193	9.378192058449251	-17.83431302639626	3472.082051282051	3601.465201465201	0.3538461538461539	-0.1408629441624365	0.548472775564409
3062.530517578125	-12.40549927177862	11.84955426449641	27.45007282213793	52.20184564021152	10.48218664263941	-17.20722147777751	3456.061538461538	3598.534798534799	0.3346153846153846	-0.1472081218274112	0.5365205843293492
3082.061767578125	-11.56551837912572	11.68732740907082	27.44816208742842	52.21298334130272	10.47116144357944	-16.83228970838442	3477.907692307692	3607.326007326007	0.3358974358974359	-0.1725888324873096	0.5418326693227091
3101.593017578125	-11.98788677911931	12.71391949306435	25.21132208806862	52.91566436444553	10.10397911723843	-16.51599854478578	3467.71282051282	3602.930402930403	0.3448717948717949	-0.1763959390862944	0.5431606905710491
3121.124267578125	-11.74252357332014	14.24456419366872	25.74764266798645	53.29631165515083	10.07912832012523	-15.43387378054233	3457.517948717949	3605.860805860806	0.3282051282051282	-0.1865482233502538	0.5338645418326693
3140.655517578125	-11.26538590808529	14.28111669024306	25.46140919147113	52.9602151688103	10.05987832099856	-15.0162714672134	3472.082051282051	3611.721611721612	0.3551282051282051	-0.1890862944162436	0.5325365205843293
3160.186767578125	-11.06637463942885	15.70319223197698	25.36253605711521	52.96550276427783	9.303639667109659	-14.58793873366589	3470.625641025641	3608.791208791209	0.332051282051282	-0.2017766497461929	0.5245683930942895
3179.718017578125	-11.43706640664916	15.5252832245618	24.29335933508402	52.62119362965794	9.668021594457413	-14.57196867180726	3458.974358974359	3610.25641025641	0.3384615384615385	-0.2055837563451776	0.5272244355909694
3199.249267578125	-11.4332806403916	16.05992113910321	24.67193596083978	51.2492446866459	10.36931064995953	-14.07975569082523	3464.8	3610.25641025641	0.3217948717948718	-0.215736040609137	0.5245683930942895
3218.780517578125	-11.47187637349447	17.5589028295371	24.81236265055345	50.20754212435074	10.3446362497594	-13.95174405901773	3479.364102564102	3608.791208791209	0.332051282051282	-0.2258883248730964	0.5166002656042497
3238.311767578125	-11.00677313595641	18.68453317500828	23.32268640435923	49.86852058519839	9.952779523218263	-13.5074412636116	3480.820512820513	3614.652014652014	0.3358974358974359	-0.2360406091370558	0.50199203187251
3257.843017578125	-11.52866225178608	17.5377950281501	23.13377482139185	49.51836134495484	9.571947995737091	-13.43807023759856	3480.820512820513	3614.652014652014	0.341025641025641	-0.25	0.5152722443559097
3277.374267578125	-9.60432217547981	18.20651924338845	23.56778245201926	49.91250887940704	8.407226618260562	-11.5259804883373	3466.25641025641	3617.582417582417	0.3307692307692308	-0.25	0.5046480743691899
3296.905517578125	-9.41154357078398	19.21181285264567	22.84564292160201	48.5177220240565	7.629113963164799	-11.30189734843955	3467.71282051282	3616.117216117216	0.3153846153846154	-0.2576142131979695	0.5152722443559097
3316.436767578125	-9.857657035431078	19.60700283655462	22.23429645689213	48.8890316461702	4.984990875090389	-9.657937440262574	3480.820512820513	3621.978021978022	0.308974358974359	-0.2741116751269035	0.5033200531208499
3335.968017578125	-10.60801191254449	18.68178433936224	23.19880874555095	49.26382883125183	4.214926623148264	-8.522411711864711	3470.625641025641	3626.373626373626	0.3205128205128205	-0.2893401015228426	0.50066401062417
3355.499267578125	-11.17734560537173	20.15834983065621	22.26543946282747	47.92698052198175	9.387496407623944	-8.350604515809133	3491.015384615384	3626.373626373626	0.3282051282051282	-0.2982233502538071	0.49535192563081
3375.030517578125	-10.8950948780737	21.46096890377751	22.49051219262963	47.98143150509424	13.46412001106311	-7.894446279872182	3480.820512820513	3626.373626373626	0.3153846153846154	-0.2906091370558375	0.4926958831341301
3394.561767578125	-11.08619604975297	21.26167339486588	23.38039502470289	47.9942567366538	17.95745113815661	-8.964715603584823	3486.646153846154	3627.838827838828	0.3166666666666667	-0.3185279187817259	0.4900398406374502
3414.093017578125	-10.4937174747277	20.91711618793651	22.62825252722981	49.07927258097027	22.06977434085586	-9.011500768848471	3482.276923076923	3626.373626373626	0.3115384615384615	-0.3248730964467005	0.4820717131474103
3433.624267578125	-9.02007687260004	21.44720071824911	21.99231273999603	49.80771656926341	23.5546004525272	-8.453780246242763	3470.625641025641	3629.304029304029	0.3102564102564103	-0.3210659898477157	0.4820717131474103
3453.155517578125	-8.26758288365817	22.0241048663409	21.24171163418294	50.52266031380965	26.17929714456186	-8.72602470865486	3507.035897435897	3632.234432234432	0.3012820512820513	-0.3299492385786802	0.4820717131474103
3472.686767578125	-8.065801542130346	22.5203057113978	21.41984578696539	51.93803504087423	22.43100307538422	-6.755043216660678	3482.276923076923	3629.304029304029	0.3038461538461538	-0.3388324873096447	0.4794156706507304
3492.218017578125	-7.912418913811337	23.0253892567956	20.75810861886628	51.93398496775016	19.05549213053411	-5.76487533917965	3479.364102564102	3632.234432234432	0.3012820512820513	-0.3515228426395939	0.4754316069057105
3511.749267578125	-8.392973002254223	23.53074888612292	20.70269977457762	52.97692505238877	14.94841693199523	-4.47438635995862	3489.558974358974	3635.164835164835	0.3064102564102564	-0.3578680203045685	0.4701195219123506
3531.280517578125	-7.477708915818101	23.14171677420705	20.2291084181899	52.96061225786127	8.581026968769447	-2.895682856466864	3499.753846153846	3638.095238095238	0.2961538461538462	-0.350253807106599	0.450199203187251
3550.811767578125	-9.454002632184798	24.37008112004511	18.59973678152004	53.28095845983042	3.734339113388162	-2.216315364005951	3496.841025641026	3642.490842490842	0.2974358974358974	-0.3743654822335025	0.4594953519256308
3570.343017578125	-8.890870824730719	25.39977953297803	18.91291752692818	51.17707796555729	1.076743221086661	-1.773388725850517	3501.210256410256	3639.560439560439	0.2820512820512821	-0.3794416243654822	0.447543160690571
3589.874267578125	-9.974953001096951	25.87624099264638	18.50469989030511	51.179440508213	-0.05210216021669795	-1.318355510225809	3480.820512820513	3638.095238095238	0.2923076923076923	-0.3857868020304568	0.4395750332005312
3609.405517578125	-9.454264250178207	26.0241915080646	18.57357498217919	49.40513138246939	2.19754019923638	-3.139864529975343	3496.841025641026	3636.630036630037	0.3025641025641025	-0.3972081218274111	0.4302788844621514
3628.936767578125	-8.936499465068151	26.4827875366419	18.350053493185	50.10893742592445	4.833262090331012	-3.787040761780535	3492.471794871794	3633.699633699634	0.3128205128205128	-0.3959390862944162	0.4329349269588313
3648.468017578125	-9.467914553716637	27.15336293002303	17.20854462833624	49.82729192269642	8.890635694643493	-2.913280212514655	3483.733333333333	3641.025641025641	0.3	-0.4073604060913705	0.4223107569721115
3667.999267578125	-10.43753301003505	27.4419083401354	16.24669899649493	49.1538614276719	12.98388529512914	-3.496576196885324	3499.753846153846	3636.630036630037	0.2961538461538462	-0.4124365482233502	0.4143426294820717
3687.530517578125	-9.84365400928036	27.59593670321931	15.63459907196403	48.89505383678237	18.52066061003951	-2.354685806535163	3493.928205128205	3638.095238095238	0.3012820512820513	-0.4124365482233502	0.4156706507304117
3707.061767578125	-7.89281418474293	29.00866540351344	14.71858152570689	47.85683883745517	20.37004504597167	-2.735108354506776	3502.666666666666	3642.490842490842	0.2871794871794872	-0.4289340101522842	0.4090305444887118
3726.593017578125	-7.89289113121158	28.20105081175446	14.71088687884194	46.5405783998991	21.01620810617394	-0.3682365265592669	3489.558974358974	3643.956043956044	0.3012820512820513	-0.4390862944162436	0.4037184594953519
3746.124267578125	-7.852925750966755	29.27760885463027	14.70742490332445	45.88481072377677	20.21044425497172	1.270232603039196	3489.558974358974	3651.282051282051	0.2858974358974359	-0.4352791878172588	0.401062416998672
3765.655517578125	-9.027741972021033	29.61186554558739	13.22580279789671	45.17864213766602	18.70356774518044	1.462375619219681	3499.753846153846	3651.282051282051	0.2935897435897436	-0.4441624365482233	0.3904382470119522
3785.186767578125	-8.829623282400927	29.26561182291724	13.03767175990732	43.72231667123585	17.2353676305556	-0.1347991236936483	3491.015384615384	3645.421245421245	0.2858974358974359	-0.449238578680203	0.3930942895086321
3804.718017578125	-8.505052612917403	29.75779544673888	13.49473870825962	41.97208298017423	16.83266210186756	-0.2696776913303678	3493.928205128205	3643.956043956044	0.2884615384615384	-0.4530456852791878	0.3811420982735724
3824.249267578125	-8.595047971506414	29.76869075891379	12.49520284935851	40.90517996288484	16.4574313723729	-0.8648291162318529	3498.297435897436	3641.025641025641	0.2897435897435898	-0.4467005076142132	0.3811420982735724
3843.780517578125	-7.830581112042677	30.41042538470157	12.94188879573236	39.48811770535192	15.70136911539708	-1.390609515120301	3504.123076923077	3642.490842490842	0.2884615384615384	-0.4581218274111675	0.3798140770252324
3863.311767578125	-7.838014140914223	30.9948558207849	12.19858590857774	37.77478468053182	17.13964682566141	-0.9091269543568457	3496.841025641026	3639.560439560439	0.2923076923076923	-0.4568527918781726	0.3731739707835325
3882.843017578125	-9.01630834235146	32.02493296423651	10.36916576485405	36.72543198011341	19.00005646065354	-1.664481271721556	3498.297435897436	3638.095238095238	0.2923076923076923	-0.4695431472081218	0.3612217795484727
3902.374267578125	-8.029269205530788	30.18033112835533	13.07307944692109	35.68316690766213	17.47392995173559	-1.054735942212139	3485.189743589744	3641.025641025641	0.2782051282051282	-0.4796954314720812	0.3625498007968127
3921.905517578125	-7.643358042383346	32.30594546896102	11.66419576166539	35.37812098193948	18.55044973673236	0.03262846367137229	3473.538461538461	3641.025641025641	0.2846153846153846	-0.4733502538071066	0.3559096945551128
3941.436767578125	-7.411075736254591	32.54210957054021	10.89242637454094	36.83152139555781	19.64604312394275	1.656503688661904	3501.210256410256	3643.956043956044	0.2884615384615384	-0.483502538071066	0.3532536520584329
3960.968017578125	-6.76458135580909	32.14453486167487	11.5418644190911	36.81340856853072	15.90895065073814	2.298440278827039	3485.189743589744	3643.956043956044	0.2858974358974359	-0.4873096446700507	0.3532536520584329
3980.499267578125	-7.45214914564797	33.23590140633522	10.78508543520307	37.1460174919033	14.05414181373254	2.389272145277225	3508.492307692307	3649.81684981685	0.2884615384615384	-0.4898477157360406	0.3373173970783532
4000.06103515625	-8.447559442685963	32.01049657557436	11.24405573140388	37.17650554236505	13.64845948913817	3.540767935533718	3517.230769230769	3654.212454212454	0.2756410256410257	-0.498730964467005	0.3333333333333333
4019.561767578125	-7.856250453984165	32.59019757390862	10.3749546015835	37.20350602985886	11.36871832841151	5.200697905569327	3507.035897435897	3652.747252747252	0.2897435897435898	-0.4936548223350253	0.3227091633466135
4039.093017578125	-8.022744760561057	33.86758759278204	9.725523943894327	38.27569664261577	10.98771040401727	6.224182064018316	3520.14358974359	3661.538461538461	0.2846153846153846	-0.5012690355329948	0.3280212483399734
4058.624267578125	-7.745418607256606	34.48287279332917	9.458139274339398	39.68634628436892	9.497107097446342	7.285097124763083	3485.189743589744	3657.142857142857	0.2858974358974359	-0.515228426395939	0.3147410358565737
4078.155517578125	-8.312351570261976	33.95701354750305	8.764842973802496	37.95017534721031	9.455983097112796	7.498449844442256	3518.687179487179	3663.003663003663	0.2807692307692308	-0.5025380710659898	0.3187250996015936
4097.686767578125	-7.63738761198789	34.37837687272315	8.261238801210951	40.43650316468832	9.458430702279916	9.074414883856896	3507.035897435897	3661.538461538461	0.2897435897435898	-0.5101522842639593	0.3027888446215139
4117.218017578125	-8.480138577512179	33.46647842482576	7.986142248782091	41.12512143392811	8.72966684758441	9.042474760139635	3511.405128205128	3668.864468864469	0.2820512820512821	-0.5241116751269035	0.3067729083665339
4136.749267578125	-7.0435086112332	34.53240523580707	7.649138876680048	41.80968963004383	4.625392048038792	10.0007025139034	3518.687179487179	3667.399267399267	0.2897435897435898	-0.5101522842639593	0.2934926958831341
4156.280517578125	-8.084963059539332	33.42888961321165	7.503694046066927	40.37980214095134	-0.6240013360305332	10.54519143872759	3523.05641025641	3668.864468864469	0.3102564102564103	-0.5101522842639593	0.2828685258964143
4175.811767578125	-8.812250000923358	33.8280648086249	6.774999907664236	39.35452487521491	-1.415939589179527	11.4764675734757	3521.6	3670.32967032967	0.2935897435897436	-0.5177664974619289	0.2735723771580345
4195.343017578125	-8.532215331922444	34.67138363908782	6.77846680775571	37.95445042439683	-1.437813590386396	11.27221797982594	3520.14358974359	3671.794871794872	0.3064102564102564	-0.5203045685279187	0.2682602921646746
4214.874267578125	-8.970480256767289	34.44326198241188	6.951974323271196	38.66298155316329	-1.059782461898482	11.53510817927016	3504.123076923077	3667.399267399267	0.3102564102564103	-0.5317258883248731	0.2602921646746348
4234.405517578125	-9.299806218013355	34.84049658788579	6.0193781986647	38.66703162628736	2.315728482951627	10.54494030178914	3523.05641025641	3665.934065934066	0.3076923076923077	-0.5253807106598984	0.2669322709163347
4253.936767578125	-10.35969704020792	34.83252477984076	4.030295979208447	39.67880864827689	4.247537316463949	8.783699182023229	3507.035897435897	3657.142857142857	0.3064102564102564	-0.532994923857868	0.2443559096945551
4273.468017578125	-12.67225667372112	34.80974847122756	4.774332627888108	38.2511711998089	5.003952367265913	7.401253316039773	3499.753846153846	3658.608058608058	0.3115384615384615	-0.5266497461928934	0.2443559096945551
4292.999267578125	-11.36123227615041	34.92099844506576	3.876772384958873	35.39769633537249	3.886484978848662	5.573128497399481	3514.317948717948	3655.677655677655	0.3153846153846154	-0.5291878172588832	0.2350597609561753
4312.530517578125	-8.92576020033167	35.63194087925806	3.423979966832993	33.5941366815106	2.410060064157106	4.018624298421988	3515.774358974359	3652.747252747252	0.3243589743589744	-0.5291878172588832	0.2430278884462151
4332.061767578125	-9.806168152041298	35.87192214125401	3.383184795870252	31.09498363247303	-2.085718668103514	3.512928582719987	3523.05641025641	3649.81684981685	0.3141025641025641	-0.5368020304568527	0.2217795484727756
4351.593017578125	-10.65722933617974	37.73764778338768	2.277066382026289	27.66426750970877	-2.584674192424949	5.466061581727923	3517.230769230769	3654.212454212454	0.332051282051282	-0.5406091370558376	0.2191235059760956
4371.124267578125	-11.0168869797957	36.97167123420904	2.311302020429594	27.76968191296582	3.694514178321085	6.886812233380937	3492.471794871794	3655.677655677655	0.3230769230769231	-0.5317258883248731	0.2138114209827357
4390.655517578125	-11.63274189199671	36.76291546476283	0.7258108003294541	27.15598999652134	11.108148728357	7.188007218494722	3525.969230769231	3663.003663003663	0.3256410256410257	-0.5355329949238579	0.2045152722443559
4410.186767578125	-10.21979543319631	36.04353184906672	2.020456680369294	26.50190985086737	14.80674120330824	7.381275254987447	3502.666666666666	3658.608058608058	0.3333333333333333	-0.5317258883248731	0.2045152722443559
4429.718017578125	-10.06381201423694	37.04598859591777	1.618798576305658	23.73809910531663	15.10252433112906	8.070870893790016	3508.492307692307	3661.538461538461	0.3307692307692308	-0.5368020304568527	0.1938911022576361
4449.249267578125	-11.26991405387238	36.6026131944111	1.00859461276228	21.32624763250901	13.14884149640987	9.627862419906165	3524.51282051282	3665.934065934066	0.3346153846153846	-0.5406091370558376	0.1938911022576361
4468.780517578125	-9.027913100967311	36.03973069351544	1.208689903269055	21.3145474212617	11.65841458675202	9.734664348214981	3521.6	3661.538461538461	0.3423076923076923	-0.5317258883248731	0.1885790172642762
4488.311767578125	-11.63241871682838	36.9548967501505	0.7581283171622633	20.87539907431983	4.231130835575947	9.186549225515606	3517.230769230769	3663.003663003663	0.3346153846153846	-0.5418781725888324	0.197875166002656
4507.843017578125	-12.55123773011611	36.23213472280188	0.8762269883890854	18.36859588715902	1.620436138507582	7.797487560641391	3499.753846153846	3654.212454212454	0.3346153846153846	-0.5355329949238579	0.1779548472775564
4527.374267578125	-12.43994420457666	36.97049749277626	0.005579542334716026	17.25241698019345	3.546996967859522	4.792542626918104	3486.646153846154	3643.956043956044	0.3384615384615385	-0.5406091370558376	0.1819389110225763
4546.905517578125	-11.48756175723574	37.77628352865424	-0.7561757235738127	13.40820297360643	4.607419946549015	4.057021855801384	3492.471794871794	3641.025641025641	0.3461538461538462	-0.5393401015228426	0.1819389110225763
4566.436767578125	-10.52663825187472	38.22728924977808	-0.6638251874723762	12.67390887968963	2.377380380048754	3.552702297350083	3488.102564102564	3641.025641025641	0.3435897435897436	-0.5431472081218274	0.1806108897742364
4585.968017578125	-10.72901977585802	38.23169458900121	-0.901977585801468	11.94253983858466	0.5199475409629565	3.021682256821579	3491.015384615384	3641.025641025641	0.3435897435897436	-0.5469543147208121	0.1819389110225763
4605.499267578125	-12.44739262274193	36.5934050105078	-0.7392622741928931	9.487262581724517	1.613269719919288	2.11547930996152	3498.297435897436	3635.164835164835	0.3512820512820513	-0.5279187817258882	0.1912350597609562
4625.030517578125	-11.91788580651595	37.69398774150419	0.211419348404992	7.421407774005163	3.799561284005812	2.211299681113304	3502.666666666666	3635.164835164835	0.3435897435897436	-0.5406091370558376	0.1806108897742364
4644.561767578125	-12.84790822563906	36.98254115404929	-0.7908225639055809	6.377342669054293	4.903732265109043	1.884278097296099	3502.666666666666	3638.095238095238	0.3538461538461539	-0.5368020304568527	0.1739707835325365
4664.093017578125	-11.69194388940392	37.7827094821441	-1.194388940391725	5.610197982020035	4.208220404506511	-0.2265704670364025	3495.384615384615	3630.769230769231	0.3474358974358974	-0.5431472081218274	0.1845949535192563
4683.624267578125	-12.13164001856565	37.13295641875129	-1.164001856564396	2.817136708351004	0.7779362581826954	0.7300299925382052	3473.538461538461	3629.304029304029	0.3525641025641026	-0.5342639593908629	0.1779548472775564
4703.155517578125	-12.00520342799596	38.0098708468913	-0.5203427995956923	2.097467878493347	0.4109303287547511	0.09220802370088538	3501.210256410256	3627.838827838828	0.3474358974358974	-0.5368020304568527	0.1686586985391766
4722.686767578125	-12.32686552096453	37.24551879155878	-0.6865520964527061	1.038777509483334	-0.3479323272143351	-0.1013111497302996	3479.364102564102	3632.234432234432	0.3435897435897436	-0.5380710659898477	0.1726427622841965
4742.218017578125	-11.71374990304745	37.30319509438562	0.6250096952550499	1.708045429352561	-0.6820390563754416	-0.9098152943109577	3486.646153846154	3630.769230769231	0.3461538461538462	-0.5393401015228426	0.1739707835325365
4761.749267578125	-11.28256405331836	37.23077430923615	-0.2564053318362627	2.709359762438245	-4.372406731259978	-1.145753874739518	3491.015384615384	3626.373626373626	0.3602564102564103	-0.5482233502538071	0.1792828685258964
4781.280517578125	-10.76504549690798	36.30500364418475	-0.5045496907983103	4.747089062351556	-7.281861352055492	-1.938036820523087	3482.276923076923	3624.908424908425	0.3474358974358974	-0.5406091370558376	0.1739707835325365
4800.811767578125	-12.20881609547764	37.09244271797088	-0.8816095477640586	2.624983239020115	-6.541895901386945	-3.235141598634874	3495.384615384615	3624.908424908425	0.3487179487179487	-0.5380710659898477	0.1766268260292165
4820.343017578125	-13.00281439403733	37.28668869182385	-0.2814394037325809	0.570266132391954	-4.36662953636039	-2.764389458089994	3482.276923076923	3624.908424908425	0.3448717948717949	-0.5482233502538071	0.1819389110225763
4839.874267578125	-11.63400381408256	36.91803615991569	0.5996185917441979	-0.476161515214624	-2.1336131739538	-3.546444257531906	3467.71282051282	3620.51282051282	0.3461538461538462	-0.5368020304568527	0.1713147410358566
4859.405517578125	-11.11273027000208	37.6038575727021	0.7269729997919363	-3.312086062780065	-1.015440197884271	-5.53477196863542	3489.558974358974	3616.117216117216	0.3423076923076923	-0.5406091370558376	0.1912350597609562
4878.936767578125	-10.27027170105866	37.2468205719154	0.9728298941339706	-2.612892602605208	-3.256681360357571	-4.710046625257673	3467.71282051282	3617.582417582417	0.3551282051282051	-0.5393401015228426	0.1912350597609562
4898.468017578125	-11.44217934559799	37.30890883136166	-0.2179345597984863	-4.666372186889904	-5.213164594070021	-2.820793873684261	3473.538461538461	3621.978021978022	0.3487179487179487	-0.5431472081218274	0.1938911022576361
4917.999267578125	-12.59595840212348	37.04499490922163	0.4041597876523693	-6.681263574464706	-0.8243082626766233	-1.760381086816411	3474.994871794872	3621.978021978022	0.3487179487179487	-0.5456852791878172	0.1819389110225763
4937.530517578125	-11.55316508526284	35.80100442842316	0.6834914737157019	-5.663073936695397	3.354166134382448	-4.056756868438639	3470.625641025641	3620.51282051282	0.3448717948717949	-0.5342639593908629	0.1965471447543161
4957.061767578125	-10.11054868372293	36.89934647825247	0.9451316277071304	-8.458497753020136	1.052727369361992	-3.55518962448874	3476.451282051281	3617.582417582417	0.3423076923076923	-0.5317258883248731	0.1845949535192563
4976.593017578125	-11.62389304810201	36.63859351704456	1.610695189799237	-8.159864443077257	-2.270457979181532	-4.107419368515933	3485.189743589744	3617.582417582417	0.3384615384615385	-0.5444162436548223	0.1899070385126162
4996.124267578125	-9.507497663905212	37.1210341790058	1.25023360947882	-8.166839569013156	-6.018575651446104	-3.0905510089577	3464.8	3617.582417582417	0.3384615384615385	-0.5368020304568527	0.1819389110225763
5015.655517578125	-10.01709073404469	35.23110779523129	2.290926595531195	-9.59380200529381	-10.89536230810097	-2.572762566210711	3495.384615384615	3619.047619047619	0.3346153846153846	-0.5418781725888324	0.1925630810092961
5035.186767578125	-11.02673612778285	36.59700348906068	1.326387221715401	-10.33450871499039	-15.37206743814798	-2.541947462805692	3467.71282051282	3617.582417582417	0.3435897435897436	-0.5431472081218274	0.1912350597609562
5054.718017578125	-11.94483184426527	37.06581862424638	1.516815573472797	-10.6928806035133	-15.36926703915472	-2.874208688262954	3461.887179487179	3614.652014652014	0.3384615384615385	-0.5304568527918782	0.1938911022576361
5074.249267578125	-12.79484655643008	36.31510271430206	0.5153443569922178	-11.42199960399379	-11.22089144336923	-5.332163519599106	3479.364102564102	3611.721611721612	0.3371794871794872	-0.5418781725888324	0.200531208499336
5093.780517578125	-11.99175318527602	35.38090148635954	0.824681472398378	-12.7840483682581	-6.398877988188069	-5.883519380252515	3470.625641025641	3608.791208791209	0.3358974358974359	-0.5368020304568527	0.2031872509960159
5113.311767578125	-11.18604363418787	36.90559637822206	1.395636581212996	-15.59702250145381	-10.93595711769531	-5.221749243839392	3485.189743589744	3610.25641025641	0.3205128205128205	-0.5317258883248731	0.2084993359893758
5132.843017578125	-9.805321740886154	35.7556826506027	3.467825911384752	-18.76600598051672	-16.59908122951264	-4.437207117258823	3473.538461538461	3608.791208791209	0.3230769230769231	-0.5291878172588832	0.201859229747676
5152.374267578125	-11.09250873804098	36.04497228695985	2.749126195902016	-21.54556701043885	-21.16923595619979	-2.650641672666411	3457.517948717949	3611.721611721612	0.3358974358974359	-0.5355329949238579	0.2164674634794156
5171.905517578125	-12.55988589762057	36.85471552582754	4.011410237943103	-21.51575397216444	-15.94171657333733	-3.399380191140362	3483.733333333333	3610.25641025641	0.3358974358974359	-0.5355329949238579	0.2098273572377158
5191.436767578125	-12.80106321552521	36.85830461691123	3.893678447478802	-20.05954100776551	-7.338862642537833	-4.184173454659391	3460.430769230769	3607.326007326007	0.3384615384615385	-0.5380710659898477	0.2204515272244356
5210.968017578125	-11.88698410470629	36.4320077919072	3.301589529370775	-20.70315846451562	1.981906340810272	-5.516207957504012	3470.625641025641	3608.791208791209	0.3371794871794872	-0.5380710659898477	0.2204515272244356
5230.499267578125	-11.91162174839613	36.03227642741855	4.837825160387218	-23.53852050192494	4.601531425597624	-7.986269366309438	3464.8	3602.930402930403	0.3333333333333333	-0.5368020304568527	0.2270916334661355
5250.030517578125	-10.2018361274135	34.14077756561071	3.816387258649706	-23.93559308918897	5.393646075659687	-9.871658633493494	3558.010256410256	3701.098901098901	0.3397435897435898	-0.5317258883248731	0.2337317397078353
5269.561767578125	-9.657293971213402	34.64925152631015	6.270602878659727	-24.27517713849744	3.500337240400723	-8.945622140385446	3469.169230769231	3598.534798534799	0.3346153846153846	-0.5241116751269035	0.2350597609561753
5289.093017578125	-8.694677643542098	34.86777826613137	6.532235645790165	-22.88961544970729	-5.475476211639377	-6.225902129917312	3479.364102564102	3605.860805860806	0.3243589743589744	-0.5291878172588832	0.2324037184594953
5308.624267578125	-9.373196528667792	35.33462080164677	6.680347133220806	-21.51114138888425	-11.0647535197694	-4.871281766323302	3457.517948717949	3605.860805860806	0.3205128205128205	-0.5215736040609137	0.2549800796812749
5328.155517578125	-11.61675180023958	35.7836885490112	6.324819976041947	-23.66373526267745	-9.919105744506481	-7.319882334691582	3466.25641025641	3598.534798534799	0.3256410256410257	-0.5304568527918782	0.252324037184595
5347.686767578125	-11.61339693420646	35.39568474970236	6.660306579353969	-23.66441027486479	-4.285904037049654	-9.220116643422026	3539.076923076923	3702.564102564103	0.3269230769230769	-0.5317258883248731	0.2416998671978752
5367.218017578125	-10.92996886438093	35.65465316840935	7.003113561907435	-24.35190352379233	-0.5542359649184997	-10.15164391510859	3530.338461538461	3695.238095238095	0.3230769230769231	-0.532994923857868	0.2669322709163347
5386.749267578125	-10.04497490313979	33.9485015752481	7.502509686021472	-24.3736164158186	0.969266541919261	-11.38324115159669	3552.184615384615	3696.703296703297	0.3051282051282052	-0.515228426395939	0.2656042496679947
5406.280517578125	-9.642427913470312	34.48039065414346	7.757208652968962	-24.03751992947807	0.9885165410459396	-11.80084346492562	3537.620512820513	3690.84249084249	0.3128205128205128	-0.515228426395939	0.2682602921646746
5425.811767578125	-8.006694342772512	34.73753051696947	7.330565722748945	-24.0702580205643	-4.61160956923098	-11.02540446437447	3555.097435897435	3699.6336996337	0.3153846153846154	-0.5126903553299492	0.2775564409030544
5445.343017578125	-8.709620032182091	34.22748546327314	9.037996781790893	-23.37218958070169	-9.855754949139927	-9.237211725592896	3547.815384615385	3704.029304029304	0.308974358974359	-0.5177664974619289	0.2855245683930943
5464.874267578125	-8.844813130884099	33.24403049296216	7.518686911590353	-22.68177127896232	-13.21481629385662	-8.332384935983539	3537.620512820513	3702.564102564103	0.3192307692307692	-0.5101522842639593	0.2828685258964143
5484.405517578125	-9.753090477966842	34.16446753659265	8.690952203315959	-23.0143802023349	-11.36000745685101	-8.423216802433725	3549.271794871795	3704.029304029304	0.3128205128205128	-0.5114213197969543	0.2762284196547145
5503.936767578125	-10.75594919317011	34.56197022356334	8.405080682989166	-22.24847303764411	-6.532745997509472	-7.730868849129755	3456.061538461538	3601.465201465201	0.3076923076923077	-0.5139593908629442	0.2921646746347941
5523.468017578125	-9.465484276450811	33.07706219613839	9.451572354918969	-22.25499815545511	-1.644757744881571	-9.577702193705791	3544.902564102564	3702.564102564103	0.308974358974359	-0.5012690355329948	0.2921646746347941
5542.999267578125	-8.31996927065828	33.00316896336486	8.003072934171987	-22.58411951585974	2.084109928256322	-10.17696823993509	3547.815384615385	3699.6336996337	0.3051282051282052	-0.5063451776649746	0.2895086321381142
5562.530517578125	-8.260690326782418	33.79098953774255	9.93096732175812	-23.30963845134105	0.9718905439994513	-10.76138924461801	3547.815384615385	3695.238095238095	0.3051282051282052	-0.5038071065989848	0.3027888446215139
5582.061767578125	-7.147507611544679	32.5559057645832	9.249238845532117	-23.66272274439643	0.2184522891038151	-10.66531773652776	3566.748717948718	3699.6336996337	0.3	-0.4974619289340101	0.300132802124834
5601.593017578125	-7.497285328586045	33.08764279725651	10.2714671413956	-22.61157001147844	-4.272254835909494	-8.973196505836434	3558.010256410256	3702.564102564103	0.2961538461538462	-0.498730964467005	0.3173970783532537
5621.124267578125	-6.722846206785324	32.79622851500702	11.71537932146757	-21.89651376490097	-8.782211960049482	-6.863472961816172	3447.323076923077	3597.069597069597	0.3	-0.4961928934010152	0.3200531208499336
5640.655517578125	-9.25289965072459	32.56235172415491	10.71003492754105	-20.49407677142719	-9.889183340145973	-6.204190152541706	3476.451282051281	3605.860805860806	0.3	-0.4936548223350253	0.3200531208499336
5660.186767578125	-9.319611007900248	33.35742250259462	12.03889920997522	-20.82904823745547	-6.905529121837005	-6.750055234616601	3460.430769230769	3604.395604395604	0.2948717948717949	-0.498730964467005	0.3266932270916335
5679.718017578125	-8.562254002139728	32.77556884985343	11.77459978602726	-20.80564781496084	-3.924675302521298	-6.963659091234232	3461.887179487179	3607.326007326007	0.2948717948717949	-0.498730964467005	0.3346613545816733
5699.249267578125	-8.087163112970957	31.92957320563913	11.28368870290414	-22.55824404867818	-3.19853544990598	-7.553570874495659	3474.994871794872	3602.930402930403	0.2846153846153846	-0.4847715736040609	0.3266932270916335
5718.780517578125	-8.397206289173447	32.11502450591133	12.27937108265528	-21.50776632794753	-2.056040867462461	-7.761683952534774	3467.71282051282	3597.069597069597	0.2884615384615384	-0.4898477157360406	0.3227091633466135
5738.311767578125	-7.795371023560393	32.37640165687292	12.46289764396069	-22.17647173766063	-0.2204820295835318	-7.434913505656027	3485.189743589744	3602.930402930403	0.2884615384615384	-0.482233502538071	0.3386454183266932
5757.843017578125	-7.752373952450776	30.8729746150522	12.76260475492242	-21.79931200992328	-2.119391662829016	-5.844354561633459	3476.451282051281	3602.930402930403	0.2807692307692308	-0.4809644670050761	0.3559096945551128
5777.374267578125	-6.914978461144496	31.17489747652517	12.50215388555044	-20.39214993113808	-5.484053805532224	-4.275005321109575	3444.410256410256	3604.395604395604	0.2820512820512821	-0.482233502538071	0.3532536520584329
5796.905517578125	-8.910308118283345	30.99787273792771	12.96918817166572	-20.41206279066476	-6.590848788715646	-4.56983564427106	3486.646153846154	3611.721611721612	0.2807692307692308	-0.4733502538071066	0.3572377158034528
5816.436767578125	-8.181082125889347	30.75058525484055	13.89178741106527	-21.07311806225463	-6.640373986028972	-3.359699248220101	3476.451282051281	3611.721611721612	0.2910256410256411	-0.4695431472081218	0.350597609561753
5835.968017578125	-6.915240079137905	30.82900786454466	12.47599208620959	-19.66663099565677	-4.371834421275353	-3.690584316426663	3466.25641025641	3614.652014652014	0.2653846153846154	-0.4746192893401015	0.350597609561753
5855.499267578125	-7.304783115605606	31.7839847929155	13.52168843943943	-19.95176406185275	-2.188519653095159	-2.308389587381667	3472.082051282051	3616.117216117216	0.2820512820512821	-0.4784263959390863	0.3612217795484727
5875.030517578125	-7.142751704210388	30.66494845202172	13.72482957896123	-19.9236385540467	-1.46535659638617	-1.611927012749882	3473.538461538461	3616.117216117216	0.2833333333333333	-0.465736040609137	0.3665338645418326
5894.561767578125	-8.263782959250381	30.52334386576596	13.62170407496186	-19.59924227895349	-2.936533506917345	-1.922727397769997	3485.189743589744	3620.51282051282	0.2833333333333333	-0.4631979695431472	0.3784860557768924
5914.093017578125	-6.500889501177589	28.84897531926629	13.91104988224112	-19.94940151919704	-3.317365034398518	-1.853356371756958	3476.451282051281	3617.582417582417	0.2858974358974359	-0.4758883248730964	0.3811420982735724
5933.624267578125	-7.334268386820363	29.50453414761164	14.57316131796374	-19.97516448434737	-5.169373472410866	-2.094785730764035	3466.25641025641	3617.582417582417	0.2769230769230769	-0.4631979695431472	0.3745019920318725
5953.155517578125	-6.496903674101542	29.88341117238102	14.30963258984577	-20.32588623474705	-7.051657108609862	-1.543681007049084	3482.276923076923	3617.582417582417	0.2756410256410257	-0.4555837563451776	0.3798140770252324
5972.686767578125	-7.731952359671187	28.81388726788328	14.80476403288138	-20.70473349295276	-9.657103801517847	-1.689038857965919	3473.538461538461	3617.582417582417	0.2820512820512821	-0.4479695431472081	0.3864541832669323
5992.218017578125	-7.848478245078811	30.15773225829883	15.15217549211883	-20.32937379771499	-8.925715944742148	-1.035246827269969	3473.538461538461	3620.51282051282	0.2897435897435898	-0.4631979695431472	0.3811420982735724
6011.749267578125	-8.412748860268907	29.97533788733313	14.72511397310936	-21.36758879704221	-7.07633150880999	-1.415669375241581	3485.189743589744	3620.51282051282	0.2833333333333333	-0.449238578680203	0.3917662682602922
6031.280517578125	-8.602665056330972	28.81330709150966	15.73349436690292	-23.10263471388857	-4.114551291707892	-2.165784050966232	3474.994871794872	3616.117216117216	0.2871794871794872	-0.4467005076142132	0.3904382470119522
6050.811767578125	-7.765161839968581	28.84589038144519	15.48381600314188	-22.74955042083319	-3.361113036812256	-2.261855559056475	3444.410256410256	3613.186813186813	0.2910256410256411	-0.4479695431472081	0.397078353253652
6070.343017578125	-7.613318141022563	28.19868209166356	14.66818589774368	-24.17370030633324	-0.7306391498780042	-4.152735604819046	3482.276923076923	3608.791208791209	0.2884615384615384	-0.432741116751269	0.4103585657370518
6089.874267578125	-7.759821755044302	28.49434304951782	16.01782449556973	-23.09622209810879	-1.867885728161142	-2.700918712822553	3453.148717948718	3611.721611721612	0.2782051282051282	-0.4289340101522842	0.4063745019920318
6109.405517578125	-7.114281510810057	28.48234740284123	16.57184891899445	-24.11621176837769	-3.416062635199031	-1.341309844526943	3488.102564102564	3614.652014652014	0.2769230769230769	-0.4289340101522842	0.4090305444887118
6128.936767578125	-7.034520032551434	28.0587113867231	16.54799674485659	-24.43003285253583	-3.457363032445648	-0.17384399241182	3464.8	3619.047619047619	0.2846153846153846	-0.4276649746192893	0.4103585657370518
6148.468017578125	-6.946263664153904	27.39572630079544	17.37363358460972	-24.77141693434389	-2.72037437768343	-0.1845744126303934	3477.907692307692	3624.908424908425	0.2769230769230769	-0.4302030456852792	0.4223107569721115
6167.999267578125	-7.623782245187153	28.36155852917748	17.62177548128477	-25.49108576420155	-3.087380307111375	-0.8223963814677138	3472.082051282051	3614.652014652014	0.2858974358974359	-0.4238578680203046	0.4302788844621514
6187.530517578125	-7.424278519131355	26.55236745816882	17.57214808686456	-26.52750073102918	-3.868293361200399	-0.2660520161127056	3469.169230769231	3617.582417582417	0.2692307692307692	-0.4149746192893401	0.4196547144754316
6207.061767578125	-6.792465524904187	25.86192864169169	16.75344750958137	-29.36747535171869	-6.12563132998098	-1.264211849735192	3485.189743589744	3617.582417582417	0.2730769230769231	-0.4073604060913705	0.4342629482071713
6226.593017578125	-7.705636667393042	26.01807764945158	17.43633326069586	-27.27934514181695	-8.333973292187441	-0.6101686821007819	3464.8	3614.652014652014	0.2807692307692308	-0.4137055837563451	0.4355909694555112
6246.124267578125	-7.661300727728921	26.16714450423698	17.86992722710781	-28.97625287007832	-7.662959434871969	0.674578381603272	3467.71282051282	3621.978021978022	0.2717948717948718	-0.3908629441624365	0.4355909694555112
6265.655517578125	-6.343720491029273	25.88715769593956	17.62795089707271	-32.06794745369023	-7.770058232652261	2.183408585205072	3480.820512820513	3627.838827838828	0.2782051282051282	-0.4048223350253807	0.4409030544488711
6285.186767578125	-7.300334994145914	25.66256911331814	17.96650058540873	-33.4410214170145	-10.07167339458579	3.639088961590923	3479.364102564102	3626.373626373626	0.2782051282051282	-0.381979695431472	0.4369189907038512
6304.718017578125	-6.850635824059745	25.30221910537727	18.9364175940255	-34.10263919876049	-11.62265070061694	5.330959055343793	3489.558974358974	3629.304029304029	0.2782051282051282	-0.3921319796954315	0.4555112881806109
6324.249267578125	-7.688323711946894	24.73136079522021	19.16762880531066	-33.73256709899025	-10.13502418995234	5.556418352492239	3469.169230769231	3629.304029304029	0.2846153846153846	-0.3794416243654822	0.448871181938911
6343.780517578125	-7.843168323170243	23.88160000640194	19.68316768297562	-36.51516568375543	-7.943131827879298	4.987716272729499	3492.471794871794	3630.769230769231	0.2923076923076923	-0.3629441624365482	0.4555112881806109
6363.311767578125	-8.275339087698045	23.41655401703656	20.46609123019551	-37.83615120662292	-5.039278005070305	6.444521669427592	3457.517948717949	3626.373626373626	0.2884615384615384	-0.3718274111675127	0.4634794156706507
6382.843017578125	-8.277678260344992	23.26507042756382	20.2321739655009	-38.15469737609247	-2.822887639710202	6.701921090293299	3496.841025641026	3630.769230769231	0.2743589743589744	-0.3629441624365482	0.4741035856573705
6402.374267578125	-7.714792681590588	22.91040214686803	20.52073184094118	-38.81282759487051	-2.499806109609065	7.885357004267053	3466.25641025641	3633.699633699634	0.2910256410256411	-0.3527918781725888	0.4727755644090305
6421.905517578125	-7.08305663383207	22.41234873863193	19.69433661679304	-41.27980506297796	-2.896910840310587	7.085955985715809	3505.579487179487	3632.234432234432	0.2820512820512821	-0.3413705583756345	0.4807436918990704
6441.436767578125	-7.435188912814112	21.83107926348071	20.48110871858891	-41.97832351096548	-6.288871385294115	8.161464951068506	3491.015384615384	3635.164835164835	0.2910256410256411	-0.3464467005076142	0.4860557768924302
6460.968017578125	-7.058249092339456	21.38729312172439	22.17509076605442	-44.02831553228222	-6.371295782874278	9.542283522862803	3483.733333333333	3635.164835164835	0.2858974358974359	-0.3299492385786802	0.4940239043824701
6480.499267578125	-7.308059804026578	20.97652501745146	21.19401959734221	-46.12634592093169	-8.283678220346854	9.93180919686383	3499.753846153846	3638.095238095238	0.2974358974358974	-0.3121827411167513	0.4860557768924302
6500.030517578125	-6.832276396639964	20.3990606990679	20.77236033600368	-48.9164821417889	-11.34135563925621	10.86170917436123	3492.471794871794	3636.630036630037	0.2948717948717949	-0.3197969543147208	0.4873837981407702
6519.561767578125	-8.337864556979168	19.74585858716434	22.21354430208321	-48.58859830372773	-10.93847371365509	10.042474609562	3512.861538461538	3636.630036630037	0.2884615384615384	-0.299492385786802	0.49933598937583
6539.093017578125	-10.44147143808641	19.28896307554419	23.85285619135909	-47.49176974613272	-12.47037741747264	12.27085552242189	3499.753846153846	3643.956043956044	0.3076923076923077	-0.3071065989847716	0.5126162018592297
6558.624267578125	-11.1644185986386	18.83760124616345	23.55814013613984	-46.0361192918899	-5.36897559539096	11.96779595660478	3491.015384615384	3643.956043956044	0.3102564102564103	-0.2817258883248731	0.5099601593625498
6578.155517578125	-10.20192538531714	18.36394463917031	23.80746146828636	-47.45329405145405	1.009615963807864	9.060047551283974	3499.753846153846	3633.699633699634	0.3064102564102564	-0.2715736040609137	0.5166002656042497
6597.686767578125	-9.391799106928506	16.84571709799779	24.82008930714937	-47.84271650059484	-0.08335342132232844	8.05802423327213	3491.015384615384	3638.095238095238	0.308974358974359	-0.2626903553299492	0.5166002656042497
6617.218017578125	-8.344219719717872	16.63535422460736	25.57802802821288	-45.07181812707697	-3.765672693053225	8.733528241343686	3499.753846153846	3643.956043956044	0.3051282051282052	-0.25	0.5232403718459495
6636.749267578125	-9.619818578694078	17.95140137986563	26.01814213059231	-40.94010851163827	-8.138255821226274	8.541887499040119	3491.015384615384	3638.095238095238	0.3051282051282052	-0.2474619289340101	0.5312084993359894
6656.280517578125	-9.026216585226525	16.79801721261725	25.37834147734757	-42.33894544011287	-12.29187942117215	9.756138516418893	3480.820512820513	3636.630036630037	0.3076923076923077	-0.2296954314720812	0.5325365205843293
6675.811767578125	-9.066028072534051	14.33668835325939	25.39719274659496	-41.0091847588099	-14.07791306173775	8.219231673489189	3491.015384615384	3636.630036630037	0.3	-0.2246192893401015	0.5405046480743692
6695.343017578125	-9.307236169026155	14.41723160763949	25.27638309738468	-40.35454210299982	-16.27505342797118	7.544229939294551	3491.015384615384	3633.699633699634	0.3166666666666667	-0.2131979695431472	0.5351925630810093
6714.874267578125	-9.574897845868222	14.63833913201921	26.51021541317791	-39.95510697308009	-18.19601345933659	9.884652422103313	3480.820512820513	3638.095238095238	0.3153846153846154	-0.2081218274111675	0.5418326693227091
6734.405517578125	-10.18038037409526	13.49603033168237	25.96196259047365	-42.71363012316329	-18.65646898540468	11.00258079445339	3508.492307692307	3641.025641025641	0.3128205128205128	-0.1890862944162436	0.5312084993359894
6753.936767578125	-10.34435083650045	12.46317896025007	25.564916349955	-44.09907930992222	-16.81530934953922	10.66482879041761	3493.928205128205	3638.095238095238	0.3230769230769231	-0.1954314720812183	0.5365205843293492
6773.468017578125	-10.61104298783753	12.26023034079283	26.89570121624666	-43.36951030131684	-12.32757902043224	10.25908191761949	3489.558974358974	3645.421245421245	0.3269230769230769	-0.1890862944162436	0.5325365205843293
6792.999267578125	-11.53821838762061	12.43052364841989	26.17816123793941	-42.63994129271146	-7.839848691325265	9.853335044821378	3505.579487179487	3643.956043956044	0.3282051282051282	-0.1751269035532995	0.5444887118193891
6812.530517578125	-11.50394704605585	11.74360190113179	25.60529539441528	-41.5191498024657	-4.889446467109273	11.38637840336173	3485.189743589744	3643.956043956044	0.3371794871794872	-0.166243654822335	0.5418326693227091
6832.061767578125	-9.659137608602245	11.25880590776519	26.08623913977541	-43.95215165714345	-3.81817468627288	11.23003899528786	3523.05641025641	3646.886446886447	0.332051282051282	-0.1510152284263959	0.545816733067729
6851.593017578125	-9.775709661891062	9.718082143125354	26.42903381089389	-42.94498721843412	-6.76332890632849	10.94069945070489	3507.035897435897	3648.351648351648	0.3230769230769231	-0.1434010152284264	0.5418326693227091
6871.124267578125	-11.88182499787628	9.532950940162731	27.81750021237225	-41.52376238574589	-9.766409520677206	12.85827997854467	3495.384615384615	3646.886446886447	0.3282051282051282	-0.1357868020304568	0.548472775564409
6890.655517578125	-11.24873469226953	9.64891434688453	27.12653077304731	-42.87872352204308	-8.330932209406127	13.67202376476538	3502.666666666666	3645.421245421245	0.3256410256410257	-0.1281725888324873	0.5551128818061089
6910.186767578125	-11.69246281638849	9.080156675321605	26.75371836115102	-44.94750338257426	-6.517247372734066	13.79454461799437	3501.210256410256	3646.886446886447	0.3346153846153846	-0.1205583756345178	0.5537848605577689
6929.718017578125	-11.81372860426493	8.274942813384499	26.62713957350726	-43.89410060903178	-5.002146062876085	13.55973105787805	3505.579487179487	3648.351648351648	0.3307692307692308	-0.1104060913705584	0.5418326693227091
6949.249267578125	-12.84494917224067	7.584167894732306	27.50508277593311	-41.83060834396814	-6.059592245659249	13.00887747110156	3502.666666666666	3649.81684981685	0.3397435897435898	-0.09010152284263959	0.545816733067729
6968.780517578125	-11.71766986394633	7.104077331816565	28.2330136053668	-43.21076993525953	-4.974671263682696	13.09945820061328	3508.492307692307	3646.886446886447	0.3384615384615385	-0.08502538071065989	0.5551128818061089
6988.311767578125	-10.88776895868652	6.14433895596569	27.22310413134823	-44.22727204256049	-4.648789334588299	13.95063288912978	3524.51282051282	3654.212454212454	0.3384615384615385	-0.07741116751269035	0.5551128818061089
7007.843017578125	-10.64406779661017	5.830508474576271	27.59322033898305	-43.86710012153798	-7.281887223602741	15.21966102791366	3517.230769230769	3654.212454212454	0.3448717948717949	-0.07233502538071066	0.5630810092961487
7027.374267578125	-10.19753882103236	6.396437286165763	28.24611789676369	-45.5539951690204	-9.624802782782883	17.84280725641463	3502.666666666666	3660.07326007326	0.341025641025641	-0.05837563451776649	0.5537848605577689
7046.905517578125	-13.84854657354297	5.828570500816864	27.14534264570275	-42.44767532134934	-7.654670347930273	16.20047464242681	3512.861538461538	3658.608058608058	0.3487179487179487	-0.05203045685279188	0.5590969455511288
7066.436767578125	-13.48928905156399	4.594951172848853	27.07109484360168	-44.82971375588254	-4.380833799787006	17.00872765006901	3512.861538461538	3661.538461538461	0.3333333333333333	-0.03045685279187817	0.5564409030544488
7085.968017578125	-12.93819167180669	4.713727434678603	26.18083281933092	-44.81981357713482	-0.2601094001079715	15.96515880843358	3502.666666666666	3655.677655677655	0.3435897435897436	-0.03934010152284264	0.549800796812749
7105.499267578125	-11.32971192473281	4.112239813210907	27.02880752671889	-47.93727112589707	-2.219216635900612	17.2325596530283	3495.384615384615	3663.003663003663	0.3525641025641026	-0.01142131979695431	0.5577689243027888
7125.030517578125	-11.27368012183396	2.018724615359993	28.63198781660394	-47.67317593954001	-8.512230604699873	16.51900199622564	3505.579487179487	3654.212454212454	0.3602564102564103	-0.01522842639593909	0.548472775564409
7144.561767578125	-12.35320706725614	0.1059699071594688	28.67929327438618	-45.3203880331251	-15.51213442698778	15.97775380935548	3508.492307692307	3651.282051282051	0.35	0.006345177664974619	0.5511288180610889
7164.093017578125	-10.83844688785391	-0.1731686432675533	28.15531121460924	-43.56767929737654	-23.37292809577775	18.94963359904926	3520.14358974359	3661.538461538461	0.3551282051282051	0.02030456852791878	0.549800796812749
7183.624267578125	-11.74486213039533	0.09154152093005502	29.51378696046675	-42.10887878625944	-30.16822717863091	23.38380956401966	3499.753846153846	3668.864468864469	0.3602564102564103	0.03426395939086294	0.5405046480743692
7203.155517578125	-14.19339971659077	0.04764140606436668	28.66002834092333	-42.10066613798007	-30.55185910510534	23.78544181548996	3528.882051282051	3673.260073260073	0.3692307692307693	0.03934010152284264	0.5405046480743692
7222.686767578125	-15.24878147572247	-1.234115324904925	27.12185242775342	-42.08604087392093	-28.68882546803302	23.65193940510394	3517.230769230769	3671.794871794872	0.367948717948718	0.05203045685279188	0.548472775564409
7242.218017578125	-16.64623091573685	-2.261152928951939	27.37690842631544	-40.62982790952199	-20.08597153723353	22.86714614158491	3512.861538461538	3670.32967032967	0.3692307692307693	0.05583756345177664	0.5351925630810093
7261.749267578125	-16.68573461716977	-2.492023421273913	27.42653828302265	-41.55216581668831	-6.335222222158475	22.38217170592897	3520.14358974359	3667.399267399267	0.3833333333333334	0.06218274111675126	0.5405046480743692
7281.280517578125	-14.68132527673028	-2.016476855117802	27.86747232697201	-42.88496405283433	2.212858507167316	21.56381102450352	3524.51282051282	3670.32967032967	0.3743589743589744	0.07741116751269035	0.5232403718459495
7300.811767578125	-13.84006707269779	-3.37230148734446	27.99329273022075	-44.25050038006658	5.160813126216185	21.52088934362923	3543.446153846154	3673.260073260073	0.3705128205128205	0.07994923857868019	0.5205843293492696
7320.343017578125	-13.9685196607461	-4.208718219569517	27.14803392539024	-42.18700811500293	4.103366943433021	20.97003575685273	3530.338461538461	3673.260073260073	0.3730769230769231	0.1015228426395939	0.5245683930942895
7339.874267578125	-14.93630679111065	-4.498945525593626	26.36932088893485	-41.814573472577	4.462148072794256	21.65052826962589	3505.579487179487	3668.864468864469	0.3692307692307693	0.09517766497461928	0.5245683930942895
7359.405517578125	-14.53229781853684	-4.622379203277795	26.77021814631647	-43.8364399860877	5.10288673192308	23.72780941605197	3530.338461538461	3677.655677655677	0.3743589743589744	0.1154822335025381	0.5312084993359894
7378.936767578125	-13.28950831822105	-4.906827367827511	27.04916817789531	-46.59845069913887	2.768372369722717	25.35417196818116	3528.882051282051	3680.58608058608	0.3666666666666666	0.1230964467005076	0.5219123505976095
7398.468017578125	-13.33816864942327	-6.243834279467111	26.18313505767291	-47.32273211227671	-2.475596613273159	26.18825157452678	3540.533333333333	3687.912087912088	0.3653846153846154	0.1383248730964467	0.5245683930942895
7417.999267578125	-13.70268930985789	-5.851053027812762	25.73106901421108	-46.74537835191764	-10.22876229354363	24.78896176331091	3528.882051282051	3674.725274725275	0.3615384615384615	0.1510152284263959	0.5139442231075697
7437.530517578125	-13.90667132038909	-6.845031197176248	25.33286796109094	-47.78584339186934	-14.38518629248276	26.33547400614695	3512.861538461538	3677.655677655677	0.382051282051282	0.1560913705583756	0.5139442231075697
7457.061767578125	-12.34769831567258	-8.667286239632231	25.23016843274201	-52.30922549707331	-17.1113809843112	27.45202622124632	3546.358974358974	3679.120879120879	0.3705128205128205	0.1814720812182741	0.5073041168658699
7476.593017578125	-12.78166962756678	-8.63051367615755	25.83303724332196	-49.86441092911701	-23.82687967166439	29.88353170744373	3543.446153846154	3689.377289377289	0.3769230769230769	0.184010152284264	0.4913678618857901
7496.124267578125	-13.33007388092134	-9.482779226423293	26.99261190786614	-47.08406238497631	-32.02458046860872	32.37916857801412	3517.230769230769	3683.516483516483	0.3756410256410256	0.1878172588832487	0.4900398406374502
7515.655517578125	-16.30066986517748	-11.2501695900169	25.93301348225245	-45.67465026556663	-29.38343417644063	32.02158302773034	3546.358974358974	3687.912087912088	0.3833333333333334	0.217005076142132	0.49800796812749
7535.186767578125	-18.01501071710415	-11.96945456034019	26.49892828958465	-45.23201435565681	-20.08209158913228	32.06126397065061	3537.620512820513	3689.377289377289	0.382051282051282	0.2068527918781726	0.4820717131474103
7554.718017578125	-17.42294765300959	-12.275130562768	25.70523469904081	-45.4511087295242	-5.197072491680422	31.41084700089138	3540.533333333333	3690.84249084249	0.391025641025641	0.2309644670050761	0.4833997343957503
7574.249267578125	-16.86341694028831	-12.24179504415496	25.65830597116908	-46.78390696567022	3.351008237645368	30.59248631946593	3543.446153846154	3692.307692307692	0.3948717948717949	0.2474619289340101	0.4727755644090305
7593.780517578125	-15.9066639335281	-13.36350019636739	25.33360664718997	-46.77749434989044	5.597673801192118	30.05735165760962	3525.969230769231	3690.84249084249	0.3794871794871795	0.2563451776649746	0.4727755644090305
7613.311767578125	-14.72667752535232	-12.62451723785569	23.33224746476775	-47.92179876466205	6.80107157383507	26.35594414925454	3539.076923076923	3686.446886446886	0.3871794871794872	0.2639593908629441	0.4621513944223107
7632.843017578125	-16.07317362939872	-15.04763309584575	24.68263706012781	-47.59098987378906	7.576560226850644	25.51000910237811	3517.230769230769	3682.051282051282	0.3756410256410256	0.2690355329949238	0.4674634794156706
7652.374267578125	-14.24146048090927	-14.78843260658933	23.85395190907266	-46.20149061390605	9.110911535835305	24.85759322893286	3515.774358974359	3677.655677655677	0.3846153846153846	0.2779187817258883	0.450199203187251
7671.905517578125	-12.65234046534762	-14.98575151461429	22.76595346523804	-45.88058190178079	5.765675789171844	25.05522702369186	3528.882051282051	3677.655677655677	0.3769230769230769	0.2918781725888325	0.4608233731739708
7691.436767578125	-11.96549597231405	-16.26869522180897	23.4504027685955	-44.91436820243705	-2.395972614686255	25.13969422818975	3524.51282051282	3680.58608058608	0.3730769230769231	0.2906091370558375	0.4355909694555112
7710.968017578125	-12.24409943699808	-16.69038264555502	23.59005630019218	-43.55693202145293	-12.09494912343534	27.16295166402609	3544.902564102564	3687.912087912088	0.358974358974359	0.3109137055837563	0.4329349269588313
7730.499267578125	-13.32661190540386	-17.13858351400364	23.33880945961418	-40.74440789638213	-16.19397591882058	29.36488323174724	3544.902564102564	3692.307692307692	0.367948717948718	0.315989847715736	0.4302788844621514
7750.030517578125	-13.48724289106965	-17.52096160309657	23.27571089303455	-37.89498310506978	-18.45201947525344	32.18317592786855	3541.989743589743	3693.772893772893	0.358974358974359	0.3261421319796954	0.4103585657370518
7769.561767578125	-14.23996771941747	-19.52070952646528	24.00322805825278	-36.78937938903929	-18.86610299682759	34.33145539449684	3550.728205128205	3701.098901098901	0.358974358974359	0.3185279187817259	0.4183266932270916
7789.093017578125	-15.27608208279932	-18.97577248098806	24.39179172006751	-36.13597425557267	-16.931493764322	32.23795304927366	3537.620512820513	3693.772893772893	0.3705128205128205	0.350253807106599	0.4077025232403718
7808.624267578125	-17.05057906834447	-20.28968437174132	22.94209316555309	-36.86689328855275	-10.15282067851533	28.84323130461089	3523.05641025641	3689.377289377289	0.3666666666666666	0.3540609137055837	0.4050464807436919
7828.155517578125	-16.73271813092719	-21.021493149302	22.72818690728135	-35.1402850240482	1.538338663206307	24.42777771600053	3539.076923076923	3686.446886446886	0.3525641025641026	0.3629441624365482	0.399734395750332
7847.686767578125	-15.13247165599881	-20.03774208897966	22.75283440011917	-34.40081583669509	10.14679339199232	22.97846200156698	3520.14358974359	3680.58608058608	0.3692307692307693	0.3692893401015228	0.4023904382470119
7867.218017578125	-12.58193567767678	-20.01532188862337	21.8064322323217	-34.08058213675716	12.43475935278569	21.27586148759554	3536.164102564102	3677.655677655677	0.3474358974358974	0.3730964467005076	0.3930942895086321
7886.749267578125	-11.50821049599078	-20.59670739904931	21.17895040092188	-31.62586739005315	9.839985065111536	22.66379813215751	3517.230769230769	3677.655677655677	0.3435897435897436	0.3692893401015228	0.3864541832669323
7906.280517578125	-11.98073137310666	-22.17638439008535	21.92686268933448	-30.54658914932911	6.072440996807215	25.05238193748062	3525.969230769231	3682.051282051282	0.3538461538461539	0.3794416243654822	0.3771580345285525
7925.811767578125	-11.40156453715776	-22.23826597131682	19.84354628422425	-28.41334562490647	5.3214503470787	26.7244184849855	3549.271794871795	3693.772893772893	0.3371794871794872	0.381979695431472	0.3771580345285525
7945.343017578125	-13.20048371628052	-21.4905883696336	19.95162837194815	-29.04627538869029	5.995088206474362	28.63101745566825	3520.14358974359	3692.307692307692	0.3384615384615385	0.4010152284263959	0.3745019920318725
7964.874267578125	-13.80021064865258	-22.02332570639936	19.9789351347425	-30.10732830035601	6.365070931808635	27.98246506661236	3528.882051282051	3689.377289377289	0.3461538461538462	0.4124365482233502	0.3784860557768924
7984.405517578125	-13.41205264862057	-22.51536528643169	18.79473513794347	-31.88163742609961	8.614713291261714	26.16095604686282	3540.533333333333	3690.84249084249	0.3307692307692308	0.4213197969543147	0.3665338645418326
8003.936767578125	-11.96979020083644	-22.53205035869366	19.02097991635611	-33.29284957800888	8.603864489114814	25.58177468381997	3549.271794871795	3689.377289377289	0.332051282051282	0.4200507614213198	0.3598937583001328
8023.468017578125	-11.26274018070724	-23.33386318671645	17.72598192927573	-32.96901581307179	5.631235469865816	25.75270799650176	3549.271794871795	3687.912087912088	0.3217948717948718	0.4175126903553299	0.3612217795484727
8042.999267578125	-11.02959607412961	-25.25241565743678	17.04039258703876	-32.02980260122185	-0.2506717732656258	24.17724523096404	3533.251282051282	3683.516483516483	0.3294871794871795	0.4289340101522842	0.3519256308100929
8062.530517578125	-11.87123901050535	-24.93466398400498	16.87609894946525	-31.4483987677387	-4.628326508685985	21.78778754226714	3515.774358974359	3668.864468864469	0.3205128205128205	0.4441624365482233	0.3545816733067729
8082.061767578125	-10.31505146795395	-25.79256724813574	16.49485320460497	-31.15741559591906	-6.066427822037253	20.35219184906774	3520.14358974359	3671.794871794872	0.3205128205128205	0.4403553299492385	0.3306772908366534
8101.593017578125	-9.174968267276329	-25.2855897423586	18.50317327236711	-32.58674057485543	-9.814369097388758	20.41494707619002	3528.882051282051	3670.32967032967	0.3141025641025641	0.4454314720812183	0.3346613545816733
8121.124267578125	-9.057872978000697	-25.05308675375776	18.21270219993032	-29.82337983742958	-18.74625815010205	22.58905314152172	3508.492307692307	3673.260073260073	0.3141025641025641	0.4479695431472081	0.3293492695883134
8140.655517578125	-10.37694597619215	-25.0408230255844	18.3054023807853	-28.40744260020889	-20.99310011056187	24.07830093581399	3536.164102564102	3679.120879120879	0.3217948717948718	0.4517766497461929	0.3134130146082337
8160.186767578125	-12.38386377150962	-26.24460528308298	17.61362284903841	-26.6150206474382	-19.50564999681034	25.25787336539839	3544.902564102564	3684.981684981685	0.3128205128205128	0.4543147208121827	0.3160690571049137
8179.718017578125	-13.11407467870233	-26.53478457451065	16.59253212976745	-26.53896927433066	-9.817875084034293	24.56366083139108	3540.533333333333	3683.516483516483	0.3141025641025641	0.4771573604060914	0.3027888446215139
8199.249267578125	-11.39737926483497	-26.70249309636283	16.26207351650286	-26.86111550879939	-2.340889738631827	22.94752642560355	3537.620512820513	3682.051282051282	0.3102564102564103	0.4771573604060914	0.3107569721115538
8218.780517578125	-10.39955284868138	-27.51799008437026	16.04471513186162	-26.85177784020778	0.2783825523293865	22.38569128167003	3517.230769230769	3676.190476190476	0.3076923076923077	0.4682741116751269	0.298804780876494
8238.311767578125	-9.714693574538968	-27.83739025894641	16.53064254610325	-28.25185229102586	0.2565085511225178	22.18144168802027	3537.620512820513	3679.120879120879	0.3012820512820513	0.4847715736040609	0.2881806108897742
8257.843017578125	-10.63982219825596	-26.78454881053071	16.01778017440379	-26.49104340902916	-0.8532632279672324	23.172985722752	3517.230769230769	3679.120879120879	0.2910256410256411	0.4873096446700507	0.2802124833997344
8277.374267578125	-11.09483067467895	-26.14960563395888	14.51693253210514	-26.11219615082345	1.752183464940752	23.31834357366883	3520.14358974359	3683.516483516483	0.3076923076923077	0.4949238578680203	0.2762284196547145
8296.905517578125	-9.533379993671924	-27.16667082177597	14.66200063280776	-27.49528279492667	2.464497719502841	23.43562478525776	3539.076923076923	3683.516483516483	0.3038461538461538	0.4961928934010152	0.2735723771580345
8316.436767578125	-9.455203612667482	-27.62716742812892	14.47963873325183	-27.48763265680343	0.5794136843105859	24.31899073442997	3528.882051282051	3684.981684981685	0.3025641025641025	0.4999999999999999	0.2709163346613546
8335.968017578125	-9.058627668965212	-29.16617066972975	14.13723310347884	-26.83299000099335	-1.617726681922838	23.64398900023534	3540.533333333333	3684.981684981685	0.2987179487179487	0.5177664974619289	0.2629482071713147
8355.499267578125	-8.659450934622587	-29.20780070987734	14.05490653774132	-24.74485979109161	-3.8260686441293	24.29803216786975	3531.794871794872	3686.446886446886	0.2871794871794872	0.5063451776649746	0.2682602921646746
8375.030517578125	-8.304379300538134	-28.97565382953341	13.56206994618671	-22.2925075870433	-5.291997550500094	25.23093559680701	3523.05641025641	3686.446886446886	0.2884615384615384	0.5038071065989848	0.2563081009296149
8394.561767578125	-8.274786304267268	-28.96554275576698	12.52136957327335	-21.27128039443094	-7.87557024220121	25.28982733953993	3531.794871794872	3686.446886446886	0.2846153846153846	0.5114213197969543	0.252324037184595
8414.093017578125	-8.710250377653267	-29.19649327241635	12.97496223467319	-20.92460871715533	-9.368797550852323	25.72889049330601	3544.902564102564	3687.912087912088	0.2756410256410257	0.5279187817258882	0.2363877822045153
8433.624267578125	-9.030912166529394	-29.46185563488223	12.90878334706058	-19.51980918102584	-11.60461431225217	26.84320651820519	3530.338461538461	3692.307692307692	0.2679487179487179	0.5177664974619289	0.2430278884462151
8453.155517578125	-8.628919191434196	-30.54479161665146	13.1080808565804	-18.12265978301959	-11.95534703845977	27.07415659393215	3544.902564102564	3692.307692307692	0.2782051282051282	0.5177664974619289	0.2350597609561753
8472.686767578125	-8.468996113279975	-30.39246777174107	13.10038867200244	-16.01169166077935	-12.68428729006834	27.99632960265084	3546.358974358974	3692.307692307692	0.2717948717948718	0.5304568527918782	0.2257636122177955
8492.218017578125	-8.670038768708764	-30.73556853591184	12.99612312912356	-14.24795772597081	-13.42145234174363	28.96117315530536	3540.533333333333	3695.238095238095	0.2717948717948718	0.5317258883248731	0.2177954847277556
8511.749267578125	-8.318198886307593	-31.42323450944472	12.18011136924086	-13.91186123963029	-13.40220234261695	28.54357084197643	3550.728205128205	3695.238095238095	0.2576923076923077	0.5368020304568527	0.2071713147410358
8531.280517578125	-9.20000726374664	-30.68183881746204	11.99927362533595	-13.5335764915807	-12.29820775842679	29.17066239059518	3523.05641025641	3692.307692307692	0.2628205128205128	0.5431472081218274	0.2124833997343957
8550.811767578125	-9.603970068439267	-30.67383638472249	11.60299315607329	-14.23220744159943	-8.555514487235669	27.86420334951552	3562.379487179487	3695.238095238095	0.2576923076923077	0.5482233502538071	0.2164674634794156
8570.343017578125	-8.72026880787144	-31.14791311943446	11.97311921285609	-14.56481636497201	-6.700705650230062	27.77337148306533	3541.989743589743	3690.84249084249	0.2564102564102564	0.5456852791878172	0.2111553784860558
8589.874267578125	-8.492495564805546	-30.63796409493101	10.7504435194453	-15.26985993077052	-5.204677942585688	27.002047103842	3528.882051282051	3689.377289377289	0.2461538461538462	0.5482233502538071	0.2124833997343957
8609.405517578125	-6.699362760125232	-30.9182589968889	10.06372398747681	-15.66749502819068	-5.914015401241449	25.59839153435985	3550.728205128205	3695.238095238095	0.2538461538461538	0.5444162436548223	0.200531208499336
8628.936767578125	-7.306184156906777	-30.71306169383184	9.38158430932234	-16.73203550282435	-7.418091512039461	25.45827332508307	3534.707692307692	3684.981684981685	0.2423076923076923	0.5571065989847716	0.2071713147410358
8648.468017578125	-6.616200247952301	-31.84533005726048	10.37997520476994	-17.12730805758879	-9.256274351998581	24.50965097122564	3546.358974358974	3689.377289377289	0.2384615384615385	0.5558375634517766	0.1899070385126162
8667.999267578125	-6.625479992071437	-31.64364982339246	9.45200079285641	-16.46152770068751	-11.46443991729197	24.2095810064241	3524.51282051282	3680.58608058608	0.2371794871794872	0.5583756345177665	0.1859229747675963
8687.530517578125	-6.992155153628241	-31.86407714098932	8.784484637175854	-18.21581146487321	-15.24265639083012	25.0648703162684	3518.687179487179	3679.120879120879	0.2294871794871795	0.5621827411167513	0.1885790172642762
8707.061767578125	-5.752428122764705	-31.49158605754611	8.757187723529491	-19.28271448216259	-15.61788712032478	24.46971889136692	3552.184615384615	3684.981684981685	0.2307692307692308	0.565989847715736	0.1752988047808765
8726.593017578125	-6.760272969136464	-30.62750891655679	7.972703086353635	-20.01408352326756	-17.47531995941058	23.93869885083841	3531.794871794872	3683.516483516483	0.2320512820512821	0.5647208121827411	0.1779548472775564
8746.124267578125	-7.601284944469272	-30.88731759070141	7.871505553072749	-21.73562919636702	-15.65341032267181	24.01854916013157	3524.51282051282	3682.051282051282	0.2269230769230769	0.565989847715736	0.1699867197875166
8765.655517578125	-7.724997630048766	-31.57467547057382	7.500236995123439	-23.85424745673051	-13.03938603587097	22.21301020224066	3520.14358974359	3674.725274725275	0.2243589743589744	0.567258883248731	0.1593625498007968
8785.186767578125	-7.718087837164037	-31.85088513061817	8.191216283596367	-23.84963487345032	-8.162422982303042	20.74110862705773	3511.405128205128	3673.260073260073	0.2141025641025641	0.5748730964467005	0.150066401062417
8804.718017578125	-7.085736217656321	-30.8880218047825	7.426378234367862	-23.18216698608068	-5.866232221442967	18.99583756915045	3517.230769230769	3667.399267399267	0.2320512820512821	0.5697969543147208	0.147410358565737
8824.249267578125	-5.487059450688394	-31.97960841634318	7.29405493116061	-23.88192295641166	-5.12644316768749	18.65284592347461	3525.969230769231	3665.934065934066	0.2192307692307692	0.5774111675126903	0.1314741035856574
8843.780517578125	-5.169167734683651	-32.78837135720028	7.083226531634847	-22.87532102785844	-9.573049496460923	18.84524007659356	3509.948717948718	3661.538461538461	0.2217948717948718	0.5761421319796954	0.1447543160690571
8863.311767578125	-5.524562543936434	-32.21249952293189	7.543745606356639	-23.27059358262288	-11.41123233642004	17.89661772273612	3536.164102564102	3667.399267399267	0.2153846153846154	0.5786802030456852	0.1142098273572377
8882.843017578125	-5.883758508740502	-33.13278852155671	7.624149125949672	-23.26823103996717	-12.5400777177234	18.35165093836083	3521.6	3668.864468864469	0.2076923076923077	0.583756345177665	0.1301460823373174
8902.374267578125	-5.366163005861474	-33.25094459484914	7.38369941385258	-21.17020065131771	-10.62769528025083	17.9621252643598	3504.123076923077	3665.934065934066	0.2076923076923077	0.5862944162436548	0.1088977423638778
8921.905517578125	-6.932030414168985	-33.19095697399702	6.796958583101569	-20.16427373495183	-9.441099901567434	16.2542851087483	3518.687179487179	3661.538461538461	0.2102564102564103	0.583756345177665	0.1155378486055777
8941.436767578125	-5.490629766833733	-33.05292547395946	6.937023316626715	-18.41876512920162	-6.780703610272672	15.4790972451356	3511.405128205128	3661.538461538461	0.2012820512820513	0.5901015228426395	0.1168658698539177
8960.968017578125	-4.183268021170743	-32.78413006784832	5.673197882925639	-17.72080919137023	-4.890195174006967	14.88532197748482	3530.338461538461	3658.608058608058	0.2115384615384615	0.5926395939086294	0.1128818061088977
8980.499267578125	-4.181667534622833	-33.78574655926171	5.833246537716696	-16.99934032901298	-7.153486734600205	16.45991085964876	3508.492307692307	3661.538461538461	0.1961538461538462	0.5951776649746192	0.102257636122178
9000.030517578125	-4.578982164424138	-33.399843398547	6.101783557586121	-14.23080449815082	-9.706960625027742	16.68038165209561	3509.948717948718	3665.934065934066	0.2038461538461538	0.5977157360406091	0.09428950863213811
9019.561767578125	-4.857754911339201	-33.39828292416279	6.224508866079903	-12.85300544951513	-9.663036225700935	16.13476770695917	3531.794871794872	3663.003663003663	0.208974358974359	0.5926395939086294	0.08897742363877821
9039.093017578125	-4.660097900530992	-33.59022419738677	5.99020994690078	-10.07164438709341	-7.723178989034974	15.28496917569338	3511.405128205128	3661.538461538461	0.191025641025641	0.5875634517766497	0.08632138114209827
9058.624267578125	-4.775346474559036	-33.4399769837723	6.465352544096482	-7.97125145578824	-6.939641932865759	15.35047671731706	3504.123076923077	3661.538461538461	0.1987179487179487	0.583756345177665	0.0743691899070385
9078.155517578125	-4.574734719354684	-35.01951793345177	6.526528064531616	-5.520699284239513	-5.775273349215372	15.34661323292771	3511.405128205128	3665.934065934066	0.1948717948717949	0.5977157360406091	0.07835325365205843
9097.686767578125	-3.744372135282973	-35.13356875874881	5.562786471702781	-5.189890393366522	-4.999784696199797	14.50067818605127	3518.687179487179	3663.003663003663	0.1858974358974359	0.6002538071065989	0.07171314741035856
9117.218017578125	-4.545772684126745	-34.43184651210891	5.422731587325623	-2.039019741330697	-3.073753057587064	14.35807264963584	3495.384615384615	3657.142857142857	0.191025641025641	0.5964467005076142	0.07835325365205843
9136.749267578125	-4.056123523089481	-33.67716139552577	6.387647691051925	-2.039019741330697	-3.073753057587064	14.35807264963584	3515.774358974359	3660.07326007326	0.182051282051282	0.6015228426395939	0.07038512616201859
9156.280517578125	-3.319465117395688	-33.50734023143036	4.053488260431171	0.07194838090955052	-3.802693309195642	15.28024565835453	3507.035897435897	3667.399267399267	0.1782051282051282	0.5939086294416244	0.06772908366533864
9175.811767578125	-3.238518663519864	-32.89371153446032	4.14813364801361	-0.2917111030808998	-3.043654256313486	14.51965169934976	3520.14358974359	3668.864468864469	0.1833333333333333	0.598984771573604	0.07038512616201859
9195.343017578125	-4.761789122354735	-32.33674683257556	3.821087764526569	0.7306411098437051	-2.624322730578956	13.61507604667886	3515.774358974359	3660.07326007326	0.182051282051282	0.5913705583756345	0.06772908366533864
9214.874267578125	-4.131930568431264	-32.14059627973057	2.806943156873535	0.7171408660968042	-1.484452150215628	12.78511106166105	3496.841025641026	3663.003663003663	0.1884615384615385	0.6015228426395939	0.08100929614873838
9234.405517578125	-3.971561200758877	-33.10410780261815	2.843879924112314	-0.4001630611810033	-2.560795538299332	10.74363352334159	3518.687179487179	3658.608058608058	0.1730769230769231	0.6002538071065989	0.07702523240371846
9253.936767578125	-3.64595944859545	-32.18988864922628	3.404055140455006	0.2831676125912454	-2.533320739105944	10.28336066607683	3511.405128205128	3655.677655677655	0.1666666666666667	0.6002538071065989	0.06374501992031872
9273.468017578125	-2.840619240556822	-32.74174379780684	3.938075944317841	-0.09275459280263987	-4.766160704599464	10.11130233308279	3515.774358974359	3654.212454212454	0.1782051282051282	0.598984771573604	0.06905710491367861
9292.999267578125	-3.510597067662416	-33.62968157704557	4.940293233758446	-0.1150299949850263	-4.744110306479526	9.361438794296594	3515.774358974359	3654.212454212454	0.158974358974359	0.5939086294416244	0.06374501992031872
9312.530517578125	-3.127717595379765	-33.92408215174336	3.228240462023531	0.5794383798784155	-4.727660706346108	9.276097706424926	3492.471794871794	3651.282051282051	0.1692307692307692	0.6116751269035533	0.07038512616201859
9332.061767578125	-3.762454555415616	-33.92299782210714	3.754544458438442	-0.4810520216311842	-2.856225872294013	8.145811619667121	3509.948717948718	3646.886446886447	0.1717948717948718	0.598984771573604	0.06241699867197875
9351.593017578125	-2.961977364195639	-34.31609516985471	3.802263580436144	-0.8781246088952142	-2.06411122223195	6.260422352483066	3496.841025641026	3642.490842490842	0.1628205128205128	0.5926395939086294	0.0650730411686587
9371.124267578125	-2.124951215938876	-33.09072234882481	3.504878406112381	-0.8529241539009993	-1.713554892937425	6.983585409192055	3492.471794871794	3648.351648351648	0.1628205128205128	0.6040609137055837	0.0650730411686587
9390.655517578125	-2.763797117400613	-33.81625721911769	3.620288259938713	-0.1895063396554293	-2.792875076927458	6.228482228765804	3496.841025641026	3643.956043956044	0.1628205128205128	0.6091370558375634	0.06374501992031872
9410.186767578125	-3.645205373202685	-33.07526564998837	3.479462679731561	-0.2088566890259872	-2.398217951393056	5.451918207902407	3492.471794871794	3638.095238095238	0.1487179487179487	0.6002538071065989	0.0597609561752988
9429.718017578125	-2.120411374288553	-33.44146143504548	3.958862571144704	-0.2674702472937817	-2.715698683507675	3.60395984301413	3509.948717948718	3636.630036630037	0.1717948717948718	0.5977157360406091	0.06772908366533864
9449.249267578125	-2.954113435099655	-33.9778838920878	4.588656490034508	0.06570118623491747	-3.06905541179546	3.213058011762403	3498.297435897436	3636.630036630037	0.1615384615384616	0.6116751269035533	0.04913678618857902
9468.780517578125	-2.801438714292222	-32.70285459087255	3.856128570777823	0.743181754383509	-3.786794067430999	2.806186118652045	3483.733333333333	3635.164835164835	0.1551282051282051	0.6002538071065989	0.0544488711819389
9488.311767578125	-3.567567617478791	-34.18906439865411	3.243238252120952	0.3795222703930588	-3.027755014548843	2.045592159647279	3485.189743589744	3630.769230769231	0.1615384615384616	0.5977157360406091	0.06108897742363877
9507.843017578125	-2.28084229913586	-33.32404158556509	3.915770086413962	1.743821075281848	-1.843960034858708	0.6700132294930398	3485.189743589744	3632.234432234432	0.1564102564102564	0.598984771573604	0.06108897742363877
9527.374267578125	-2.877368258412096	-33.86001190515763	4.263174158790426	2.099830421149055	-0.7179150525486082	0.5472412393255935	3476.451282051281	3629.304029304029	0.158974358974359	0.6053299492385786	0.0597609561752988
9546.905517578125	-2.804778191031612	-33.35332787321192	3.522180896838792	2.778436009609888	1.567250509251498	-0.8230980491885882	3496.841025641026	3632.234432234432	0.1653846153846154	0.6065989847715736	0.05577689243027888
9566.436767578125	-3.44345481026232	-33.50211064163506	3.654518973768025	2.431764332334288	3.060477817902612	-1.262161202954666	3486.646153846154	3629.304029304029	0.1615384615384616	0.6027918781725888	0.05843293492695883
9585.968017578125	-2.846313279236888	-33.50522358797074	3.368672076311198	2.079242549435032	3.808491671724799	-1.647823392566336	3499.753846153846	3627.838827838828	0.1576923076923077	0.6065989847715736	0.04780876494023904
9605.499267578125	-2.884108769065796	-34.00705014324355	3.589123093420399	3.476391947441279	3.457758945517204	-1.416873316839373	3474.994871794872	3629.304029304029	0.1692307692307692	0.6116751269035533	0.04382470119521912
9625.030517578125	-2.35926490883998	-34.24791167284085	4.073509116002033	3.820701082061172	3.093377018169449	-1.432843378698004	3461.887179487179	3627.838827838828	0.1525641025641026	0.6053299492385786	0.0650730411686587
9644.561767578125	-2.280396009617693	-33.43987695336305	3.960399038230698	4.148584920122334	3.496258943770561	-2.252077943497235	3499.753846153846	3626.373626373626	0.1666666666666667	0.6091370558375634	0.0544488711819389
9664.093017578125	-1.842023359716739	-33.48109486822455	3.797664028326149	4.85070343310902	1.627624508711724	-1.454053082196692	3473.538461538461	3626.373626373626	0.1717948717948718	0.6065989847715736	0.05046480743691899
9683.624267578125	-2.930583820558373	-33.80780264892835	2.941617944162717	4.856553538732677	2.372837963540651	-1.5074540463511	3480.820512820513	3630.769230769231	0.1474358974358974	0.6027918781725888	0.04648074369189906
9703.155517578125	-2.289167907043741	-33.50794041388582	3.08320929562587	4.509881861457078	3.866065272191765	-1.946517200117177	3488.102564102564	3627.838827838828	0.1743589743589744	0.6053299492385786	0.04913678618857902
9722.686767578125	-3.126609566231211	-33.69443203041416	3.339043376878879	4.495819107554055	3.50448374383727	-2.29474848743307	3493.928205128205	3630.769230769231	0.1564102564102564	0.6027918781725888	0.0650730411686587
9742.218017578125	-2.805824663005246	-33.73688632113393	3.41753369947541	4.837203189362119	2.767495089075053	-2.284018067214496	3493.928205128205	3629.304029304029	0.1641025641025641	0.5977157360406091	0.05577689243027888
9761.749267578125	-2.212330394593803	-33.62093091684488	2.766960540619732	5.209637831788055	3.126276218436287	-1.603525554441342	3486.646153846154	3629.304029304029	0.1538461538461539	0.6002538071065989	0.0398406374501992
9781.280517578125	-1.607571163172066	-33.67019927904237	3.242883682793415	5.920531503210227	2.375461965620841	-0.8856021393724103	3477.907692307692	3630.769230769231	0.1653846153846154	0.6015228426395939	0.0544488711819389
9800.811767578125	-2.607275073160703	-34.16049832995384	3.272492683929761	5.575659858434213	1.238391784250772	-0.3878983798118676	3451.692307692307	3620.51282051282	0.158974358974359	0.6015228426395939	0.0597609561752988
9820.343017578125	-2.67583314558395	-33.74817775372944	4.416685441605017	4.858916081388385	1.243992582237292	-1.052420830726391	3489.558974358974	3629.304029304029	0.1512820512820513	0.6053299492385786	0.05046480743691899
9839.874267578125	-2.04609770601032	-34.2442105476988	3.390229398968055	5.217287969911299	1.241192183244032	-0.7201596052691296	3480.820512820513	3633.699633699634	0.1628205128205128	0.6116751269035533	0.0544488711819389
9859.405517578125	-2.279549598462548	-33.55611644401436	4.0450401537452	5.245975987873463	3.465807348670844	-0.5054307283392565	3472.082051282051	3623.443223443223	0.1551282051282051	0.5926395939086294	0.0597609561752988
9878.936767578125	-2.810626122648978	-32.73203684689376	2.93738773510224	4.535082316451293	4.21662160148629	-1.223354143408188	3495.384615384615	3630.769230769231	0.1641025641025641	0.5926395939086294	0.05843293492695883
9898.468017578125	-1.723712316236444	-33.28828132983195	3.628768376355643	5.231913233970442	3.104225820316349	-0.8536620156551491	3488.102564102564	3632.234432234432	0.158974358974359	0.5964467005076142	0.06241699867197875
9917.999267578125	-2.605074404157326	-33.66272100564726	3.492559584267463	5.217287969911299	1.241192183244032	-0.7201596052691296	3493.928205128205	3633.699633699634	0.1666666666666667	0.6027918781725888	0.0597609561752988
9937.530517578125	-2.965809298334386	-33.7353018394515	3.419070166561403	5.59737275046048	-0.2851107225869883	0.8436988566762372	3466.25641025641	3627.838827838828	0.1666666666666667	0.6116751269035533	0.06905710491367861
9957.061767578125	-2.690129799459036	-33.00296890254637	2.987020054096445	4.864766187012042	1.989206037066219	-1.105821794880799	3507.035897435897	3632.234432234432	0.1653846153846154	0.5951776649746192	0.0650730411686587
9976.593017578125	-3.695035290728382	-33.48801435636434	2.496470927161857	4.545657507386364	2.704144293708498	-0.3666886763131798	3467.71282051282	3623.443223443223	0.1525641025641026	0.6027918781725888	0.06108897742363877
9996.124267578125	-1.922662027717965	-33.8642651981587	3.733797228203527	4.550945102853901	1.947905639819602	0.06164405723432453	3488.102564102564	3635.164835164835	0.1628205128205128	0.6078680203045684	0.05710491367861886
10015.65551757813	-1.848994709776388	-34.05097688158737	3.100529022361259	4.553307645509609	0.8190602585162428	0.5166772728590325	3498.297435897436	3632.234432234432	0.1564102564102564	0.5939086294416244	0.06108897742363877
10035.18676757813	-3.56428969791432	-33.38468278972191	3.571030208568019	4.206073458077888	0.8108354584495332	0.5593478167948671	3486.646153846154	3632.234432234432	0.1705128205128205	0.6065989847715736	0.05710491367861886
10054.71801757813	-2.051468569522058	-32.81570905247502	2.853143047794221	3.501029892279373	2.306863166093906	-0.2119765624284722	3489.558974358974	3624.908424908425	0.1628205128205128	0.5939086294416244	0.06374501992031872
10074.24926757813	-3.008775590856544	-33.3088289609272	3.122440914345653	4.906391938564986	1.572498513411879	0.4206057647687903	3463.343589743589	3629.304029304029	0.1615384615384616	0.6027918781725888	0.06108897742363877
10093.78051757813	-1.567128714821614	-33.78643076726094	3.287128517838653	3.831276272996244	1.580899710391658	-0.5761779116029954	3477.907692307692	3630.769230769231	0.1679487179487179	0.6154822335025381	0.06640106241699867
10113.31176757813	-2.090479813555628	-33.27784615753958	2.952018644437139	3.503392434935081	1.178017784790547	0.2430566531962359	3482.276923076923	3630.769230769231	0.1576923076923077	0.6040609137055837	0.06241699867197875
10132.84301757813	-1.921400105632112	-34.01938589331156	3.859989436788784	3.830713762840123	0.07944760167383495	-0.09444421390108332	3476.451282051281	3621.978021978022	0.1564102564102564	0.6065989847715736	0.0597609561752988
10152.37426757813	-2.087448122690837	-33.8578312422361	3.255187730916352	3.133320335164853	-0.3096087258740474	0.01759735604778967	3477.907692307692	3626.373626373626	0.1525641025641026	0.6104060913705584	0.06108897742363877
10171.90551757813	-1.601030713336854	-34.02295897952978	3.896928666314559	3.475266927129038	0.454854728081558	-0.4534059214355491	3493.928205128205	3632.234432234432	0.1512820512820513	0.6015228426395939	0.0597609561752988
10191.43676757813	-2.443335389342976	-33.05069279522513	3.666461065702435	3.481117032752695	1.200068182910485	-0.5068068855899569	3495.384615384615	3632.234432234432	0.1679487179487179	0.6002538071065989	0.0650730411686587
10210.96801757813	-2.159161000328715	-33.55770892812954	4.083899967128469	4.164447706524943	1.227542982103873	-0.9670797428547224	3485.189743589744	3629.304029304029	0.1717948717948718	0.6129441624365482	0.06241699867197875
10230.49926757813	-2.965747741159467	-33.88921016604432	3.425225884053367	3.469979331661501	1.211093381970454	-0.8817386549830533	3496.841025641026	3632.234432234432	0.1666666666666667	0.598984771573604	0.05312084993359893
10250.03051757813	-2.724447308904984	-33.20061591031366	3.555269109501595	4.858353571232264	-0.2574595264805311	-0.5706871330244794	3473.538461538461	3630.769230769231	0.1692307692307692	0.5913705583756345	0.0650730411686587
10269.56176757813	-2.766951922615244	-32.92845548123552	3.304807738475573	3.803150765190201	0.8577366536826689	-1.27264048623478	3507.035897435897	3632.234432234432	0.1615384615384616	0.6091370558375634	0.06108897742363877
10289.09301757813	-2.918718675092613	-33.47363259969492	4.128132490738723	4.847215870141072	-0.2464343274205621	-0.9456189024175759	3485.189743589744	3630.769230769231	0.1538461538461539	0.6015228426395939	0.06772908366533864
10308.62426757813	-2.036433229547936	-33.40781782277196	4.356677045206357	5.192087514917084	0.8906358539495067	-1.443322661978119	3483.733333333333	3630.769230769231	0.1551282051282051	0.6015228426395939	0.05046480743691899
10328.15551757813	-2.441642567032686	-34.28317177652775	3.835743296731437	4.15331000543375	1.238568181163842	-1.342011512247819	3492.471794871794	3633.699633699634	0.1551282051282051	0.6002538071065989	0.05046480743691899
10347.68676757813	-1.404727960376878	-33.82891706771166	3.527203962312234	4.855991028576557	0.8713858548228283	-1.025720348649188	3479.364102564102	3630.769230769231	0.1666666666666667	0.5939086294416244	0.06640106241699867
10367.21801757813	-3.236087155110538	-33.97309043487682	4.391284488946178	4.5034692456773	1.619399708645015	-1.411382538260857	3493.928205128205	3632.234432234432	0.1628205128205128	0.598984771573604	0.06640106241699867
10386.74926757813	-3.046540302097992	-32.88760967949641	3.345969790200836	4.497619140053643	0.8741862538160878	-1.35798157410645	3489.558974358974	3630.769230769231	0.1487179487179487	0.6015228426395939	0.06108897742363877
10406.28051757813	-2.360588388100752	-32.93888265109516	3.941161189924814	5.211437864287642	0.4959787284151053	-0.6667586411147217	3480.820512820513	3632.234432234432	0.1551282051282051	0.6027918781725888	0.08499335989375829
10425.81176757813	-2.651426341300063	-33.7712901645177	2.857365869993709	4.148022409966214	1.994806835052738	-1.770344245795323	3501.210256410256	3627.838827838828	0.1666666666666667	0.6015228426395939	0.06108897742363877
10445.34301757813	-3.16268145516237	-32.505691730286	3.731854483763063	4.181435513239793	1.961731237872831	-0.6455489376160337	3489.558974358974	3632.234432234432	0.1602564102564103	0.598984771573604	0.0597609561752988
10464.87426757813	-2.648071475266943	-33.15929396382654	3.192852473305731	4.864766187012042	1.989206037066219	-1.105821794880799	3485.189743589744	3630.769230769231	0.1653846153846154	0.6078680203045684	0.0650730411686587
10484.40551757813	-2.689114106072862	-33.54245629132794	3.088589392713846	4.184360566051622	2.334337965287294	-0.6722494196932377	3486.646153846154	3630.769230769231	0.1666666666666667	0.6053299492385786	0.06241699867197875
10503.93676757813	-2.165270549939489	-33.28230751379189	3.47294500605107	4.540369911918829	3.460382947597394	-0.795021409860684	3499.753846153846	3632.234432234432	0.1641025641025641	0.6015228426395939	0.06108897742363877
10523.46801757813	-1.847625062634426	-33.47543714827769	3.237493736557451	4.881753993726892	2.723394292835176	-0.7842909896421106	3489.558974358974	3632.234432234432	0.158974358974359	0.6091370558375634	0.06905710491367861
10542.99926757813	-2.200388302659393	-33.47914627585247	3.961169734060692	4.519894542236029	0.8521358556961498	-0.6081180353202567	3493.928205128205	3633.699633699634	0.1679487179487179	0.598984771573604	0.06772908366533864
10562.53051757813	-1.804920388105677	-33.2477996387825	3.507961189432356	4.860716113887971	-1.386304907783891	-0.1156539173997712	3470.625641025641	3624.908424908425	0.158974358974359	0.6065989847715736	0.0544488711819389
10582.06176757813	-2.199665005854087	-33.28756911331814	4.033499414591266	4.502906735521179	0.1179475999271919	-0.9296488405589451	3505.579487179487	3630.769230769231	0.1717948717948718	0.6053299492385786	0.06772908366533864
10601.59301757813	-2.678249264699546	-33.70727593496115	4.175073530045441	4.543294964730658	3.832989675011858	-0.8217218919378879	3485.189743589744	3632.234432234432	0.1615384615384616	0.6078680203045684	0.06108897742363877
10621.12426757813	-1.918553086292079	-33.13764599822961	4.144691370792105	4.90515441622152	5.704248112150884	-0.9978948462597419	3479.364102564102	3629.304029304029	0.1564102564102564	0.5850253807106599	0.06241699867197875
10640.65551757813	-2.567417417971987	-32.8146007155406	3.258258202801343	5.241813412718169	7.224950219995385	-1.897230857290585	3496.841025641026	3632.234432234432	0.1641025641025641	0.6015228426395939	0.06108897742363877
10660.18676757813	-1.964381787447999	-33.55443593313906	3.561821255200042	4.905716926377641	7.205700220868707	-1.479628543961654	3488.102564102564	3630.769230769231	0.1615384615384616	0.5939086294416244	0.05179282868525896
10679.71801757813	-1.522069478352188	-33.44578674994121	3.79305216478117	4.894579225286448	7.216725419928675	-1.85456031335475	3496.841025641026	3632.234432234432	0.1525641025641026	0.5901015228426395	0.07038512616201859
10699.24926757813	-2.159576511259423	-32.51882772362798	4.042348874057713	5.246538498029584	4.967259457388667	-0.9871644260411687	3476.451282051281	3633.699633699634	0.1692307692307692	0.5964467005076142	0.06374501992031872
10718.78051757813	-2.285212858555155	-33.39655039747468	3.478714144484538	5.576222368590334	2.739843892968595	-0.8696320775137797	3476.451282051281	3632.234432234432	0.1679487179487179	0.598984771573604	0.06374501992031872
10738.31176757813	-3.004004909800272	-33.23672427187096	3.599509019972841	4.511681893956665	1.235767782170582	-1.009750286790557	3495.384615384615	3630.769230769231	0.1576923076923077	0.598984771573604	0.07171314741035856
10757.84301757813	-2.997341345615221	-33.89730062554401	4.265865438477912	5.922331535709814	-0.2548355244003408	0.05116477395420993	3464.8	3627.838827838828	0.1743589743589744	0.6002538071065989	0.06640106241699867
10777.37426757813	-2.679742026191347	-33.9749990150852	4.025797380865321	4.858353571232264	-0.2574595264805311	-0.5706871330244794	3486.646153846154	3632.234432234432	0.1641025641025641	0.6027918781725888	0.06108897742363877
10796.90551757813	-3.239549746199768	-33.31574706403054	4.045025380023219	4.164447706524943	1.227542982103873	-0.9670797428547224	3486.646153846154	3630.769230769231	0.1615384615384616	0.5913705583756345	0.06772908366533864
10816.43676757813	-2.722569815069935	-33.89481987139475	3.743018493006489	3.817776029249343	2.720770290754986	-1.4061428966208	3493.928205128205	3629.304029304029	0.1628205128205128	0.5951776649746192	0.06640106241699867
10835.96801757813	-0.917895040092188	-33.03292600950688	4.210495990781197	3.473466894629451	3.08515221810274	-1.390172834762169	3508.492307692307	3632.234432234432	0.1705128205128205	0.6040609137055837	0.06640106241699867
10855.49926757813	-2.280396009617693	-33.43987695336305	3.960399038230698	3.823063624716879	1.96453163686609	-0.9778101630732958	3495.384615384615	3633.699633699634	0.1705128205128205	0.6053299492385786	0.07835325365205843
10875.03051757813	-1.607494216703416	-33.8625846872834	3.25057832965837	4.177947950271844	0.0876724017405444	-0.1371147578369178	3472.082051282051	3626.373626373626	0.1641025641025641	0.6002538071065989	0.06640106241699867
10894.56176757813	-2.920303772346793	-33.51049318992974	3.969622765320657	4.891766674505844	-0.2905351236604382	0.5541081751548098	3456.061538461538	3623.443223443223	0.1666666666666667	0.6040609137055837	0.06640106241699867
10914.09301757813	-2.681511794970287	-33.55013462554155	3.848820502971364	4.172660354804308	0.8439110556294402	-0.5654474913844221	3477.907692307692	3630.769230769231	0.1743589743589744	0.6027918781725888	0.07038512616201859
10933.62426757813	-2.923412409680235	-33.73812269699219	3.65875903197649	4.164447706524943	1.227542982103873	-0.9670797428547224	3476.451282051281	3629.304029304029	0.158974358974359	0.6027918781725888	0.06905710491367861
