Time Stamp	Accelerometer X	Accelerometer Y	Accelerometer Z	Gyroscope X	Gyroscope Y	Gyroscope Z	VSenseReg	VSenseBatt	Magnetometer X	Magnetometer Y	Magnetometer Z
1279.327392578125	-5.629285456624968	-32.37903707342417	5.071454337503216	9.657531074040612	-2.333851893793503	-2.507598933235325	3485.189743589744	3623.443223443223	0.191025641025641	0.5888324873096447	0.07702523240371846
1298.858642578125	-5.873263625988455	-32.37261912236704	4.673637401154566	1.41526222503334	3.386359746997009	-0.4109865144381732	3491.015384615384	3629.304029304029	0.2064102564102564	0.5951776649746192	0.07702523240371846
1318.389892578125	-6.035433541027242	-32.90728904663941	4.456645897275848	5.579147421402163	3.112450620383059	-0.8963325595909836	3479.364102564102	3624.908424908425	0.1923076923076923	0.5913705583756345	0.07171314741035856
1337.921142578125	-6.029739502347176	-33.1438092564755	5.026049765282492	4.167372759336772	1.600149709518336	-0.9937802249319263	3480.820512820513	3627.838827838828	0.1961538461538462	0.5850253807106599	0.08632138114209827
1357.452392578125	-5.91826130528296	-31.86717146627959	4.173869471704013	4.159160111057407	1.983781635992769	-1.395412476402226	3488.102564102564	3626.373626373626	0.2064102564102564	0.5964467005076142	0.07835325365205843
1376.983642578125	-5.624083875344258	-33.38429067051768	5.59161246557415	4.855991028576557	0.8713858548228283	-1.025720348649188	3473.538461538461	3629.304029304029	0.2012820512820513	0.5951776649746192	0.07171314741035856
1396.514892578125	-5.679761724487321	-33.1757483505755	4.023827551267893	4.142172304342557	1.249593380223811	-1.716943281640915	3480.820512820513	3619.047619047619	0.1948717948717949	0.5888324873096447	0.08100929614873838
1416.046142578125	-5.879450122067878	-32.90483229978836	4.054987793212213	4.855991028576557	0.8713858548228283	-1.025720348649188	3454.605128205128	3621.978021978022	0.2153846153846154	0.5862944162436548	0.07702523240371846
1435.577392578125	-5.545722822815059	-33.3065122566491	5.427717718494113	5.209075321631935	1.624824109718465	-1.12179185673943	3466.25641025641	3624.908424908425	0.1987179487179487	0.5901015228426395	0.06905710491367861
1455.108642578125	-5.635287281179632	-32.37297523062395	4.471271882036754	4.839565732017827	1.638649707771693	-1.828984851589788	3474.994871794872	3620.51282051282	0.2064102564102564	0.5964467005076142	0.07171314741035856
1474.639892578125	-6.273394496542334	-32.94541002003071	4.660550345766651	4.148022409966214	1.994806835052738	-1.770344245795323	3485.189743589744	3623.443223443223	0.2076923076923077	0.5951776649746192	0.06241699867197875
1494.171142578125	-5.314163813491609	-33.26192531760424	4.583618650839085	4.13688470887502	2.005832034112707	-2.145276015188419	3493.928205128205	3624.908424908425	0.2076923076923077	0.5888324873096447	0.07835325365205843
1513.702392578125	-5.51319047144178	-32.64552377768996	4.680952855822016	4.15331000543375	1.238568181163842	-1.342011512247819	3483.733333333333	3624.908424908425	0.1987179487179487	0.583756345177665	0.06772908366533864
1533.233642578125	-5.305130298072153	-32.84797224510098	5.486970192784759	4.853065975764728	0.4987791274083648	-0.9990198665719836	3466.25641025641	3624.908424908425	0.1974358974358974	0.5888324873096447	0.07968127490039841
1552.764892578125	-6.075152692572388	-33.5994803958865	4.484730742761183	3.817213519093222	1.219318182037163	-0.9244091989188878	3488.102564102564	3626.373626373626	0.1974358974358974	0.5939086294416244	0.07702523240371846
1572.296142578125	-6.424561066564236	-31.99119332277012	5.543893343576446	4.53395729613905	1.213717384050644	-0.2598867480043641	3470.625641025641	3619.047619047619	0.191025641025641	0.5850253807106599	0.07569721115537847
1591.827392578125	-6.021444673026754	-32.88295626485837	5.855532697324602	4.889404131850136	0.8383102576429212	0.0990749595301017	3466.25641025641	3626.373626373626	0.1935897435897436	0.5926395939086294	0.07702523240371846
1611.358642578125	-5.669096943932494	-31.84036593278202	5.090305606750605	4.528669700671514	1.96995603793954	-0.6882194815518683	3492.471794871794	3629.304029304029	0.1987179487179487	0.5926395939086294	0.07702523240371846
1630.889892578125	-5.78560744004639	-33.53499802401468	5.43925599536105	5.586797559525406	1.227366585190803	-0.01296661041877123	3466.25641025641	3624.908424908425	0.2038461538461538	0.5875634517766497	0.07171314741035856
1650.421142578125	-6.031170706664057	-32.56544066319238	4.882929333594335	3.822501114560759	0.4630795281482674	-0.4960764653713837	3505.579487179487	3629.304029304029	0.1974358974358974	0.5913705583756345	0.07304116865869853
1669.952392578125	-5.716095231411888	-33.33289766242784	4.390476858811232	3.828351220184416	1.208292982977194	-0.5494774295257915	3486.646153846154	3627.838827838828	0.2012820512820513	0.5786802030456852	0.08100929614873838
1689.483642578125	-5.554433163066188	-33.52848404376469	4.556683693381249	4.548020050042073	1.575298912405139	0.08834453931152841	3463.343589743589	3623.443223443223	0.2	0.58248730964467	0.0743691899070385
1709.014892578125	-5.711786229167513	-33.10648052392543	4.821377083248692	4.536319838794759	0.08487200274728483	0.195146467620344	3450.235897435897	3621.978021978022	0.1974358974358974	0.5875634517766497	0.07702523240371846
1728.546142578125	-5.86044434431144	-33.42402813532237	5.955565568856009	5.219088002410886	-1.38910530677715	0.2166073080574906	3454.605128205128	3620.51282051282	0.2051282051282051	0.5875634517766497	0.08366533864541832
1748.077392578125	-5.388431313888654	-33.57460744989553	5.156868611134707	4.880628973414651	-0.2795099246004691	0.1791764057617135	3470.625641025641	3624.908424908425	0.2012820512820513	0.5951776649746192	0.07968127490039841
1767.608642578125	-6.67569525751213	-33.09293240529736	4.430474248787014	4.525744647859686	1.597349310525077	-0.6615189994746644	3479.364102564102	3626.373626373626	0.1987179487179487	0.581218274111675	0.07304116865869853
1787.139892578125	-6.827446620695769	-32.67658660540496	5.255337930423155	3.828913730340537	2.709745091695017	-1.031211127227704	3485.189743589744	3626.373626373626	0.1987179487179487	0.5964467005076142	0.07038512616201859
1806.671142578125	-5.507296371943224	-32.38224604895272	5.270362805677541	4.162085163869236	2.356388363407232	-1.422112958479431	3488.102564102564	3624.908424908425	0.2	0.5710659898477157	0.08100929614873838
1826.202392578125	-5.309146903735659	-32.80545393491929	5.085309626434127	4.508756841144836	0.8631610547561188	-0.9830498047133531	3488.102564102564	3626.373626373626	0.2025641025641026	0.5888324873096447	0.0743691899070385
1845.733642578125	-5.992313355567784	-32.71853274164577	4.768664443221508	4.858353571232264	-0.2574595264805311	-0.5706871330244794	3470.625641025641	3626.373626373626	0.2076923076923077	0.5862944162436548	0.07702523240371846
1865.264892578125	-6.510355147964982	-33.48454130055536	4.964485203501864	4.505831788333008	0.4905543273416553	-0.956349322636149	3488.102564102564	3626.373626373626	0.2051282051282051	0.5862944162436548	0.07569721115537847
1884.796142578125	-5.515468086913806	-32.95091569375552	4.453191308619358	4.853065975764728	0.4987791274083648	-0.9990198665719836	3474.994871794872	3627.838827838828	0.1987179487179487	0.5888324873096447	0.07304116865869853
1904.327392578125	-6.946973418380726	-32.82971069358931	5.302658161927379	4.522819595047857	1.224742583110613	-0.6348185173974605	3469.169230769231	3626.373626373626	0.1948717948717949	0.6015228426395939	0.07968127490039841
1923.858642578125	-6.272209520925131	-32.90814530694254	4.779047907486952	4.5034692456773	1.619399708645015	-1.411382538260857	3486.646153846154	3627.838827838828	0.1987179487179487	0.5901015228426395	0.0743691899070385
1943.389892578125	-6.346107678272658	-33.14427739879076	5.389232172734356	4.522819595047857	1.224742583110613	-0.6348185173974605	3476.451282051281	3627.838827838828	0.1961538461538462	0.5901015228426395	0.07569721115537847
1962.921142578125	-6.55315215825611	-33.48131632016133	4.684784174389014	3.809000870813858	1.602950108511596	-1.326041450389188	3499.753846153846	3626.373626373626	0.2051282051282051	0.5977157360406091	0.06905710491367861
1982.452392578125	-6.186338493055736	-32.60718273739831	5.36615069442649	3.820138571905051	1.591924909451627	-0.9511096809960917	3486.646153846154	3627.838827838828	0.2051282051282051	0.5977157360406091	0.0743691899070385
2001.983642578125	-5.745795952738863	-33.07366916465683	5.420404726113661	3.834201325808073	1.953506437806121	-0.6028783936801994	3466.25641025641	3624.908424908425	0.1987179487179487	0.5901015228426395	0.06905710491367861
2021.514892578125	-6.826584820246894	-32.83130317770448	5.341517975310648	3.464691736193965	1.96733203585935	-1.310071388530558	3498.297435897436	3627.838827838828	0.1897435897435897	0.5939086294416244	0.06772908366533864
2041.046142578125	-5.420748215149713	-32.77427507192956	5.925178485028678	4.508756841144836	0.8631610547561188	-0.9830498047133531	3477.907692307692	3623.443223443223	0.1948717948717949	0.5862944162436548	0.06905710491367861
2060.577392578125	-5.23070890473781	-32.92006092929173	4.929109526219047	4.505831788333008	0.4905543273416553	-0.956349322636149	3470.625641025641	3627.838827838828	0.2051282051282051	0.5875634517766497	0.08366533864541832
2080.108642578125	-7.11477581492466	-32.2817687346184	4.522418507533982	4.497619140053643	0.8741862538160878	-1.35798157410645	3485.189743589744	3624.908424908425	0.1935897435897436	0.598984771573604	0.0743691899070385
2099.639892578125	-5.175600459462753	-33.7049512282503	6.439954053724639	3.806075818002029	1.230343381097132	-1.299340968311984	3486.646153846154	3626.373626373626	0.1833333333333333	0.583756345177665	0.08366533864541832
2119.171142578125	-6.229566403571301	-32.52659947085453	5.043359642869893	3.464691736193965	1.96733203585935	-1.310071388530558	3499.753846153846	3626.373626373626	0.191025641025641	0.5862944162436548	0.07304116865869853
2138.702392578125	-5.553632919792233	-32.52929228947139	4.636708020776777	4.519894542236029	0.8521358556961498	-0.6081180353202567	3463.343589743589	3624.908424908425	0.2038461538461538	0.5926395939086294	0.0743691899070385
2158.233642578125	-5.068169646649505	-33.30884096457631	5.183035335049547	3.828351220184416	1.208292982977194	-0.5494774295257915	3466.25641025641	3626.373626373626	0.2064102564102564	0.5875634517766497	0.07569721115537847
2177.764892578125	-5.551432250788856	-33.03151496516479	4.85677492111448	3.481117032752695	1.200068182910485	-0.5068068855899569	3482.276923076923	3627.838827838828	0.2025641025641026	0.5901015228426395	0.07038512616201859
2197.296142578125	-4.509177559208768	-33.92880758827607	5.08224407912313	4.177947950271844	0.0876724017405444	-0.1371147578369178	3470.625641025641	3620.51282051282	0.1948717948717949	0.5862944162436548	0.07569721115537847
2216.827392578125	-5.707769623504007	-33.1489988341071	5.223037649599323	4.203148405266059	0.4382287310350698	0.5860482988720711	3467.71282051282	3624.908424908425	0.1974358974358974	0.5748730964467005	0.07304116865869853
2236.358642578125	-6.027954344274506	-34.60715072766737	5.204565572549439	3.861764323457996	1.175217385797287	0.5753178786534977	3469.169230769231	3624.908424908425	0.2025641025641026	0.5888324873096447	0.07304116865869853
2255.889892578125	-5.243605132883474	-32.67626650809538	3.63948671165265	3.176071107030039	2.276587967907259	0.580557520293555	3486.646153846154	3626.373626373626	0.191025641025641	0.581218274111675	0.07038512616201859
2275.421142578125	-5.635548899173041	-32.71886484260446	4.445110082695909	3.495179786655716	1.561649711264979	-0.1585755982740645	3482.276923076923	3620.51282051282	0.2012820512820513	0.5901015228426395	0.06374501992031872
2294.952392578125	-5.834160046192504	-32.14134450719172	4.583995380749594	3.847701569554974	0.8136358574427929	0.2270865913376052	3474.994871794872	3621.978021978022	0.1923076923076923	0.5964467005076142	0.06374501992031872
2314.483642578125	-4.917895655663937	-33.03138692624096	4.210434433606277	3.505754977590788	0.04917240348718745	0.698089868820944	3453.148717948718	3621.978021978022	0.2051282051282051	0.5964467005076142	0.07702523240371846
2334.014892578125	-6.29947873384278	-32.72829570958802	6.052126615721948	4.555670188165317	-0.3097851227871167	0.9717104884837408	3453.148717948718	3621.978021978022	0.2064102564102564	0.581218274111675	0.06772908366533864
2353.546142578125	-7.149739674707266	-32.86337831316104	5.026032529273514	4.511119383800544	-0.2656843265472406	-0.5280165890886449	3476.451282051281	3624.908424908425	0.2012820512820513	0.5926395939086294	0.05710491367861886
2373.077392578125	-5.751320709187901	-33.26039685295098	4.867929081209918	3.856476727990459	1.931456039686183	0.1469851451059935	3470.625641025641	3626.373626373626	0.1846153846153846	0.6027918781725888	0.06772908366533864
2392.608642578125	-6.750963062001619	-32.90460423045528	4.903693799838227	3.834763835964194	3.454958546523944	-1.084612091382111	3486.646153846154	3624.908424908425	0.1974358974358974	0.5875634517766497	0.06905710491367861
2412.139892578125	-6.191447738574066	-32.83279163019404	4.855226142593502	3.475829437285158	1.956306836799381	-0.9351396191374612	3479.364102564102	3626.373626373626	0.2064102564102564	0.5913705583756345	0.07835325365205843
2431.671142578125	-6.310066567928958	-33.25606353562251	4.993343207104189	3.792575574255129	2.37021396146046	-2.129305953329789	3482.276923076923	3624.908424908425	0.191025641025641	0.5926395939086294	0.07038512616201859
2451.202392578125	-6.668108335703285	-33.06213365786276	5.189166429671543	3.448266439635236	2.734595888808215	-2.113335891471158	3470.625641025641	3621.978021978022	0.2051282051282051	0.583756345177665	0.08100929614873838
2470.733642578125	-6.347723554114297	-32.10418382572917	5.22764458857031	4.146222377466628	4.62510432507392	-2.707111159121943	3456.061538461538	3616.117216117216	0.1935897435897436	0.5875634517766497	0.08233731739707835
2490.264892578125	-5.899270916820251	-33.34789022016539	6.072908317974817	4.113371784349169	6.15963203097165	-4.313640165003145	3473.538461538461	3617.582417582417	0.1923076923076923	0.5913705583756345	0.0743691899070385
2509.796142578125	-5.946546211586784	-33.14783448014349	5.345378841321607	3.719224249896967	7.324353408448175	-6.225729914264404	3472.082051282051	3614.652014652014	0.1987179487179487	0.5901015228426395	0.0743691899070385
2529.327392578125	-6.861379397798469	-32.8361606543774	5.862060220153079	5.113448595091387	6.601013954826118	-5.968079356460239	3458.974358974359	3611.721611721612	0.1987179487179487	0.5939086294416244	0.07569721115537847
2548.858642578125	-6.82890860360011	-33.02126384882543	5.109139639989017	4.039457949834886	9.612319369241542	-7.928330428235848	3474.994871794872	3608.791208791209	0.2	0.5913705583756345	0.07569721115537847
2568.389892578125	-7.022810626738221	-33.21773049776363	5.718937326177926	4.367904298052171	11.51665340356048	-9.229298690736991	3469.169230769231	3604.395604395604	0.2	0.5888324873096447	0.06772908366533864
2587.921142578125	-6.393382973039189	-32.94422165876888	4.661702696081147	5.376193757073754	11.57440340094051	-10.48210563072378	3469.169230769231	3601.465201465201	0.1935897435897436	0.5862944162436548	0.0650730411686587
2607.452392578125	-6.18555363907551	-33.56951390145681	5.444636092449027	5.707002647946744	12.34989205395609	-11.32804067760022	3469.169230769231	3600	0.2102564102564103	0.5875634517766497	0.07304116865869853
2626.983642578125	-6.702164227155825	-32.91389105364953	5.783577284417539	7.77634501863405	12.03765932600185	-11.93229522853112	3434.215384615385	3592.673992673992	0.2051282051282051	0.5964467005076142	0.07304116865869853
2646.514892578125	-7.31235587926422	-33.28221286963544	4.764412073578059	6.702354373377548	15.04896474041727	-13.89254630030673	3547.815384615385	3696.703296703297	0.2217948717948718	0.581218274111675	0.07702523240371846
2666.046142578125	-6.902529753660498	-33.94998341034135	5.747024633950258	7.714131395367081	16.98077357392959	-15.65378742007264	3543.446153846154	3696.703296703297	0.208974358974359	0.581218274111675	0.0743691899070385
2685.577392578125	-6.904545751139116	-32.90948571442641	5.545424886088448	9.077867690099749	16.66311644490191	-16.54763265252496	3531.794871794872	3690.84249084249	0.2025641025641026	0.5786802030456852	0.08100929614873838
2705.108642578125	-6.190355098719242	-33.56466442721663	4.964490128075857	11.10265925642228	16.39498451318755	-18.65161428102825	3534.707692307692	3683.516483516483	0.2153846153846154	0.5710659898477157	0.08632138114209827
2724.639892578125	-7.656747343500117	-33.21745441383411	6.325265649988365	13.14387611930354	15.35958872852432	-19.95233140659094	3528.882051282051	3683.516483516483	0.2128205128205128	0.5736040609137055	0.07968127490039841
2744.171142578125	-6.941894951449856	-33.52714763749718	5.810504855014385	14.12347756036296	13.19272356047754	-21.4198672235076	3547.815384615385	3682.051282051282	0.2166666666666667	0.581218274111675	0.08897742363877821
2763.702392578125	-6.019736461422735	-34.15391232780919	6.026353857726594	16.52486634426672	9.524229886799875	-21.4515562102864	3525.969230769231	3679.120879120879	0.2166666666666667	0.5761421319796954	0.09296148738379813
2783.233642578125	-6.534731173661409	-33.53838305306351	6.526882633859154	18.22942421065133	6.968131994292146	-21.85293732481824	3509.948717948718	3674.725274725275	0.2269230769230769	0.583756345177665	0.09694555112881806
2802.764892578125	-8.140086894108116	-32.74774300618157	5.991310589188343	20.27885372181196	5.549104283154486	-22.75202219891063	3540.533333333333	3676.190476190476	0.2282051282051282	0.58248730964467	0.100929614873838
2822.296142578125	-7.694558222622754	-32.6808038874587	6.544177737724574	21.32876893238649	5.190146756880183	-22.47840157924783	3521.6	3677.655677655677	0.2333333333333333	0.583756345177665	0.1035856573705179
2841.827392578125	-9.087837164036328	-34.13513061816946	7.216283596367141	22.34290849703172	5.993110209089145	-23.78460948338903	3514.317948717948	3671.794871794872	0.2371794871794872	0.565989847715736	0.100929614873838
2861.358642578125	-9.212873328876594	-32.51345947629618	6.712667112340612	23.74354545800592	7.516436319013836	-24.06209358744118	3488.102564102564	3665.934065934066	0.2333333333333333	0.5786802030456852	0.1115537848605578
2880.889892578125	-8.889641527947573	-33.67376974908064	7.0358472052427	23.34118527527436	9.064789622964796	-26.37581558817274	3521.6	3667.399267399267	0.2423076923076923	0.5685279187817258	0.1115537848605578
2900.421142578125	-9.162073885845912	-32.52476691375717	7.792611415408745	25.40231499768229	9.136188821484989	-27.38170239057395	3515.774358974359	3663.003663003663	0.2423076923076923	0.5723350253807106	0.1142098273572377
2919.952392578125	-9.444924795599402	-32.32677980259845	7.507520440059931	26.43580491169809	9.54449514815955	-27.91134627385175	3502.666666666666	3668.864468864469	0.25	0.567258883248731	0.1274900398406375
2939.483642578125	-8.319630706196222	-31.84332683289566	8.036929380377787	27.11913558547034	9.571969947352939	-28.37161913111651	3502.666666666666	3667.399267399267	0.2525641025641026	0.5723350253807106	0.1221779548472776
2959.014892578125	-9.721173698342758	-32.63546071851997	7.882630165724225	27.10327279906773	11.84068590901963	-29.65661733175903	3531.794871794872	3664.468864468864	0.2576923076923077	0.5634517766497461	0.1341301460823373
2978.546142578125	-10.47049749277627	-32.13864368614213	8.950250722373447	29.18139032819052	12.64627336330878	-30.34097332892154	3495.384615384615	3658.608058608058	0.2666666666666667	0.5647208121827411	0.1261620185922975
2998.077392578125	-9.586765453620979	-31.6896745841505	9.323454637902229	28.83471865091492	14.13950067195989	-30.78003648268762	3498.297435897436	3661.538461538461	0.2692307692307692	0.5507614213197969	0.1447543160690571
3017.608642578125	-10.46891239552209	-32.10178309590731	9.108760447791511	29.8406455672808	15.32609605064329	-32.48787663829912	3512.861538461538	3658.608058608058	0.2756410256410257	0.5583756345177665	0.148738379814077
3037.139892578125	-11.66273377876105	-31.2498696526821	9.726622123894893	30.54681415339156	16.83297256043456	-32.6800196544796	3499.753846153846	3655.677655677655	0.2730769230769231	0.5520304568527918	0.1527224435590969
3056.671142578125	-10.22533434779558	-31.10779692411108	9.466565220442398	31.56680382366045	18.38114946747245	-34.03962852277521	3525.969230769231	3655.677655677655	0.2756410256410257	0.549492385786802	0.1553784860557769
3076.202392578125	-9.98638847748177	-30.53220917620495	9.361152251823015	33.29363709222746	15.80300117684478	-33.69114609852086	3504.123076923077	3657.142857142857	0.2782051282051282	0.5406091370558376	0.1606905710491368
3095.733642578125	-10.61589307764945	-30.61333260695867	10.41069223505484	34.31778933765165	13.59203521255813	-33.65895483786514	3496.841025641026	3655.677655677655	0.2884615384615384	0.5532994923857868	0.1620185922974768
3115.264892578125	-11.16626716060144	-30.54053170625408	11.37328393985618	34.26682591750709	11.38947044525126	-34.62354725358121	3517.230769230769	3651.282051282051	0.2782051282051282	0.5380710659898477	0.1713147410358566
3134.796142578125	-11.44727135510734	-30.95979439288005	11.27286448926627	36.0299973421595	9.150853284858147	-33.17697000322477	3499.753846153846	3655.677655677655	0.2974358974358974	0.5342639593908629	0.1859229747675963
3154.327392578125	-10.7679060588265	-30.54287641904677	11.20939411735014	37.37089572455366	7.353794445232576	-34.33894507676138	3502.666666666666	3655.677655677655	0.3064102564102564	0.5215736040609137	0.1952191235059761
3173.858642578125	-11.32568239206257	-28.96259924555526	11.43176079374284	38.05422639832591	7.381269244425964	-34.79921793402615	3496.841025641026	3648.351648351648	0.3	0.5203045685279187	0.1859229747675963
3193.389892578125	-11.88244303191247	-28.92180946084533	11.75569680875294	37.72690507042087	8.479839427542675	-34.46171706692882	3512.861538461538	3655.677655677655	0.3051282051282052	0.5266497461928934	0.201859229747676
3212.921142578125	-12.40243926461337	-28.80122865043281	11.75607353866344	38.81608348989263	8.833019758917391	-33.11670210324115	3515.774358974359	3660.07326007326	0.3051282051282052	0.5177664974619289	0.2031872509960159
3232.452392578125	-11.87251693745668	-27.73952712393798	12.74830625433208	40.62729328187776	8.424360638416692	-30.67883195509144	3499.753846153846	3661.538461538461	0.3166666666666667	0.4961928934010152	0.2098273572377158
3251.983642578125	-11.06283694858622	-28.14191929731253	13.71630514137836	40.91838895572862	-0.1483944911092271	-29.73245964185849	3508.492307692307	3667.399267399267	0.3243589743589744	0.5114213197969543	0.2151394422310757
3271.514892578125	-11.58744996940608	-28.47821399243831	13.25500305939159	41.20183449145623	-6.836065585442891	-29.66945327779775	3505.579487179487	3660.07326007326	0.3128205128205128	0.5050761421319797	0.2310756972111554
3291.046142578125	-12.66594583214836	-27.96893317106862	13.40541678516423	42.53755778041408	-15.01153958735422	-28.8777930784495	3511.405128205128	3663.003663003663	0.3307692307692308	0.4974619289340101	0.2337317397078353
3310.577392578125	-13.03158991102526	-26.76732495909526	12.84100889747406	43.53358451803223	-17.94566860834986	-29.54206439242557	3501.210256410256	3661.538461538461	0.3435897435897436	0.483502538071066	0.2284196547144754
3330.108642578125	-16.3045190353252	-26.6262819281677	13.54809646747996	38.99490213658176	-16.90169522979378	-30.19224407567062	3504.123076923077	3658.608058608058	0.3346153846153846	0.4885786802030456	0.2443559096945551
3349.639892578125	-15.54280685943912	-26.09714968735111	13.71931405608843	37.27211894113883	-10.94803599431601	-31.530894377406	3508.492307692307	3660.07326007326	0.35	0.4873096446700507	0.250996015936255
3369.171142578125	-16.20573639001641	-26.60759086146804	15.42636099835888	37.27324396145108	-7.945131776880364	-32.49436177280983	3511.405128205128	3654.212454212454	0.3435897435897436	0.4720812182741117	0.248339973439575
3388.702392578125	-15.23928812820636	-25.96985745205004	16.07118717936406	37.23746831552179	-6.783210798397097	-34.07419029661382	3515.774358974359	3655.677655677655	0.3435897435897436	0.4784263959390863	0.250996015936255
3408.233642578125	-14.95911495556188	-25.47283235642097	16.08850444381245	39.63176947145843	-7.065168328164686	-35.47097893026675	3480.820512820513	3645.421245421245	0.3551282051282051	0.4568527918781726	0.2602921646746348
3427.764892578125	-16.40203914297639	-25.80163277328615	15.79608570236121	39.96314087248754	-4.78822756643129	-36.79864767484509	3479.364102564102	3643.956043956044	0.3628205128205128	0.4568527918781726	0.2695883134130146
3447.296142578125	-17.52119290418133	-24.63744132062301	15.88070958186673	39.93029027937008	-3.25369986053356	-38.4051766807263	3486.646153846154	3642.490842490842	0.3666666666666666	0.4555837563451776	0.2642762284196547
3466.827392578125	-16.82968545514759	-23.57894076722401	17.03145448524044	38.85629963411358	-0.2423944461181358	-40.36542775250191	3480.820512820513	3632.234432234432	0.3705128205128205	0.4416243654822335	0.2695883134130146
3486.358642578125	-17.10688849410221	-24.50204262095677	17.31115058977929	38.16824387502992	1.987821517295195	-40.81522132648655	3488.102564102564	3636.630036630037	0.3743589743589744	0.4416243654822335	0.2749003984063745
3505.889892578125	-17.19736092079685	-23.29835777768749	16.26390792031546	37.45150009798409	1.993422315281714	-41.47974377740108	3501.210256410256	3638.095238095238	0.3884615384615385	0.4454314720812183	0.2948207171314741
3525.421142578125	-16.2288043257458	-23.93198455407367	17.1195674254204	38.50434036137045	2.007071516421873	-41.23282363981549	3496.841025641026	3635.164835164835	0.3871794871794872	0.4314720812182741	0.2841965471447543
3544.952392578125	-16.66736164717151	-23.4290416594337	17.26383528284906	38.84808698583422	0.1412374803562964	-40.76706000397221	3499.753846153846	3636.630036630037	0.3974358974358974	0.4200507614213198	0.2895086321381142
3564.483642578125	-17.50895841566605	-22.22672123094651	17.10415843339452	39.20589636420101	-1.363015027354786	-39.95306508081303	3480.820512820513	3636.630036630037	0.3935897435897436	0.4073604060913705	0.3081009296148738
3584.014892578125	-17.94323751343486	-22.42040703450772	17.67624865651465	38.8703623880166	0.1191870822363583	-40.01719646518601	3488.102564102564	3639.560439560439	0.4012820512820513	0.4149746192893401	0.296148738379814
3603.546142578125	-19.21189580093887	-22.4575237025902	18.81041990611299	38.88206259926392	1.609613991894212	-40.12399839349483	3482.276923076923	3638.095238095238	0.4	0.3972081218274111	0.3107569721115538
3623.077392578125	-19.65867100521636	-21.4078192078084	18.1328994783645	38.9113131273822	5.335681266038846	-40.39100321426687	3472.082051282051	3633.699633699634	0.408974358974359	0.4035532994923858	0.3200531208499336
3642.608642578125	-18.06408779038058	-20.26450210094637	17.59122096194166	38.21976980533059	5.691838393319891	-40.3323626084724	3499.753846153846	3638.095238095238	0.4205128205128205	0.3794416243654822	0.3187250996015936
3662.139892578125	-18.93256903944953	-20.84425911630982	18.74309605504688	39.98114119748341	6.083518722947964	-39.82255227144259	3501.210256410256	3638.095238095238	0.4230769230769231	0.3743654822335025	0.3346613545816733
3681.671142578125	-19.77074938473604	-20.18385081372429	18.92506152639633	39.61106909771318	4.59589221228337	-40.04801156859104	3486.646153846154	3633.699633699634	0.4217948717948718	0.3578680203045685	0.3293492695883134
3701.202392578125	-19.16623638201398	-19.6174858695505	19.37636179860215	40.68089716781439	5.343729669192487	-39.47956062576675	3498.297435897436	3638.095238095238	0.417948717948718	0.3451776649746193	0.3320053120849933
3720.733642578125	-20.12028087307773	-19.26774708742227	19.97191269222767	41.02700633493386	2.349050251823551	-38.55876377429876	3479.364102564102	3641.025641025641	0.4320512820512821	0.350253807106599	0.3320053120849933
3740.264892578125	-18.94561854496075	-18.21723296189734	21.4381455039255	40.68033465765826	3.842277560474664	-38.99782692806484	3502.666666666666	3642.490842490842	0.4256410256410256	0.3464467005076142	0.347941567065073
3759.796142578125	-20.83036258407172	-17.88594917470295	20.96374159282883	41.72676230526484	1.609261198068074	-38.21577212862293	3476.451282051281	3641.025641025641	0.4320512820512821	0.333756345177665	0.3439575033200531
3779.327392578125	-19.92702520027627	-17.45524300925943	19.29747997237314	40.69034733843721	0.8283481439790497	-37.65942776326791	3493.928205128205	3642.490842490842	0.4397435897435897	0.3350253807106599	0.3559096945551128
3798.858642578125	-20.75093967027515	-17.46308939456056	20.90603297248517	41.06334449101927	2.688581382058107	-37.46066894819668	3495.384615384615	3645.421245421245	0.4384615384615385	0.3121827411167513	0.346613545816733
3818.389892578125	-21.22935464688958	-16.30604411433383	21.06453531104225	40.03334213997142	4.154333891515832	-37.43945924469799	3508.492307692307	3646.886446886447	0.441025641025641	0.3071065989847716	0.3532536520584329
3837.921142578125	-20.58563033931546	-15.77774412652215	21.43696606845404	40.40870183520919	4.885721748291531	-36.78566721400204	3511.405128205128	3648.351648351648	0.4512820512820513	0.3083756345177665	0.3665338645418326
3857.452392578125	-21.03520639505179	-15.72521077176692	20.47936049482119	39.7200835659694	5.614485602987039	-36.75372709028478	3501.210256410256	3645.421245421245	0.4653846153846154	0.2944162436548223	0.3652058432934927
3876.983642578125	-20.42944685953761	-15.27548944109778	21.05531404623928	40.41983953630038	4.874696549231562	-36.41073544460894	3482.276923076923	3645.421245421245	0.4564102564102564	0.2741116751269035	0.3758300132802125
3896.514892578125	-22.31388311277398	-13.71374728686751	20.61168872260244	39.73943391533996	5.219828477452637	-35.97716306942138	3507.035897435897	3649.81684981685	0.4512820512820513	0.282994923857868	0.3745019920318725
3916.046142578125	-21.93166476454996	-14.35517243395838	22.83352354500383	39.71130840753391	4.496665420743648	-36.67362564405316	3495.384615384615	3648.351648351648	0.4525641025641026	0.2690355329949238	0.3811420982735724
3935.577392578125	-21.25743949237491	-13.08690918962441	22.25605076250872	39.72717119393652	2.227949459076961	-35.38862744341066	3489.558974358974	3651.282051282051	0.4641025641025641	0.266497461928934	0.3758300132802125
3955.108642578125	-20.9407481412811	-12.89445976192147	21.92518587188967	39.00750236407887	1.860943529649016	-36.02644941224797	3505.579487179487	3646.886446886447	0.4602564102564102	0.2449238578680203	0.3798140770252324
3974.639892578125	-20.73639678770038	-12.82393155211492	22.3603212299616	39.73594635237201	3.345769641320351	-35.46872888964226	3505.579487179487	3651.282051282051	0.4653846153846154	0.248730964467005	0.3877822045152722
3994.171142578125	-22.66253741137306	-10.99083721451321	21.74625886269426	39.3775744638491	3.34857004031361	-35.80099011509952	3514.317948717948	3652.747252747252	0.4641025641025641	0.2296954314720812	0.3917662682602922
4013.702392578125	-22.62195645937904	-10.45336243756563	21.80435406209641	39.02212762813801	3.723977166721334	-36.15995182263399	3508.492307692307	3646.886446886447	0.4666666666666667	0.217005076142132	0.4037184594953519
4033.233642578125	-21.81772428048896	-10.23486770747538	22.2275719511039	40.12008120604526	5.194977680339441	-34.89503830517793	3486.646153846154	3648.351648351648	0.4551282051282051	0.2208121827411168	0.401062416998672
4052.764892578125	-23.13368864134697	-9.99497447223956	22.63113586530305	38.3645599195161	5.548510805540294	-35.45824960636215	3508.492307692307	3651.282051282051	0.4782051282051282	0.2055837563451776	0.4023904382470119
4072.296142578125	-22.68894482384184	-8.96570418945821	23.10551761581674	39.42032523571429	5.934766734094916	-35.23802995085376	3489.558974358974	3649.81684981685	0.4730769230769231	0.2055837563451776	0.4090305444887118
4091.827392578125	-22.72513982712283	-9.469147236144401	23.486017287717	39.43315046727384	10.42809786118842	-36.3082992745664	3502.666666666666	3652.747252747252	0.4871794871794872	0.1941624365482233	0.4077025232403718
4111.358642578125	-22.36949878917037	-8.66065237678408	23.05012108296306	38.72281930600779	12.68036422272169	-37.50795638733725	3502.666666666666	3645.421245421245	0.4756410256410256	0.1725888324873096	0.4103585657370518
4130.889892578125	-21.88625157432475	-7.899501294547388	23.37484256752514	38.40371062638211	13.39530247936396	-36.76882326876962	3502.666666666666	3643.956043956044	0.4756410256410256	0.166243654822335	0.4209827357237715
4150.421142578125	-23.36829473082895	-7.421099244939692	23.17052691710588	37.7121673043305	13.75145960664501	-36.71018266297516	3507.035897435897	3646.886446886447	0.4820512820512821	0.166243654822335	0.4236387782204515
4169.952392578125	-21.80315061932674	-6.672664028326149	23.68493806732631	38.4371237296557	13.36222688218406	-35.64402796059034	3498.297435897436	3651.282051282051	0.4820512820512821	0.1560913705583756	0.4236387782204515
4189.483642578125	-20.47973784030345	-6.535464781293514	24.02621596965477	38.43307365653163	9.986715937333948	-34.65386008310931	3493.928205128205	3652.747252747252	0.4858974358974359	0.1446700507614213	0.4329349269588313
4209.014892578125	-21.16364297823462	-5.601643668906116	23.63570217653859	38.4436488474667	8.474238629556156	-33.7971946160143	3499.753846153846	3657.142857142857	0.476923076923077	0.1408629441624365	0.4369189907038512
4228.546142578125	-22.32262361604081	-4.860303993952623	23.73763839591851	38.12397765768489	7.687724777480613	-32.57632779974477	3505.579487179487	3660.07326007326	0.476923076923077	0.1243654822335025	0.4342629482071713
4248.077392578125	-21.96228884350073	-4.787319037295029	23.77111564992681	36.74674111920533	9.14525248687163	-32.51244755231025	3504.123076923077	3660.07326007326	0.4794871794871795	0.116751269035533	0.4329349269588313
4267.608642578125	-21.39580217001353	-4.14562442367095	24.41978299864697	35.71910131081318	9.482159615025996	-32.03620463318685	3514.317948717948	3661.538461538461	0.4756410256410256	0.1015228426395939	0.4409030544488711
4287.139892578125	-22.32248511239725	-3.206597728786473	23.75148876027543	34.70079917101265	12.43833903414157	-32.12179685799698	3512.861538461538	3663.003663003663	0.467948717948718	0.1065989847715736	0.4435590969455511
4306.671142578125	-22.24635550745888	-3.549642475928067	23.36444925411171	34.35356498358093	12.43011423407486	-32.07912631406114	3505.579487179487	3660.07326007326	0.467948717948718	0.09517766497461928	0.4302788844621514
4326.202392578125	-22.31596005185577	-2.520880347625678	24.40399481442358	33.69599727495902	14.25464787289382	-31.3774240977893	3515.774358974359	3661.538461538461	0.4846153846153846	0.08121827411167512	0.4528552456839309
4345.733642578125	-21.99134321449105	-2.144127968748653	24.86567855089485	34.41859115762851	14.99426052973623	-30.76630261102918	3491.015384615384	3661.538461538461	0.4692307692307692	0.08121827411167512	0.4448871181938911
4365.264892578125	-20.87619066965588	-1.304278192878327	24.38093303441169	33.01907921696654	16.47383863724719	-31.45228590238085	3515.774358974359	3661.538461538461	0.4807692307692308	0.07360406091370558	0.4435590969455511
4384.796142578125	-20.31899912958155	-2.422426263738022	24.10008704184533	33.37396354252151	14.59697940212164	-30.61159049714448	3488.102564102564	3663.003663003663	0.4666666666666667	0.0532994923857868	0.4462151394422311
4404.327392578125	-20.38769570564836	-0.6638119526797683	25.23042943516367	32.33518603303818	14.94491172933598	-30.51027934741418	3504.123076923077	3663.003663003663	0.4717948717948718	0.04441624365482233	0.4701195219123506
4423.858642578125	-20.7173140634753	0.4644872041100494	24.26859365247035	31.62024228849194	12.32021503730131	-30.23803488500208	3518.687179487179	3663.003663003663	0.4666666666666667	0.04568527918781726	0.4608233731739708
4443.389892578125	-20.79047353472379	-0.6185448068520523	24.95264652762132	30.91351119222506	9.311886418792216	-29.56415817111969	3507.035897435897	3663.003663003663	0.4705128205128205	0.03680203045685279	0.4568393094289509
4462.921142578125	-20.71657537737626	0.6175872849961772	24.34246226237391	29.53042454812183	10.02420067335431	-29.44687695953076	3521.6	3664.468864468864	0.4602564102564102	0.02538071065989848	0.4648074369189907
4482.452392578125	-21.47227033941395	1.043916119731167	24.77296605860489	30.24536829266807	12.64889736538897	-29.71912142194285	3508.492307692307	3661.538461538461	0.4666666666666667	0.0215736040609137	0.4714475431606905
4501.983642578125	-20.67090056915764	1.419148036387677	24.90994308423607	26.80992708459239	14.40763260367426	-28.67605485418433	3495.384615384615	3663.003663003663	0.4538461538461538	0.008883248730964466	0.4687915006640106
4521.514892578125	-19.43659056968703	2.335571859999286	24.3409430312969	24.05140393450918	13.94717707760618	-27.55812648183426	3514.317948717948	3663.003663003663	0.4525641025641026	0.008883248730964466	0.4687915006640106
4541.046142578125	-19.43720614143623	1.874655125927513	24.27938585637726	22.34043345234479	14.25660940656716	-26.6216107054461	3511.405128205128	3667.399267399267	0.4538461538461538	-0.002538071065989848	0.4727755644090305
4560.577392578125	-19.5106118413844	2.407256421336702	24.93881586156037	22.39139687248934	16.45917417387403	-25.65701828973003	3515.774358974359	3670.32967032967	0.4564102564102564	0.002538071065989848	0.4687915006640106
4580.108642578125	-19.79075423544142	3.833277162411219	24.92457645585796	22.07521324567549	17.54671915793077	-24.94458565323961	3527.425641025641	3671.794871794872	0.4435897435897436	-0.01522842639593909	0.4741035856573705
4599.639892578125	-19.02930367754874	4.016519791247308	25.06963224512559	20.71496451391078	19.73843512309075	-24.5591746005664	3512.861538461538	3668.864468864469	0.4564102564102564	-0.01776649746192893	0.4714475431606905
4619.171142578125	-19.42921909799041	2.90504975050877	25.07809020095955	20.43568155333846	22.66696334609987	-23.23038083567582	3520.14358974359	3673.260073260073	0.4512820512820513	-0.02030456852791878	0.4780876494023904
4638.702392578125	-19.01428372686835	3.462888102598575	26.57162731316474	19.82795224454885	23.69115753479005	-20.60061880828408	3523.05641025641	3684.981684981685	0.4423076923076923	-0.01649746192893401	0.4860557768924302
4658.233642578125	-17.4240864607456	2.572173479199215	25.59135392543949	19.48488063227243	19.9237898633988	-19.16614813539692	3523.05641025641	3687.912087912088	0.4512820512820513	-0.02791878172588832	0.4807436918990704
4677.764892578125	-16.74721423004901	3.22237868004181	25.27857699509881	17.76220993886073	18.74279528270193	-18.12283043069994	3541.989743589743	3687.912087912088	0.4346153846153846	-0.02918781725888325	0.4833997343957503
4697.296142578125	-17.82544847479788	4.077549113392009	25.4551525202123	17.43848867595485	14.58077048577628	-15.91179573694938	3534.707692307692	3695.238095238095	0.4320512820512821	-0.04695431472081218	0.4847277556440903
4716.827392578125	-17.66669498296713	4.154131163566031	25.33050170328703	16.08003997668972	14.14218896091507	-14.58961777094955	3451.692307692307	3595.604395604395	0.4423076923076923	-0.04568527918781726	0.4807436918990704
4736.358642578125	-16.90502897496224	3.798694649327242	25.49710250377653	13.68281376794125	14.0515397632682	-13.16612865521942	3464.8	3595.604395604395	0.4230769230769231	-0.05837563451776649	0.4926958831341301
4755.889892578125	-18.38573326291193	4.929590595541044	25.42667370880747	14.72867890539171	10.31707129214378	-11.9023401580756	3457.517948717949	3602.930402930403	0.4333333333333334	-0.0532994923857868	0.4860557768924302
4775.421142578125	-17.46689886033047	4.61387554124146	25.31011396695364	11.96666819234055	7.982556929943418	-10.27597760594641	3480.820512820513	3604.395604395604	0.4346153846153846	-0.04314720812182741	0.4926958831341301
4794.952392578125	-17.7813895424209	4.919203437845105	25.8610457579104	13.00724573432347	5.0043271127079	-9.440521842350087	3460.430769230769	3601.465201465201	0.4282051282051282	-0.05203045685279188	0.4900398406374502
4814.483642578125	-18.0143643667675	5.414508010435172	26.56356332325026	13.35155486894337	4.639945185360147	-9.456491904208718	3448.779487179487	3602.930402930403	0.4153846153846154	-0.05837563451776649	0.49535192563081
4834.014892578125	-19.26275557000097	4.704613894931752	25.72444299990274	11.24643685232677	6.114098891797652	-10.43206587708182	3466.25641025641	3597.069597069597	0.4230769230769231	-0.06979695431472081	0.49535192563081
4853.546142578125	-18.50699905078837	5.124376733603938	25.30009492116372	11.59715860272645	7.996382527996647	-10.98317060079677	3463.343589743589	3598.534798534799	0.4294871794871795	-0.06598984771573603	0.49667994687915
4873.077392578125	-16.49998891970852	4.097296501213292	26.00110802914855	11.24643685232677	6.114098891797652	-10.43206587708182	3448.779487179487	3598.534798534799	0.4141025641025641	-0.06852791878172589	0.49800796812749
4892.608642578125	-16.22187791242384	4.750250537701922	25.81220875761616	10.20889686518691	2.330281620272982	-8.912254116322984	3458.974358974359	3604.395604395604	0.4153846153846154	-0.06218274111675126	0.5046480743691899
4912.139892578125	-15.62459787775484	4.400843856532386	25.54021222451625	8.504451500833518	-2.248274303393941	-6.128904995358785	3470.625641025641	3614.652014652014	0.4205128205128205	-0.06091370558375634	0.50199203187251
4931.671142578125	-16.89882708958908	6.292430745100356	26.11729104109188	9.922751280709912	-5.623961645157119	-4.184623985441807	3467.71282051282	3616.117216117216	0.4307692307692308	-0.07106598984771573	0.4900398406374502
4951.202392578125	-18.61482998523859	5.728670592783282	26.51700147614105	9.245833222717442	-3.404770880803758	-4.25948579003336	3466.25641025641	3616.117216117216	0.4294871794871795	-0.06979695431472081	0.4873837981407702
4970.733642578125	-18.57894276783219	6.001655272433588	26.10572321678098	7.564675778827457	2.132180831019678	-4.071708532119151	3461.887179487179	3617.582417582417	0.417948717948718	-0.07106598984771573	0.49667994687915
4990.264892578125	-17.98258609078699	6.960873490156391	25.74139092130161	6.223102384245951	9.562441378102076	-4.809967767312987	3482.276923076923	3617.582417582417	0.4256410256410256	-0.07233502538071066	0.4873837981407702
5009.796142578125	-18.18070478040709	6.307127212826545	25.92952195929101	5.218862998348437	12.88020232557215	-4.547328704807223	3479.364102564102	3620.51282051282	0.4115384615384615	-0.07106598984771573	0.4807436918990704
5029.327392578125	-16.42102768472385	5.674468730801856	25.89723152761516	5.22943818928351	11.36772501779436	-3.690663237712213	3466.25641025641	3620.51282051282	0.4256410256410256	-0.08248730964467005	0.4913678618857901
5048.858642578125	-17.90633337149878	6.310012089829153	25.36666285012182	4.164335204493719	8.362196798278523	-3.349047749287079	3483.733333333333	3620.51282051282	0.4230769230769231	-0.06218274111675126	0.5086321381142098
5068.389892578125	-16.65764977168444	6.288841654016666	26.23502283155617	3.137932918445044	4.567354327693884	-1.454304219135151	3476.451282051281	3624.908424908425	0.4115384615384615	-0.0748730964467005	0.49800796812749
5087.921142578125	-16.34012739872921	6.403528672716505	25.98726012707863	3.150870652035824	1.926031638612733	-0.1426055364154338	3479.364102564102	3621.978021978022	0.4153846153846154	-0.06598984771573603	0.5033200531208499
5107.452392578125	-17.46963815461439	5.462796074622069	25.03618453856126	2.818936740850591	-1.852361231838487	1.666796905864826	3464.8	3621.978021978022	0.4243589743589744	-0.06725888324873096	0.50066401062417
5126.983642578125	-16.66065068396177	5.791872575416773	25.93493160382294	1.468700689864823	-2.674574683174127	3.390607123334957	3476.451282051281	3629.304029304029	0.4025641025641026	-0.07233502538071066	0.5073041168658699
5146.514892578125	-16.58445952184849	5.294919501682357	25.55404781515119	-0.2738828630735596	-4.962364247054424	4.13909450487045	3496.841025641026	3636.630036630037	0.4192307692307692	-0.07106598984771573	0.50066401062417
5166.046142578125	-16.21996964000133	5.97909241332442	26.00303599986703	-1.268109568192121	-4.658532716079965	5.740132732173135	3488.102564102564	3638.095238095238	0.4038461538461539	-0.05710659898477157	0.49535192563081
5185.577392578125	-17.22801454719158	5.343371615740415	25.1985452808423	-3.673548425219953	-4.365549987252406	6.761989596432965	3489.558974358974	3639.560439560439	0.4217948717948718	-0.06218274111675126	0.49933598937583
5205.108642578125	-16.87003433659217	6.303350064573476	24.99656634078298	-4.003794805936823	-3.639586531550158	7.126190945607489	3457.517948717949	3633.699633699634	0.4256410256410256	-0.06218274111675126	0.5073041168658699
5224.639892578125	-16.35368536650526	5.301837604785701	24.63146334947362	-7.099651964704027	0.01245754199409146	7.24322102025796	3493.928205128205	3636.630036630037	0.4269230769230769	-0.05837563451776649	0.4926958831341301
5244.171142578125	-17.10808762786964	5.496091581071415	25.19123721303584	-9.474040261113984	1.401210054945103	8.934839977072372	3502.666666666666	3642.490842490842	0.4141025641025641	-0.06725888324873096	0.49800796812749
5263.702392578125	-15.42931081818104	5.134373157132075	25.06891818189653	-10.16963365628967	-1.618143762623961	9.983648460347865	3507.035897435897	3649.81684981685	0.4064102564102564	-0.05964467005076142	0.49667994687915
5283.233642578125	-16.18785279955876	4.678962096785115	25.21472004412418	-10.84238913912685	-3.158095869595141	11.30058678470764	3493.928205128205	3649.81684981685	0.4166666666666667	-0.04568527918781726	0.5046480743691899
5302.764892578125	-16.5878605557628	3.798354545935811	25.21394442372019	-13.96862184632458	-6.235023287631172	12.64808907553397	3514.317948717948	3646.886446886447	0.417948717948718	-0.03680203045685279	0.50199203187251
5322.296142578125	-17.18100087041846	3.797426263738022	25.89991295815466	-14.60447666292022	-5.933992155649972	14.58138852829392	3502.666666666666	3655.677655677655	0.4128205128205128	-0.03807106598984771	0.50199203187251
5341.827392578125	-18.82518316337398	3.664204225776944	25.48168366260266	-15.61220361178568	-4.490290044312186	15.3524617705788	3505.579487179487	3658.608058608058	0.4256410256410256	-0.04187817258883248	0.4900398406374502
5361.358642578125	-18.02150499905817	3.267873895202603	25.84950009418247	-17.34196193316451	-2.284748481098983	15.03067982840165	3511.405128205128	3657.142857142857	0.4307692307692308	-0.03680203045685279	0.49933598937583
5380.889892578125	-17.75933730007768	2.783084519232308	24.06626999223148	-17.30506126692298	-0.4437652421466037	15.64704095680183	3505.579487179487	3655.677655677655	0.4256410256410256	-0.0266497461928934	0.49800796812749
5400.421142578125	-16.12224947153165	2.6542411970162	23.77505284683467	-16.88931334247574	4.00266468971376	16.40875993611883	3527.425641025641	3663.003663003663	0.4166666666666667	-0.0215736040609137	0.49667994687915
5419.952392578125	-15.77867302429169	1.62722898530384	26.13269757083076	-18.51995737434607	3.106075243951596	20.42483131388338	3508.492307692307	3668.864468864469	0.4269230769230769	-0.02030456852791878	0.4913678618857901
5439.483642578125	-15.4107205513553	2.654058526099627	26.92794486446957	-18.51163222403548	-4.412210498697488	23.20843157178604	3512.861538461538	3677.655677655677	0.4282051282051282	-0.01015228426395939	0.4887118193891102
5459.014892578125	-16.97764982093018	2.368964780677942	26.23501790698218	-18.16901061988395	-9.280948752198709	24.63766260303314	3540.533333333333	3683.516483516483	0.4320512820512821	-0.005076142131979695	0.49535192563081
5478.546142578125	-17.53050158017268	0.6365758267436377	26.94984198273198	-17.36901533973224	-10.11996459749391	28.35504017324685	3527.425641025641	3687.912087912088	0.4217948717948718	-0.005076142131979695	0.49535192563081
5498.077392578125	-18.56838571233347	0.6063772617644994	27.16142876665275	-20.06194980561175	-6.514821719182795	30.30405855092696	3534.707692307692	3689.377289377289	0.4282051282051282	0.01395939086294416	0.4847277556440903
5517.608642578125	-19.58955768707534	0.7916071100999318	25.04423129246675	-22.15885517394898	-5.424299939219722	29.73011682952417	3533.251282051282	3692.307692307692	0.4346153846153846	0.01269035532994924	0.4887118193891102
5537.139892578125	-18.42152814455594	-0.5742565739984955	25.8471855444055	-24.58251936003513	-1.733755867422116	29.01194227751677	3534.707692307692	3686.446886446886	0.4307692307692308	0.03426395939086294	0.49800796812749
5556.671142578125	-19.06566796306077	-1.063675357308622	25.43320369392295	-24.27049830837657	0.9378420198456819	26.90770951207503	3543.446153846154	3689.377289377289	0.4333333333333334	0.03045685279187817	0.4887118193891102
5576.202392578125	-18.96750088950118	-0.5059010246807336	27.24991104988224	-23.98300269952489	-2.374318129637872	25.98054799865474	3507.035897435897	3679.120879120879	0.4294871794871795	0.03426395939086294	0.4926958831341301
5595.733642578125	-18.42082023704437	-1.344202329815956	25.91797629556308	-24.35014974648329	-3.489337912888003	25.7283882194291	3518.687179487179	3683.516483516483	0.4282051282051282	0.04568527918781726	0.4860557768924302
5615.264892578125	-16.77911562037937	-2.016170146493765	26.08843796206354	-22.97111317550413	-7.577163112300201	26.60127488532119	3502.666666666666	3682.051282051282	0.4256410256410256	0.0532994923857868	0.4767596281540504
5634.796142578125	-18.01922738358615	-2.426734188731836	26.07726164138513	-22.65841711165823	-10.53876693248923	26.39727642860989	3520.14358974359	3680.58608058608	0.4384615384615385	0.05837563451776649	0.4940239043824701
5654.327392578125	-18.6509788206384	-2.890203698847526	26.90211793616028	-22.97280070597249	-12.08151943845367	28.04647597842693	3521.6	3684.981684981685	0.4371794871794872	0.06598984771573603	0.4833997343957503
5673.858642578125	-18.46241688242457	-3.342189717981958	25.75831175754352	-21.65710277857254	-14.22913460737377	26.16133784818133	3531.794871794872	3680.58608058608	0.4358974358974359	0.08248730964467005	0.4741035856573705
5693.389892578125	-20.45296046921341	-3.485586849171379	26.70395307865898	-21.63955246170157	-11.99349424288699	26.00113495571811	3533.251282051282	3679.120879120879	0.4346153846153846	0.08629441624365482	0.4794156706507304
5712.921142578125	-20.45394538401213	-4.023053623686216	26.60546159878757	-20.18153946480305	-6.020937802108672	26.1531086055257	3539.076923076923	3686.446886446886	0.4371794871794872	0.08502538071065989	0.4687915006640106
5732.452392578125	-19.54566803692938	-3.94349066731671	25.43319630706196	-20.53293622739006	-2.270019730850839	24.80397902051021	3536.164102564102	3683.516483516483	0.4487179487179487	0.09517766497461928	0.4727755644090305
5751.983642578125	-19.97060583340413	-4.492765031338758	26.93941665958759	-20.92764627199838	-2.606750462092136	23.37362296895086	3511.405128205128	3676.190476190476	0.4256410256410256	0.1053299492385787	0.4714475431606905
5771.514892578125	-19.53458774544385	-5.646989454024793	26.54122545561543	-22.67675494274777	-0.006551773344532608	22.27527700591032	3533.251282051282	3676.190476190476	0.4358974358974359	0.1129441624365482	0.4727755644090305
5791.046142578125	-18.91096185548099	-4.867620833656509	24.90381445190107	-20.22676528135516	-0.3436352984119678	22.75314721922287	3517.230769230769	3679.120879120879	0.4333333333333334	0.1091370558375635	0.4701195219123506
5810.577392578125	-20.10949236260131	-5.241720406080371	25.05076373986922	-20.24262806775777	1.92508066325472	21.46814901858036	3512.861538461538	3671.794871794872	0.4346153846153846	0.1281725888324873	0.4674634794156706
5830.108642578125	-19.9113736729812	-5.587974128750525	24.86263270187983	-21.64214000841973	3.404658770765674	20.78216572722869	3520.14358974359	3670.32967032967	0.4282051282051282	0.133248730964467	0.4741035856573705
5849.639892578125	-18.22394808021639	-6.573812438981451	25.60519197836142	-22.99125103909325	5.585349536865679	21.54250854929499	3523.05641025641	3670.32967032967	0.4217948717948718	0.1472081218274112	0.4754316069057105
5869.171142578125	-17.82432505635559	-7.731277846927004	25.56749436444063	-22.67855497524736	2.62374571667665	21.33851009258369	3539.076923076923	3674.725274725275	0.4320512820512821	0.1434010152284264	0.4648074369189907
5888.702392578125	-18.71932205852117	-7.015023182432073	24.06779414788249	-20.61855027315166	-0.3077593022388011	21.29609068558632	3507.035897435897	3673.260073260073	0.4294871794871795	0.1598984771573604	0.4727755644090305
5908.233642578125	-18.50749150818772	-7.64435665365348	25.25084918122801	-19.92171935563251	-1.420155083408742	21.66578281333936	3508.492307692307	3670.32967032967	0.4320512820512821	0.1560913705583756	0.4621513944223107
5927.764892578125	-18.90789938602874	-8.524560081649437	25.21006139712626	-19.94984486343855	-2.14331814011773	20.96932023870757	3518.687179487179	3670.32967032967	0.4307692307692308	0.149746192893401	0.4581673306772908
5947.296142578125	-18.78872654209957	-8.486463115556358	25.12734579004324	-20.34984250351441	-1.723810217470131	19.11063145360072	3511.405128205128	3664.468864468864	0.4192307692307692	0.1802030456852792	0.4568393094289509
5966.827392578125	-18.79017313571018	-8.869617440625024	24.9826864289821	-19.2911521345044	-0.964947561501045	19.30415062703191	3509.948717948718	3668.864468864469	0.417948717948718	0.1713197969543147	0.4608233731739708
5986.358642578125	-18.46334024004836	-9.033564819089619	25.66597599516406	-19.29936478278376	-0.5813156350266127	18.90251837556161	3524.51282051282	3667.399267399267	0.4192307692307692	0.1878172588832487	0.4634794156706507
6005.889892578125	-18.83777160564504	-9.861542985990818	24.22283943549608	-18.96383080659935	-2.063517744617757	18.96664975993459	3501.210256410256	3661.538461538461	0.4256410256410256	0.1852791878172589	0.4409030544488711
6025.421142578125	-17.43738281052825	-9.183627976751085	24.26171894717532	-17.55554370750192	-2.425275669885321	19.57253160505465	3525.969230769231	3673.260073260073	0.4333333333333334	0.199238578680203	0.4528552456839309
6044.952392578125	-18.51186206760702	-9.716865465563068	24.81379323929859	-18.91106735395522	-2.491250467332066	20.86800908897727	3511.405128205128	3667.399267399267	0.417948717948718	0.1928934010152284	0.4555112881806109
6064.483642578125	-17.72258828222241	-10.0986473734169	23.7411717777589	-19.33030284137041	-8.811739235324716	20.61472428943938	3505.579487179487	3667.399267399267	0.4192307692307692	0.199238578680203	0.4422310756972112
6084.014892578125	-17.55967968108459	-11.41087736825841	24.03203189154118	-20.43230649240173	-13.65825069379293	20.33997864946434	3515.774358974359	3663.003663003663	0.417948717948718	0.2106598984771574	0.4422310756972112
6103.546142578125	-17.43487435565027	-11.45539228540861	24.51256443497284	-21.17942581787809	-20.38162138738669	20.90592841472568	3509.948717948718	3667.399267399267	0.4128205128205128	0.2144670050761421	0.4329349269588313
6123.077392578125	-17.28921715278368	-10.63481375261156	23.07828472163229	-21.59629876263757	-27.8309555366827	21.1076768308125	3518.687179487179	3668.864468864469	0.4333333333333334	0.2284263959390863	0.4302788844621514
6142.608642578125	-18.25301845607218	-11.89060520552094	22.69815439278155	-20.9128555868341	-34.93813455366396	23.02937197998009	3507.035897435897	3676.190476190476	0.4256410256410256	0.2449238578680203	0.4276228419654714
6162.139892578125	-18.1392934221234	-11.23162133596306	22.07065778765976	-20.94795622057604	-39.40941528263753	23.34977776490653	3515.774358974359	3668.864468864469	0.4320512820512821	0.2436548223350254	0.4169986719787516
6181.671142578125	-19.57067563924048	-11.4182329889825	22.9324360759517	-19.17893469029998	-40.90281898820171	24.74295405110857	3518.687179487179	3667.399267399267	0.4333333333333334	0.2385786802030457	0.4063745019920318
6201.202392578125	-20.73391911140987	-12.01874169747603	22.60808885901314	-19.83301483595394	-37.20422651325046	24.93622208760129	3518.687179487179	3670.32967032967	0.4282051282051282	0.2474619289340101	0.4077025232403718
6220.733642578125	-22.20777516364975	-13.01014708471375	23.22248363502504	-18.72459856914284	-30.11104949123549	24.67583306572001	3512.861538461538	3677.655677655677	0.4474358974358975	0.2550761421319797	0.398406374501992
6240.264892578125	-23.36814083789164	-12.80587006142175	23.18591621083578	-17.89197769993611	-18.21528541007912	25.2358036289502	3501.210256410256	3677.655677655677	0.4397435897435897	0.2601522842639594	0.3904382470119522
6259.796142578125	-22.40213886559976	-14.05230128420578	23.78611344002423	-18.90690477879992	-6.250393338656607	22.2598092179286	3520.14358974359	3673.260073260073	0.4435897435897436	0.2639593908629441	0.3851261620185923
6279.327392578125	-22.37363850918372	-15.31031741341676	22.63614908162851	-17.84832691182114	1.64312313348713	20.07136038492743	3525.969230769231	3674.725274725275	0.4615384615384616	0.2690355329949238	0.399734395750332
6298.858642578125	-21.1779396321097	-14.85643481772305	22.20603678903002	-19.22623846248805	8.733852550334975	18.23500632363151	3523.05641025641	3665.934065934066	0.4423076923076923	0.2728426395939086	0.3784860557768924
6318.389892578125	-20.18052872688682	-14.63305060122893	21.94712731131802	-19.26201410841734	9.895773528818241	16.65517779982751	3515.774358974359	3664.468864468864	0.4397435897435897	0.2766497461928934	0.3798140770252324
6337.921142578125	-18.82181352361888	-14.76073757191417	21.81864763811275	-20.61753775487064	9.829798731371495	17.95065528375014	3508.492307692307	3663.003663003663	0.4358974358974359	0.2791878172588833	0.3851261620185923
6357.452392578125	-18.50438348642603	-15.4151880633251	21.56165135739726	-21.31076860739062	5.681599532499071	19.45449698265034	3511.405128205128	3667.399267399267	0.4243589743589744	0.2842639593908629	0.3851261620185923
6376.983642578125	-18.86170195739505	-15.029681023031	21.82980426049519	-20.25084071603714	2.308712589729153	21.06651676711006	3502.666666666666	3670.32967032967	0.4346153846153846	0.2893401015228426	0.3824701195219123
6396.514892578125	-20.15564485449731	-14.84895254311157	20.43551455026944	-20.23385290932228	3.04290084549811	21.38804757234875	3523.05641025641	3671.794871794872	0.4397435897435897	0.2944162436548223	0.3811420982735724
6416.046142578125	-19.75034318125018	-16.20446107924501	20.9656818749823	-20.89490818091215	2.993375648184784	22.5981839683997	3517.230769230769	3680.58608058608	0.4333333333333334	0.3096446700507614	0.3745019920318725
6435.577392578125	-18.47391330041256	-17.5982706435064	20.60866995874438	-22.5912533990174	5.165841614218079	23.40119733440185	3534.707692307692	3684.981684981685	0.4269230769230769	0.3134517766497462	0.3758300132802125
6455.108642578125	-18.44338155722416	-16.93526155028052	19.66184427758346	-20.5107733272389	4.842583687203873	23.17187455286404	3531.794871794872	3680.58608058608	0.4269230769230769	0.3210659898477157	0.3705179282868525
6474.639892578125	-18.52143482387877	-16.78258159711321	19.85651761212331	-21.16890354601694	5.16566521730501	24.3553104668378	3523.05641025641	3683.516483516483	0.4166666666666667	0.3261421319796954	0.3718459495351925
6494.171142578125	-18.15046604937132	-18.29726005936574	20.95339506286834	-22.91621218426673	5.135566416031431	24.19373141712388	3528.882051282051	3680.58608058608	0.4256410256410256	0.3350253807106599	0.3745019920318725
6513.702392578125	-18.83928037200232	-19.08924990120073	20.07196279976805	-23.63295596131256	5.14116721401795	23.52920896620935	3524.51282051282	3679.120879120879	0.417948717948718	0.3439086294416243	0.3771580345285525
6533.233642578125	-17.80058060727384	-19.0983366635765	19.94193927261579	-23.6271058556889	5.886380668846877	23.47580800205494	3514.317948717948	3677.655677655677	0.4141025641025641	0.3413705583756345	0.3665338645418326
6552.764892578125	-17.63777973119213	-18.14122708688057	20.22202688078714	-23.93856439719134	4.716234890296902	25.09830706979478	3498.297435897436	3676.190476190476	0.4012820512820513	0.3426395939086294	0.3532536520584329
6572.296142578125	-16.48455468924091	-19.49213822540514	19.54453107590861	-25.71748610621512	2.088914196182049	24.74869962522818	3530.338461538461	3686.446886446886	0.4076923076923077	0.3527918781725888	0.350597609561753
6591.827392578125	-17.68690174120625	-20.32392154907399	19.30982587937502	-28.95037073901337	-3.13545199386101	23.25695065337297	3543.446153846154	3682.051282051282	0.4051282051282051	0.3578680203045685	0.346613545816733
6611.358642578125	-17.66347985172108	-20.8845007343771	17.6520148278923	-28.72025116608602	-10.89684247419819	21.90033138609293	3523.05641025641	3667.399267399267	0.408974358974359	0.3629441624365482	0.3532536520584329
6630.889892578125	-18.18012121838885	-21.15192372327341	17.98787816111482	-29.47974571499703	-13.47743836999297	20.67284877093265	3511.405128205128	3665.934065934066	0.4076923076923077	0.3730964467005076	0.3426294820717131
6650.421142578125	-18.41628162653754	-20.69186324950477	18.37183734624556	-28.17226043587645	-15.24142161243864	18.38607838921675	3507.035897435897	3658.608058608058	0.3961538461538461	0.3654822335025381	0.3426294820717131
6669.952392578125	-17.89733186581029	-21.1960025078393	18.26681341897167	-28.55347023673787	-16.71802292404327	17.7856873226752	3493.928205128205	3652.747252747252	0.4102564102564102	0.383248730964467	0.3253652058432935
6689.483642578125	-17.89723953004791	-21.42686499772854	18.27604699520962	-28.22963647180078	-19.69065194329226	17.956620635357	3492.471794871794	3655.677655677655	0.4064102564102564	0.3870558375634517	0.3333333333333333
6709.014892578125	-16.98242173312995	-21.70006174184644	17.75782668700516	-29.97458256739487	-20.84959612586921	18.25007480126779	3514.317948717948	3658.608058608058	0.4051282051282051	0.3946700507614213	0.3240371845949535
6728.546142578125	-17.581009857766	-22.08010312057942	17.89901422340083	-28.23244902258139	-27.19791248688138	20.36528912386656	3504.123076923077	3663.003663003663	0.4038461538461539	0.3895939086294416	0.3054448871181938
6748.077392578125	-17.70389152148407	-22.84522340945493	17.61084785159304	-24.7155563438994	-27.15976528245416	21.4383107620806	3523.05641025641	3667.399267399267	0.4115384615384615	0.3959390862944162	0.297476759628154
6767.608642578125	-18.57581997234852	-23.80611413562031	18.41800276514829	-23.26451847293678	-24.93532651394041	22.60715277144642	3501.210256410256	3668.864468864469	0.4141025641025641	0.399746192893401	0.2868525896414342
6787.139892578125	-19.81499298863778	-23.56378015839892	18.50070113622233	-20.81869138669946	-21.51326716768331	21.69322285580765	3508.492307692307	3667.399267399267	0.4102564102564102	0.4035532994923858	0.2841965471447543
6806.671142578125	-19.06699267346504	-23.75156816903107	17.30073265349589	-18.99240632253029	-11.42278672621922	21.13388888943707	3527.425641025641	3673.260073260073	0.4064102564102564	0.4251269035532995	0.2762284196547145
6826.202392578125	-17.2348178461637	-24.64668012922082	16.51821538363047	-19.57381015601344	-7.045131990798859	23.52334657813397	3508.492307692307	3674.725274725275	0.4012820512820513	0.4251269035532995	0.2788844621513944
6845.733642578125	-16.03654895703679	-24.61847016877746	16.34510429632146	-17.42830391018738	-4.804243622151699	24.60684749962812	3521.6	3682.051282051282	0.3961538461538461	0.432741116751269	0.2669322709163347
6865.264892578125	-16.07115886306361	-25.08505262522884	16.88411369363979	-18.0524585155357	-3.012785580512646	26.43334502407926	3536.164102564102	3686.446886446886	0.391025641025641	0.4314720812182741	0.2656042496679947
6884.796142578125	-15.51421355168894	-24.58756738971724	16.57864483110557	-17.98270725617672	-2.706330047457996	28.65623515836063	3528.882051282051	3689.377289377289	0.3948717948717949	0.432741116751269	0.2576361221779548
6904.327392578125	-16.95590659560507	-24.99453433843888	16.4093404394936	-17.60442250812713	-1.602335463267834	29.28332670697938	3559.466666666666	3696.703296703297	0.3846153846153846	0.4378172588832487	0.2669322709163347
6923.858642578125	-17.0462712972436	-25.06018906670705	15.37287027564072	-16.81443990875436	0.5725781079325819	31.66230511239616	3528.882051282051	3696.703296703297	0.3897435897435898	0.4390862944162436	0.252324037184595
6943.389892578125	-16.56944141788334	-25.25409493716859	15.05585821166558	-16.07665825186961	4.676676510565129	31.65819049106834	3541.989743589743	3693.772893772893	0.3948717948717949	0.4479695431472081	0.2563081009296149
6962.921142578125	-17.48949157466947	-25.89869043266076	15.05084253305312	-15.38162736685005	6.194578219416371	31.09111570549476	3540.533333333333	3696.703296703297	0.3769230769230769	0.4517766497461929	0.252324037184595
6982.452392578125	-15.85415812560865	-26.64114644698142	14.58418743913534	-16.0760957417135	6.178128619282952	31.17645679336643	3546.358974358974	3698.168498168498	0.3743589743589744	0.4593908629441624	0.2549800796812749
7001.983642578125	-14.34389161997555	-25.68497715613239	13.61083800244505	-17.0263341526234	4.936407245299712	34.75895579594342	3540.533333333333	3708.424908424908	0.3743589743589744	0.4733502538071066	0.2430278884462151
7021.514892578125	-13.22980093640775	-26.19020874653587	13.01990635922551	-21.08345492136048	0.2231013277460403	40.46552111021013	3476.451282051281	3614.652014652014	0.3717948717948718	0.4695431472081218	0.249667994687915
7041.046142578125	-11.86319102545636	-26.05663860275062	13.68089745436459	-23.75861406630658	-8.205423061805366	47.01827260829174	3496.841025641026	3635.164835164835	0.3564102564102564	0.465736040609137	0.247011952191235
7060.577392578125	-14.74671561693216	-26.52427876536005	13.32843830678372	-22.67404823011501	-12.72920578399858	49.83518914716235	3480.820512820513	3636.630036630037	0.3551282051282051	0.4695431472081218	0.2324037184594953
7080.108642578125	-16.9965189417583	-28.45351586882412	12.34810582417055	-21.66643378328077	-7.038254079161719	46.68214789844512	3488.102564102564	3633.699633699634	0.3525641025641026	0.4885786802030456	0.2124833997343957
7099.639892578125	-18.06590434261246	-27.72266738319218	13.40956573875381	-19.57436600228618	1.263568719656578	43.96405518216614	3461.887179487179	3624.908424908425	0.3448717948717949	0.4898477157360406	0.2257636122177955
7119.171142578125	-15.67946194104546	-28.42528190108254	12.05380589545375	-21.39097589177007	9.563120310220825	38.71588429403658	3473.538461538461	3616.117216117216	0.3346153846153846	0.5088832487309645	0.2231075697211155
7138.702392578125	-13.4039437219684	-27.78970914850422	11.60562780315985	-21.11529299619692	11.89518706725407	35.51355670249275	3552.184615384615	3711.355311355311	0.3358974358974359	0.5063451776649746	0.2111553784860558
7158.233642578125	-11.55596409000644	-29.20078396140119	12.40359099935611	-21.13104328056831	7.029249212746104	36.61052650828259	3534.707692307692	3709.89010989011	0.3243589743589744	0.5063451776649746	0.2244355909694555
7177.764892578125	-10.86942738284746	-29.71418603563175	13.05726171525374	-20.79775934500838	-0.4587613317163319	38.60159268346322	3558.010256410256	3715.750915750915	0.3179487179487179	0.5139593908629442	0.1952191235059761
7197.296142578125	-9.994590355468061	-30.02546374097726	12.54096445319377	-20.11139111639308	-7.193333621283131	40.4965873505536	3474.994871794872	3614.652014652014	0.3115384615384615	0.5279187817258882	0.2031872509960159
7216.827392578125	-10.44946032824748	-29.73681429923927	11.05396717525204	-20.07617798061991	-9.85670670848422	42.55814957205951	3469.169230769231	3619.047619047619	0.3217948717948718	0.5139593908629442	0.1859229747675963
7236.358642578125	-11.08882946569604	-30.15412839349316	11.11705343039669	-20.07966554358787	-11.73076554461651	43.06658375183864	3472.082051282051	3621.978021978022	0.3	0.5203045685279187	0.201859229747676
7255.889892578125	-10.69249975069344	-31.0774983287227	10.75002493065584	-21.14420601822154	-13.23484165541452	42.92646554256185	3458.974358974359	3613.186813186813	0.2884615384615384	0.5291878172588832	0.1872509960159363
7275.421142578125	-10.77344620456927	-31.69112702569273	10.6553795430734	-22.21932168379028	-13.22644045843474	41.92968186619007	3482.276923076923	3619.047619047619	0.2884615384615384	0.5380710659898477	0.1752988047808765
7294.952392578125	-11.09424649708896	-31.61019565332476	10.57535029110388	-21.53722853236149	-9.067216060502348	40.05090839789677	3473.538461538461	3616.117216117216	0.2923076923076923	0.5355329949238579	0.1806108897742364
7314.483642578125	-12.49223456238389	-30.29053539968458	10.77654376161122	-20.50553865084529	-6.028612243806605	38.58449760129235	3543.446153846154	3717.216117216117	0.2679487179487179	0.5532994923857868	0.1660026560424967
7334.014892578125	-11.21608168883341	-30.99175749427826	10.39183111665946	-19.48678650291985	-0.348685738029711	35.80638812196821	3525.969230769231	3701.098901098901	0.2743589743589744	0.5482233502538071	0.1646746347941567
7353.546142578125	-10.35155548825305	-30.52339049532596	8.844451174695568	-19.20761604437876	3.857439855135818	32.09562635064526	3559.466666666666	3701.098901098901	0.2564102564102564	0.5482233502538071	0.1553784860557769
7373.077392578125	-9.151840005515524	-31.11202620981394	8.815999448447712	-18.93362067927398	1.685150286015592	30.33849985220716	3541.989743589743	3692.307692307692	0.2641025641025641	0.5609137055837563	0.1540504648074369
7392.608642578125	-8.304564587634641	-33.51238976648902	9.543541236535905	-18.98278406691894	-3.147711971312464	30.31067434981772	3549.271794871795	3695.238095238095	0.2551282051282051	0.5710659898477157	0.151394422310757
7412.139892578125	-7.992720864065753	-32.19965961960128	8.727913593424708	-16.56024490114503	-9.841160260545717	31.99231629722894	3528.882051282051	3701.098901098901	0.2576923076923077	0.565989847715736	0.1593625498007968
7431.671142578125	-8.163616508649399	-31.91782424934103	7.638349135060135	-16.92615442575997	-15.08792964253485	33.15865712903182	3555.097435897435	3699.6336996337	0.2384615384615385	0.5710659898477157	0.147410358565737
7451.202392578125	-8.516102741387229	-31.61412084658351	8.389725861277212	-16.96305509200149	-16.92891288148723	32.54229600063164	3550.728205128205	3701.098901098901	0.241025641025641	0.5558375634517766	0.1434262948207171
7470.733642578125	-8.173404099461623	-31.44640032108222	6.659590053837905	-17.9514316914964	-15.87986789568384	34.08993326377992	3536.164102564102	3702.564102564103	0.2307692307692308	0.5723350253807106	0.1394422310756972
7490.264892578125	-7.645374655433714	-31.6520177518581	7.46253445662866	-18.96737128864123	-14.05253385787162	34.4593742545945	3547.815384615385	3705.494505494505	0.2256410256410256	0.5723350253807106	0.1301460823373174
7509.796142578125	-7.010914702685001	-31.96051461182661	6.908529731499914	-18.89649500897	-10.74317410738133	35.71879699347205	3527.425641025641	3706.959706959707	0.2269230769230769	0.5761421319796954	0.1208499335989376
7529.327392578125	-6.975781560671368	-31.80215293141422	6.421843932863283	-21.03975121417158	-6.978254041157201	32.70836128117025	3550.728205128205	3701.098901098901	0.2153846153846154	0.5736040609137055	0.1088977423638778
7548.858642578125	-7.778859542531699	-31.9064287851199	6.114045746830112	-20.04316196639731	-8.410930953435019	31.56235626949227	3539.076923076923	3695.238095238095	0.2141025641025641	0.5850253807106599	0.1115537848605578
7568.389892578125	-5.576500794703128	-33.35388804350368	6.349920529687178	-18.35030431126002	-12.4574557556006	31.26777708326925	3530.338461538461	3698.168498168498	0.2076923076923077	0.58248730964467	0.099601593625498
7587.921142578125	-6.651149334012925	-33.4638776341854	6.885066598707544	-15.96005322844745	-16.1149242302183	30.86115632709735	3507.035897435897	3689.377289377289	0.2064102564102564	0.5862944162436548	0.09296148738379813
7607.452392578125	-8.34054475637517	-32.55297287298416	5.945524362483117	-15.32363590169568	-14.91450325348168	28.44612317663549	3536.164102564102	3686.446886446886	0.2025641025641026	0.5901015228426395	0.09428950863213811
7626.983642578125	-7.665349958695136	-33.70876577248715	5.465004130486436	-13.61739050484271	-12.96624481983593	26.59954096899791	3528.882051282051	3687.912087912088	0.2038461538461538	0.58248730964467	0.08764940239043824
7646.514892578125	-6.690853096264341	-33.1945460650807	6.91469037356587	-12.22147862917992	-9.185227947304526	25.41199043369634	3502.666666666666	3679.120879120879	0.1961538461538462	0.5926395939086294	0.09694555112881806
7666.046142578125	-6.426654010511503	-32.75831021861415	5.33459894884968	-11.92183280095603	-2.370855262237753	21.51432528783297	3531.794871794872	3676.190476190476	0.191025641025641	0.5939086294416244	0.08632138114209827
7685.577392578125	-6.218070601155059	-33.26897946206415	6.192939884494115	-9.142271771033897	2.199299464449392	19.72775984324056	3520.14358974359	3674.725274725275	0.1807692307692308	0.58248730964467	0.07304116865869853
7705.108642578125	-5.936143049025366	-33.15834167433053	6.385695097463474	-8.79863764860135	7.468119244558465	17.81155547265148	3527.425641025641	3671.794871794872	0.191025641025641	0.5926395939086294	0.08233731739707835
7724.639892578125	-5.582518008551523	-33.30934911905526	5.748199144847725	-6.347522966896504	10.13393993692668	17.32595829056021	3498.297435897436	3667.399267399267	0.1871794871794872	0.6027918781725888	0.07569721115537847
7744.171142578125	-2.671016296646488	-33.79150430961781	4.898370335351177	-5.720443308736343	8.715088622702085	15.47276028403188	3528.882051282051	3661.538461538461	0.1679487179487179	0.5964467005076142	0.08233731739707835
7763.702392578125	-3.50981221368219	-33.59201274110406	5.018778631780984	-4.705628731903756	3.88485036745422	16.06678668862112	3514.317948717948	3663.003663003663	0.1769230769230769	0.5939086294416244	0.07171314741035856
7783.233642578125	-4.200119297804994	-33.65172566306311	3.988070219500574	-2.311890086123239	2.101440728968807	15.15173175267011	3498.297435897436	3661.538461538461	0.1666666666666667	0.5939086294416244	0.0650730411686587
7802.764892578125	-2.988000044321166	-34.25288918600485	5.199995567883405	-2.043744826642113	-0.8160622949803456	13.44800621838642	3515.774358974359	3660.07326007326	0.1743589743589744	0.5939086294416244	0.06905710491367861
7822.296142578125	-2.713413185300639	-33.78868345207712	4.658681469936091	0.3634940628853054	-3.739342513829087	13.36291626745321	3502.666666666666	3654.212454212454	0.1653846153846154	0.5939086294416244	0.06374501992031872
7841.827392578125	-3.474786796724666	-34.16431148915424	4.521320327533416	0.298467888837733	-6.303488809490455	12.05009256442125	3527.425641025641	3655.677655677655	0.1615384615384616	0.6091370558375634	0.06374501992031872
7861.358642578125	-4.035856438818939	-33.34993884294671	4.414356118106057	1.280431872552859	-9.59919935884059	11.03758996312929	3502.666666666666	3649.81684981685	0.1551282051282051	0.6015228426395939	0.06374501992031872
7880.889892578125	-3.63418663889207	-33.62485611010362	4.581336110793065	2.996689950184786	-10.66487034169046	10.52940692028864	3483.733333333333	3645.421245421245	0.1730769230769231	0.5964467005076142	0.06905710491367861
7900.421142578125	-4.710435664749777	-32.73322920937196	4.956433525022375	2.249458122677206	-10.25358721910958	8.713388679117619	3508.492307692307	3649.81684981685	0.1538461538461539	0.598984771573604	0.06772908366533864
7919.952392578125	-4.470643383280826	-33.27388095211713	4.935661671917493	3.253022496387374	-7.938146459122821	6.55051530788141	3496.841025641026	3638.095238095238	0.1705128205128205	0.5939086294416244	0.05843293492695883
7939.483642578125	-4.551020433288644	-33.31116167007077	4.897956671135717	3.904065087198284	-4.874691845313881	4.001979747033531	3480.820512820513	3635.164835164835	0.1628205128205128	0.6015228426395939	0.05843293492695883
7959.014892578125	-3.802835446591148	-32.9606746604814	3.716455340885167	4.559832763320611	-4.068927994111658	2.363510617435069	3483.733333333333	3629.304029304029	0.1692307692307692	0.598984771573604	0.0597609561752988
7978.546142578125	-4.125220836365024	-32.91660387834825	3.47791636349758	4.151059964809267	-4.767240253707449	0.5849232785598295	3486.646153846154	3624.908424908425	0.1602564102564103	0.6154822335025381	0.0650730411686587
7998.077392578125	-4.245947998960915	-33.06851559797255	3.405200103908511	6.197564423158063	-6.558874692259572	-0.287461113455351	3482.276923076923	3626.373626373626	0.1551282051282051	0.6015228426395939	0.06241699867197875
8017.608642578125	-4.110262442859552	-33.31632724040416	4.973755714044762	5.117723672277905	-4.292782732673073	-2.194311221076553	3485.189743589744	3620.51282051282	0.1525641025641026	0.6002538071065989	0.05179282868525896
8037.139892578125	-3.997830109584083	-33.425268512397	4.21698904159172	6.839831855533488	-4.613240260694021	-2.755895228071618	3463.343589743589	3619.047619047619	0.1525641025641026	0.6015228426395939	0.05710491367861886
8056.671142578125	-4.278034060816027	-33.84533944472965	4.196593918397346	6.459747074984309	-3.086937354863001	-4.319753690016984	3477.907692307692	3616.117216117216	0.1576923076923077	0.5913705583756345	0.05312084993359893
8076.202392578125	-4.901506057841583	-33.00947888158	5.849394215841615	6.096087590993859	-2.327898301980846	-5.080347649021751	3473.538461538461	3613.186813186813	0.1576923076923077	0.5939086294416244	0.0650730411686587
8095.733642578125	-3.718703408913233	-33.31180186468994	4.129659108676729	6.782343317577936	-1.927816775372994	-5.56732098836372	3447.323076923077	3610.25641025641	0.1641025641025641	0.6065989847715736	0.0597609561752988
8115.264892578125	-4.800600305569817	-33.2990859990668	3.939969443018369	6.049174243973378	-1.15495212443761	-7.035107942218844	3469.169230769231	3610.25641025641	0.1525641025641026	0.5862944162436548	0.05577689243027888
8134.796142578125	-4.630104782623149	-33.58051724647369	4.989521737685179	6.388758293281854	0.7383567108213546	-7.961144435326891	3463.343589743589	3602.930402930403	0.158974358974359	0.6091370558375634	0.05577689243027888
8154.327392578125	-3.238734113632082	-33.35503239138544	4.126588636791738	6.383470697814318	1.49459536471025	-8.389477168874397	3470.625641025641	3604.395604395604	0.1679487179487179	0.5951776649746192	0.06108897742363877
8173.858642578125	-2.833617111909713	-33.24881594774042	4.638288809028714	6.372332996723125	1.505620563770219	-8.764408938267492	3470.625641025641	3602.930402930403	0.1538461538461539	0.6078680203045684	0.06374501992031872
8193.389892578125	-3.236718116153465	-33.39553008730038	4.328188384653549	7.100214474860146	1.488994566723731	-7.724954717959872	3454.605128205128	3605.860805860806	0.1628205128205128	0.5939086294416244	0.07171314741035856
8212.921142578125	-3.279068836926426	-32.50814047470431	4.093116307357436	6.767043041331448	1.842351295011516	-7.334052886708145	3474.994871794872	3611.721611721612	0.1705128205128205	0.5951776649746192	0.06108897742363877
8232.452392578125	-3.63069326921538	-33.35915364424631	4.930673078462005	6.79460603898137	1.064062243002682	-6.155856614374448	3457.517948717949	3611.721611721612	0.1602564102564103	0.5888324873096447	0.07038512616201859
8251.983642578125	-3.511905157629458	-33.35912963694809	4.809484237054218	7.167040681407306	1.422843372363917	-5.475364101601294	3464.8	3614.652014652014	0.1666666666666667	0.5939086294416244	0.05312084993359893
8271.514892578125	-3.432866976176142	-32.97434281560056	4.713302382385783	7.161190575783649	0.6776299175349902	-5.421963137446886	3469.169230769231	3614.652014652014	0.1679487179487179	0.5926395939086294	0.06772908366533864
8291.046142578125	-3.637910847974708	-33.31340235123785	4.20891520252926	6.447371851549649	1.055837442935973	-6.113186070438614	3470.625641025641	3611.721611721612	0.1679487179487179	0.5977157360406091	0.0544488711819389
8310.577392578125	-4.274602248314256	-33.42572865227952	4.539775168574323	5.411519394878144	1.776376497564771	-6.038575402785518	3485.189743589744	3613.186813186813	0.1705128205128205	0.5939086294416244	0.06108897742363877
8330.108642578125	-4.398207208837641	-33.38242610368936	4.17927911623595	6.805743740072564	1.053037043942713	-5.780924844981352	3447.323076923077	3610.25641025641	0.1705128205128205	0.598984771573604	0.06108897742363877
8349.639892578125	-4.352901743668537	-32.65741539274093	4.709825633146322	6.470209763888157	2.535239153533857	-5.845056229354333	3444.410256410256	3610.25641025641	0.1705128205128205	0.5862944162436548	0.06772908366533864
8369.171142578125	-3.201077127446744	-33.50691210127879	3.892287255325619	5.792729195739566	3.252977809169396	-5.438184336243975	3466.25641025641	3613.186813186813	0.1679487179487179	0.6027918781725888	0.0650730411686587
8388.702392578125	-4.04084256998743	-32.88336438892808	3.915743001256997	5.783954037304079	2.135157626926006	-5.358082890012363	3470.625641025641	3613.186813186813	0.1666666666666667	0.5913705583756345	0.0650730411686587
8408.233642578125	-3.55070095155081	-33.35994588508752	4.929904844919008	5.836717489948217	1.707424904211698	-3.456723560969677	3457.517948717949	3614.652014652014	0.1769230769230769	0.5951776649746192	0.0597609561752988
8427.764892578125	-3.670320084998147	-33.28220748338264	4.967991500185287	6.200376973938668	0.9483858513295422	-2.696129601964911	3456.061538461538	3619.047619047619	0.1717948717948718	0.5901015228426395	0.06241699867197875
8447.296142578125	-3.993721168158197	-33.69864931246791	4.627883184180298	5.850780243851238	2.069006432566192	-3.108492273653785	3473.538461538461	3621.978021978022	0.1705128205128205	0.6027918781725888	0.06905710491367861
8466.827392578125	-4.59230929279424	-33.0786906912009	4.769070720575977	5.870130593221797	1.674349307031791	-2.331928252790388	3466.25641025641	3621.978021978022	0.1743589743589744	0.5964467005076142	0.06108897742363877
8486.358642578125	-2.518649361713653	-33.74693337543844	4.135063828634674	5.175662218358355	1.657899706898372	-2.246587164918719	3482.276923076923	3620.51282051282	0.1782051282051282	0.6002538071065989	0.06241699867197875
8505.889892578125	-4.270878039231619	-33.73718241114529	4.912196076838128	6.589236912923332	0.5399031277419121	-1.212372586251156	3456.061538461538	3620.51282051282	0.1756410256410256	0.5926395939086294	0.06640106241699867
8525.421142578125	-3.839584464446423	-33.07894276783219	4.041553555357751	6.258990532206462	1.26586658344416	-0.8481712370766331	3458.974358974359	3623.443223443223	0.1666666666666667	0.6065989847715736	0.0650730411686587
8544.952392578125	-3.713963506444421	-33.16274301233728	4.603649355557935	5.53110905406944	1.282492580490648	-1.887625457384253	3467.71282051282	3621.978021978022	0.1730769230769231	0.6002538071065989	0.0650730411686587
8564.483642578125	-3.313986528827841	-33.20518129819157	4.601347117215941	5.891280975091942	-1.350605308523793	-0.6185973186003712	3467.71282051282	3623.443223443223	0.1846153846153846	0.6002538071065989	0.06905710491367861
8584.014892578125	-4.670085552161703	-32.61859820770128	4.991444783829668	5.876655711032799	-3.21363894559611	-0.4850949082143516	3479.364102564102	3626.373626373626	0.1794871794871795	0.6053299492385786	0.06374501992031872
8603.546142578125	-4.669162194537909	-33.92722310659363	5.083780546209123	5.871368115565264	-2.457400291707214	-0.9134276417618559	3483.733333333333	3624.908424908425	0.1730769230769231	0.5939086294416244	0.07304116865869853
8623.077392578125	-4.872728694138403	-32.96008248045867	4.72713058615973	5.174537198046113	-1.345004510537274	-1.283119769514895	3486.646153846154	3627.838827838828	0.1782051282051282	0.5977157360406091	0.06772908366533864
8642.608642578125	-4.311366655463262	-32.5055196779821	4.863334453673916	5.546971840472049	-0.9862233811760389	-0.6026272567417406	3464.8	3627.838827838828	0.1769230769230769	0.6015228426395939	0.06772908366533864
8662.139892578125	-4.668161890445465	-33.428233413727	5.183810955453534	5.549896893283878	-0.6136166537615756	-0.6293277388189444	3463.343589743589	3626.373626373626	0.1833333333333333	0.5913705583756345	0.07702523240371846
8681.671142578125	-4.438311092726035	-33.11269041173132	4.168890727396512	5.205587758663985	-0.2492347264138216	-0.613357676960314	3479.364102564102	3624.908424908425	0.182051282051282	0.6015228426395939	0.06241699867197875
8701.202392578125	-3.631909023420043	-33.31946419403806	4.809097657995722	5.180949813825891	0.9016610530094757	-1.818254431371215	3480.820512820513	3626.373626373626	0.1705128205128205	0.5951776649746192	0.06374501992031872
8720.733642578125	-4.596356677045207	-32.95921821772281	4.364332295479364	5.561597104531192	0.8768102558962782	-0.7361296671277602	3463.343589743589	3624.908424908425	0.1794871794871795	0.6053299492385786	0.0743691899070385
8740.264892578125	-5.069508515204007	-32.96133486118242	5.049148479599335	5.194450057572793	-0.2382095273538526	-0.9882894463534104	3466.25641025641	3624.908424908425	0.1705128205128205	0.5926395939086294	0.06772908366533864
8759.796142578125	-4.470258650937578	-33.23580799332227	4.974134906242266	5.199737653040328	-0.9944481812427484	-0.5599567128059061	3469.169230769231	3624.908424908425	0.1807692307692308	0.5913705583756345	0.07569721115537847
8779.327392578125	-4.273617333515543	-32.88826187776468	4.638266648445742	4.505269278176887	-1.010897781376167	-0.474615624934237	3482.276923076923	3627.838827838828	0.1897435897435897	0.6002538071065989	0.07038512616201859
8798.858642578125	-4.622533250108034	-33.51124141739089	5.746674989196715	4.499981682709351	-0.2546591274872715	-0.9029483584817413	3488.102564102564	3626.373626373626	0.1717948717948718	0.5977157360406091	0.07038512616201859
8818.389892578125	-5.069800911784875	-34.2302703098665	5.019908821512509	5.205587758663985	-0.2492347264138216	-0.613357676960314	3464.8	3624.908424908425	0.1730769230769231	0.6015228426395939	0.06905710491367861
8837.921142578125	-3.951047272216908	-33.3940576396763	4.89527277830922	5.178024761014062	0.5290543255950123	-1.791553949294011	3479.364102564102	3621.978021978022	0.1794871794871795	0.58248730964467	0.07569721115537847
8857.452392578125	-3.749142816339244	-33.20567344780505	5.085718366075594	4.858353571232264	-0.2574595264805311	-0.5706871330244794	3469.169230769231	3623.443223443223	0.1717948717948718	0.6002538071065989	0.0743691899070385
8876.983642578125	-4.309504550921942	-33.16124655741499	5.049544907805818	5.188599951949136	-0.9834229821827794	-0.9348884821990025	3473.538461538461	3624.908424908425	0.1743589743589744	0.6015228426395939	0.06772908366533864
8896.514892578125	-4.795875792394734	-33.11155006506593	4.412420760526584	4.833153116238049	-0.6080158557750565	-1.293850189733468	3485.189743589744	3627.838827838828	0.1628205128205128	0.5939086294416244	0.07038512616201859
8916.046142578125	-4.604974681533955	-33.41205249472763	3.502531846604444	4.822015415146856	-0.5969906567150874	-1.668781959126565	3476.451282051281	3617.582417582417	0.1782051282051282	0.6040609137055837	0.0650730411686587
8935.577392578125	-5.269858652414949	-33.03590429952243	5.014134758505047	4.819652872491147	0.5318547245882719	-2.123815174751273	3496.841025641026	3623.443223443223	0.1897435897435897	0.5913705583756345	0.07304116865869853
8955.108642578125	-4.755725740625151	-33.4967170019686	4.427425937484994	5.186237409293427	0.1454223991205799	-1.389921697823711	3461.887179487179	3623.443223443223	0.1807692307692308	0.5951776649746192	0.06640106241699867
8974.639892578125	-4.473890524257836	-32.15521672434574	4.610947574216407	5.186237409293427	0.1454223991205799	-1.389921697823711	3469.169230769231	3624.908424908425	0.1769230769230769	0.5926395939086294	0.0743691899070385
8994.171142578125	-4.470966558449154	-33.46586223750481	4.903344155084684	5.172174655390406	-0.2161591292339146	-1.738152985139603	3482.276923076923	3620.51282051282	0.1794871794871795	0.5951776649746192	0.05843293492695883
9013.702392578125	-5.068600546873943	-33.23148267842655	5.139945312605801	4.833153116238049	-0.6080158557750565	-1.293850189733468	3473.538461538461	3624.908424908425	0.1666666666666667	0.5964467005076142	0.06640106241699867
9033.233642578125	-4.828869822579911	-32.6182260945789	5.113017742008955	5.18038730366977	-0.599791055708347	-1.336520733669303	3480.820512820513	3629.304029304029	0.1846153846153846	0.5926395939086294	0.0597609561752988
9052.764892578125	-4.228511929164928	-33.66304910538958	5.148807083507231	4.499981682709351	-0.2546591274872715	-0.9029483584817413	3456.061538461538	3623.443223443223	0.1794871794871795	0.5977157360406091	0.06374501992031872
9072.296142578125	-3.950985715041988	-33.54796596626913	4.901428495801184	3.43892877104363	0.1153235978470016	-1.551500747537634	3480.820512820513	3620.51282051282	0.1666666666666667	0.6015228426395939	0.0743691899070385
9091.827392578125	-4.879192197504966	-32.79970818821229	4.080780249503541	4.144534846998265	0.1207479989204515	-1.261910066016207	3483.733333333333	3623.443223443223	0.1653846153846154	0.5977157360406091	0.07038512616201859
9111.358642578125	-5.02475706460918	-32.85114921089858	5.524293539082034	3.803150765190201	0.8577366536826689	-1.27264048623478	3485.189743589744	3626.373626373626	0.1833333333333333	0.5964467005076142	0.06640106241699867
9130.889892578125	-4.517564724291569	-32.95879809000397	4.243527570843074	4.864203676855921	0.4877539283483958	-0.6240880971788871	3450.235897435897	3621.978021978022	0.1807692307692308	0.5977157360406091	0.07038512616201859
9150.421142578125	-4.665868885679708	-32.16131857930964	5.413111432029183	3.792575574255129	2.37021396146046	-2.129305953329789	3489.558974358974	3621.978021978022	0.1705128205128205	0.5926395939086294	0.0650730411686587
9169.952392578125	-4.438634267894363	-32.304671697119	4.136573210563703	4.508756841144836	0.8631610547561188	-0.9830498047133531	3472.082051282051	3620.51282051282	0.182051282051282	0.5977157360406091	0.06241699867197875
9189.483642578125	-4.390958851490854	-32.50513155999423	4.904114850914677	4.827865520770513	0.1482227981138394	-1.722182923280972	3466.25641025641	3620.51282051282	0.1858974358974359	0.5888324873096447	0.07171314741035856
9209.014892578125	-4.607652418642959	-33.71704028793985	3.234758135704023	4.480631333338793	0.13999799804713	-1.679512379345138	3482.276923076923	3620.51282051282	0.1846153846153846	0.5977157360406091	0.06374501992031872
9228.546142578125	-4.276295070624547	-33.1932496709769	4.370492937545321	4.844290817329243	-0.6190410548350255	-0.9189184203403717	3470.625641025641	3627.838827838828	0.1769230769230769	0.5964467005076142	0.0743691899070385
9248.077392578125	-4.955291023855868	-33.53361760436711	4.470897614413242	4.824940467958685	-0.224383929300624	-1.695482441203769	3477.907692307692	3619.047619047619	0.1717948717948718	0.598984771573604	0.07702523240371846
9267.608642578125	-4.786442155338301	-32.69800111541601	5.355784466170023	5.16339949695492	-1.333979311477305	-1.658051538907992	3470.625641025641	3617.582417582417	0.1756410256410256	0.6002538071065989	0.0597609561752988
9287.139892578125	-4.507977194297836	-32.93001995683611	5.202280570216422	5.183312356481599	-0.2271843282938836	-1.363221215746507	3469.169230769231	3626.373626373626	0.1743589743589744	0.5926395939086294	0.07569721115537847
9306.671142578125	-4.906753807003483	-32.88879403954186	5.324619299651709	5.192650025073205	2.392087962667329	-1.925056359680031	3472.082051282051	3621.978021978022	0.1794871794871795	0.598984771573604	0.06374501992031872
9326.202392578125	-4.356087327470628	-32.69265949156235	4.391267252937199	5.542809265316754	2.772919490148502	-1.994427385693069	3472.082051282051	3614.652014652014	0.182051282051282	0.5926395939086294	0.06772908366533864
9345.733642578125	-3.665149282304898	-33.21050691717975	5.485071769510238	5.542246755160633	1.271467381430679	-1.512693687991157	3476.451282051281	3626.373626373626	0.1769230769230769	0.5951776649746192	0.06772908366533864
9365.264892578125	-5.472594130154029	-33.14652608239058	4.740586984597163	5.883068326812578	-0.9669733820493605	-1.020229570070671	3460.430769230769	3623.443223443223	0.1782051282051282	0.5774111675126903	0.06905710491367861
9384.796142578125	-4.987346307123519	-33.38739561442063	5.26536928764806	5.172174655390406	-0.2161591292339146	-1.738152985139603	3482.276923076923	3621.978021978022	0.1756410256410256	0.6015228426395939	0.06905710491367861
9404.327392578125	-4.51077804575668	-32.92719109686267	4.922195424332073	5.178024761014062	0.5290543255950123	-1.791553949294011	3483.733333333333	3620.51282051282	0.182051282051282	0.6078680203045684	0.06772908366533864
9423.858642578125	-5.236187493305658	-33.22221986253052	4.381250669434277	4.484118896306741	2.014056834179416	-2.187946559124254	3483.733333333333	3620.51282051282	0.1833333333333333	0.5901015228426395	0.0743691899070385
9443.389892578125	-4.90393756625091	-32.9300999811635	5.606243374909048	5.209075321631935	1.624824109718465	-1.12179185673943	3457.517948717949	3621.978021978022	0.1794871794871795	0.6040609137055837	0.06905710491367861
9462.921142578125	-4.465688030699795	-32.66350124283936	5.431196930020573	4.86712872966775	0.8603606557628593	-0.6507885792560911	3458.974358974359	3624.908424908425	0.1897435897435897	0.6015228426395939	0.06241699867197875
9482.452392578125	-3.946168866104526	-33.5912925221575	5.383113389547345	4.514044436612372	0.1069224008672229	-0.5547170711658488	3474.994871794872	3621.978021978022	0.182051282051282	0.5913705583756345	0.06772908366533864
9501.983642578125	-5.186573025892178	-33.27079201307966	5.342697410782108	4.166810249180651	0.09869760080051343	-0.5120465272300142	3479.364102564102	3629.304029304029	0.182051282051282	0.598984771573604	0.0544488711819389
9521.514892578125	-4.595310205071573	-31.57565976980078	4.468979492842746	3.803150765190201	0.8577366536826689	-1.27264048623478	3488.102564102564	3627.838827838828	0.191025641025641	0.5913705583756345	0.07304116865869853
9541.046142578125	-3.910281648698127	-33.3183078425072	4.971835130187269	3.489329681032059	0.8164362564360523	-0.1051746341196566	3472.082051282051	3621.978021978022	0.1807692307692308	0.5926395939086294	0.06108897742363877
9560.577392578125	-4.514117522496069	-33.57766437920204	4.588247750393042	2.422426663742682	0.4412055269413986	-0.700326059021142	3477.907692307692	3624.908424908425	0.1653846153846154	0.5875634517766497	0.07038512616201859
9580.108642578125	-4.633090305606751	-33.1159634067218	4.690969439324939	3.147945599223996	1.55342491119827	-0.1159050543382299	3473.538461538461	3621.978021978022	0.1871794871794872	0.5964467005076142	0.06374501992031872
9599.639892578125	-5.029112234734744	-32.96213510445637	5.088776526525601	3.495179786655716	1.561649711264979	-0.1585755982740645	3463.343589743589	3617.582417582417	0.1858974358974359	0.5939086294416244	0.06374501992031872
9619.171142578125	-5.022818013599212	-32.69926149857248	5.71819864007889	2.795423816324739	2.301438765020456	-0.5015672439498996	3485.189743589744	3626.373626373626	0.1794871794871795	0.5913705583756345	0.06905710491367861
9638.702392578125	-4.431939925121852	-33.04220221408846	4.806007487814757	3.139732950944631	1.937056837672702	-0.5175373058085302	3476.451282051281	3626.373626373626	0.1743589743589744	0.5901015228426395	0.06772908366533864
9658.233642578125	-4.991101294793618	-32.99898769225845	4.889870520638273	3.495179786655716	1.561649711264979	-0.1585755982740645	3473.538461538461	3619.047619047619	0.1846153846153846	0.5977157360406091	0.06241699867197875
9677.764892578125	-4.388588900256448	-33.43060213381791	5.14110997435528	3.839488921275609	1.197267783917225	-0.1745456601326951	3473.538461538461	3619.047619047619	0.1833333333333333	0.5901015228426395	0.0597609561752988
9697.296142578125	-3.956418135728646	-31.96555614445253	4.358186427135387	2.436489417645703	0.802787055295893	-0.3520947717052494	3486.646153846154	3629.304029304029	0.1717948717948718	0.5951776649746192	0.06108897742363877
9716.827392578125	-4.034548348851897	-33.6204907830442	4.545165114810287	3.833638815651952	0.4520543290882984	-0.1211446959782873	3473.538461538461	3620.51282051282	0.1717948717948718	0.5951776649746192	0.06640106241699867
9736.358642578125	-4.27229385425477	-33.19729089951037	4.770614574522962	3.478191979940866	0.8274614554960214	-0.480106403512753	3491.015384615384	3629.304029304029	0.1743589743589744	0.598984771573604	0.07569721115537847
9755.889892578125	-4.46310262935317	-33.12765095973791	5.689737064683047	4.18616059855121	-0.295959524733888	0.2645174936333826	3464.8	3624.908424908425	0.1782051282051282	0.5939086294416244	0.06374501992031872
9775.421142578125	-4.915433368667152	-33.18771998995387	4.456663133284826	3.825426167372587	0.8356862555627309	-0.5227769474485876	3498.297435897436	3626.373626373626	0.1769230769230769	0.5964467005076142	0.06374501992031872
9794.952392578125	-4.829008326223479	-33.27193235974505	5.099167377652036	3.828351220184416	1.208292982977194	-0.5494774295257915	3489.558974358974	3626.373626373626	0.1743589743589744	0.5977157360406091	0.06772908366533864
9814.483642578125	-4.509685405901855	-32.65906389388528	5.031459409814429	4.539244891606587	0.4574787301617483	0.1684459855431402	3472.082051282051	3623.443223443223	0.1833333333333333	0.5977157360406091	0.06241699867197875
9834.014892578125	-3.638541809017634	-33.73584200366142	4.145819098236633	3.478191979940866	0.8274614554960214	-0.480106403512753	3486.646153846154	3627.838827838828	0.1641025641025641	0.6027918781725888	0.06241699867197875
9853.546142578125	-4.788627435047948	-33.23425552137081	5.13725649520531	4.189085651363038	0.07664720268057537	0.2378170115561786	3479.364102564102	3624.908424908425	0.1833333333333333	0.5913705583756345	0.06640106241699867
9873.077392578125	-4.272124572023741	-33.62053879764063	4.787542797625862	4.169735301992479	0.4713043282149769	-0.5387470093072181	3504.123076923077	3629.304029304029	0.1846153846153846	0.5951776649746192	0.0743691899070385
9892.608642578125	-4.515056269413594	-33.2305623986615	4.494373058640595	5.575097348278093	-0.2630603244670502	0.0938353178900444	3461.887179487179	3623.443223443223	0.182051282051282	0.5926395939086294	0.07702523240371846
9912.139892578125	-4.991501416430595	-32.9985835694051	4.849858356940509	4.872978835291407	1.605574110591786	-0.7041895434104989	3469.169230769231	3626.373626373626	0.1871794871794872	0.598984771573604	0.0650730411686587
9931.671142578125	-4.269862345845445	-33.27666979992686	5.013765415455529	4.17322286496043	2.345363164347263	-1.047181189086334	3485.189743589744	3624.908424908425	0.1730769230769231	0.58248730964467	0.0743691899070385
9951.202392578125	-3.995229318943729	-33.92789531094375	4.477068105627187	4.866566219511628	-0.6410914529549635	-0.169054881554179	3466.25641025641	3620.51282051282	0.1833333333333333	0.5964467005076142	0.06905710491367861
9970.733642578125	-5.103687521006386	-33.50527560378355	5.631247899361405	4.146334879497852	-2.509549491100731	-0.3251431526895868	3474.994871794872	3627.838827838828	0.1717948717948718	0.5888324873096447	0.0650730411686587
9990.264892578125	-4.830424141246631	-32.73204084811013	4.957585875336871	5.216725459755178	-0.2602599254737907	-0.2384259075672175	3458.974358974359	3616.117216117216	0.1769230769230769	0.5951776649746192	0.06374501992031872
10009.79614257813	-4.675256354854953	-32.69029877390418	4.474364514504716	6.245490288459561	2.405737163807489	-1.678136222094438	3470.625641025641	3626.373626373626	0.1782051282051282	0.5901015228426395	0.05843293492695883
10029.32739257813	-4.145811095803894	-33.43580771631499	5.418890419610637	5.20142518350869	3.50990814491072	-2.005157805911642	3479.364102564102	3623.443223443223	0.1756410256410256	0.5926395939086294	0.06905710491367861
10048.85864257813	-4.595910387527039	-33.07505358552077	4.4089612472961	5.212000374443763	1.997430837132928	-1.148492338816634	3466.25641025641	3623.443223443223	0.1692307692307692	0.5926395939086294	0.0650730411686587
10068.38989257813	-4.677041512927622	-33.22695730271233	4.295848707237769	4.841928274673534	0.5098043264683339	-1.37395163596508	3470.625641025641	3624.908424908425	0.1756410256410256	0.6002538071065989	0.07038512616201859
10087.92114257813	-5.075941239983109	-32.87791473223244	4.405876001689128	4.828428030926633	1.649674906831662	-2.203916620982885	3483.733333333333	3623.443223443223	0.1653846153846154	0.5951776649746192	0.07304116865869853
10107.45239257813	-4.430493331511241	-33.6590478890198	4.950666848875904	5.169812112734697	0.9126862520694448	-2.193186200764311	3466.25641025641	3620.51282051282	0.1846153846153846	0.5939086294416244	0.07038512616201859
10126.98364257813	-4.83054725559647	-32.42422419492448	4.945274440352944	5.550459403439999	0.8878354549562472	-1.111061436520857	3469.169230769231	3624.908424908425	0.1794871794871795	0.6065989847715736	0.07304116865869853
10146.51489257813	-5.190081784862598	-32.49801739728876	4.991821513740177	6.250215373770977	0.1480464012007701	-0.7680697908450214	3458.974358974359	3624.908424908425	0.1807692307692308	0.5926395939086294	0.06772908366533864
10166.04614257813	-5.47416383811448	-32.2218637542736	4.583616188552089	4.855991028576557	0.8713858548228283	-1.025720348649188	3477.907692307692	3624.908424908425	0.1769230769230769	0.5977157360406091	0.0650730411686587
10185.57739257813	-4.6757949801355	-33.34360091621699	4.420501986450033	4.836640679205998	1.26604298035723	-1.802284369512584	3498.297435897436	3623.443223443223	0.1782051282051282	0.5888324873096447	0.06905710491367861
10205.10864257813	-4.517657060053948	-33.72793560011474	4.234293994605128	4.845415837641484	2.38386316260062	-1.882385815744196	3480.820512820513	3621.978021978022	0.1756410256410256	0.5977157360406091	0.07569721115537847
10224.63989257813	-4.22643437451139	-33.85745512789734	5.356562548861007	4.870616292635699	2.734419491895145	-1.159222759035207	3470.625641025641	3624.908424908425	0.1756410256410256	0.5939086294416244	0.0743691899070385
10244.17114257813	-3.985549453187615	-33.12997966766513	5.445054681238481	4.529232210827636	3.471408146657363	-1.169953179253781	3486.646153846154	3626.373626373626	0.1782051282051282	0.5901015228426395	0.07038512616201859
10263.70239257813	-4.116464328232707	-33.81006333617727	4.353567176729417	4.887041589194427	1.967155638946281	-0.3559582560946065	3463.343589743589	3620.51282051282	0.182051282051282	0.5926395939086294	0.0743691899070385
10283.23364257813	-4.678965174643861	-33.41732209668662	4.103482535613903	5.220213022723128	1.613798910658496	-0.7468600873463335	3472.082051282051	3627.838827838828	0.1846153846153846	0.583756345177665	0.07569721115537847
10302.76489257813	-4.556175846688163	-33.42133931792188	4.382415331183756	4.525744647859686	1.597349310525077	-0.6615189994746644	3477.907692307692	3626.373626373626	0.1717948717948718	0.5977157360406091	0.0597609561752988
10322.29614257813	-4.875621881359626	-32.72639113059601	4.437811864037435	5.23135072381432	1.602773711598527	-0.3719283179532371	3470.625641025641	3623.443223443223	0.1705128205128205	0.5913705583756345	0.06241699867197875
10341.82739257813	-4.661452158379224	-33.20424101234467	5.854784162077579	5.53054654391332	-0.2189595282271741	-1.405891759682341	3477.907692307692	3617.582417582417	0.1871794871794872	0.5977157360406091	0.07171314741035856
10361.35864257813	-3.873240234261985	-33.93110428647232	4.675976573801512	4.8501409229529	0.1261723999939014	-0.9723193844947797	3483.733333333333	3624.908424908425	0.1871794871794872	0.5951776649746192	0.06772908366533864
10380.88989257813	-4.232697817059464	-33.19728289707764	4.730218294053699	5.219650512567006	0.1123468019406728	-0.2651263896444214	3464.8	3619.047619047619	0.1705128205128205	0.5888324873096447	0.06374501992031872
10400.42114257813	-4.950412617743487	-32.73085248684831	4.958738225651366	5.933469236801007	-0.2658607234603098	0.4260965433473063	3447.323076923077	3621.978021978022	0.1782051282051282	0.5977157360406091	0.0743691899070385
10419.95239257813	-4.594402236741508	-33.84580758704492	4.559776325849211	5.219650512567006	0.1123468019406728	-0.2651263896444214	3470.625641025641	3620.51282051282	0.1807692307692308	0.6002538071065989	0.07038512616201859
10439.48364257813	-5.466869312886503	-33.46000045552309	5.313068711349788	5.563959647186899	-0.2520351254070812	-0.281096451503052	3464.8	3619.047619047619	0.1833333333333333	0.5862944162436548	0.06108897742363877
10459.01489257813	-4.507730965598157	-33.5456532632074	5.226903440184277	4.870053782479578	1.232967383177323	-0.677489061333295	3488.102564102564	3626.373626373626	0.1705128205128205	0.5939086294416244	0.06905710491367861
10478.54614257813	-3.717903165639278	-33.31261011039663	4.209683436072258	5.908831291962913	0.8850350559629876	-0.7788002110635947	3474.994871794872	3624.908424908425	0.1871794871794872	0.6002538071065989	0.06108897742363877
10498.07739257813	-4.281435094730337	-33.3419044004762	3.856490526966351	5.206150268820106	1.252217382304001	-1.095091374662226	3498.297435897436	3626.373626373626	0.1871794871794872	0.6027918781725888	0.06640106241699867
10517.60864257813	-4.909939390805574	-32.92403813836329	5.006060919442587	5.225500618190663	0.8575602567695997	-0.3185273537988293	3480.820512820513	3619.047619047619	0.1743589743589744	0.598984771573604	0.06905710491367861
10537.13989257813	-5.156256732816007	-33.06910377677891	4.374326718399316	5.578022401089921	0.1095464029474132	0.06713483581284052	3464.8	3623.443223443223	0.1833333333333333	0.5977157360406091	0.06772908366533864
10556.67114257813	-3.907911697463721	-33.24377841633087	5.208830253627871	4.86712872966775	0.8603606557628593	-0.6507885792560911	3491.015384615384	3627.838827838828	0.1730769230769231	0.6015228426395939	0.06640106241699867
10576.20239257813	-5.067046228207221	-33.11766792489532	5.295377179277884	5.566884699998727	0.1205716020073822	-0.3077969335802559	3461.887179487179	3619.047619047619	0.1782051282051282	0.6065989847715736	0.06640106241699867
10595.73364257813	-4.544849326502949	-33.74047141100125	5.515067349705079	5.91119383461862	-0.2438103253403718	-0.3237669954388865	3469.169230769231	3620.51282051282	0.1833333333333333	0.5901015228426395	0.06772908366533864
10615.26489257813	-5.437291705909365	-33.41141230010846	4.270829409063431	5.223138075534956	1.986405638072959	-0.7735605694235375	3479.364102564102	3626.373626373626	0.1756410256410256	0.5964467005076142	0.0743691899070385
10634.79614257813	-4.038765015333892	-33.07777041143584	4.123498466610772	5.197937620540741	1.635849308778434	-1.496723626132526	3482.276923076923	3623.443223443223	0.1717948717948718	0.598984771573604	0.07038512616201859
10654.32739257813	-5.3889699391692	-33.22790959220833	5.103006083080025	4.858916081388385	1.243992582237292	-1.052420830726391	3486.646153846154	3626.373626373626	0.1769230769230769	0.5913705583756345	0.07304116865869853
10673.85864257813	-4.349346816816928	-33.54562125347644	5.065318318307226	4.853065975764728	0.4987791274083648	-0.9990198665719836	3486.646153846154	3624.908424908425	0.1782051282051282	0.6015228426395939	0.06640106241699867
10693.38989257813	-5.071478344801435	-33.03626841021208	4.852165519856497	4.86712872966775	0.8603606557628593	-0.6507885792560911	3470.625641025641	3626.373626373626	0.1756410256410256	0.6078680203045684	0.06241699867197875
10712.92114257813	-4.231989909547887	-32.9672286528951	4.801009045211282	4.859478591544505	2.745444690955115	-1.534154528428303	3477.907692307692	3624.908424908425	0.1794871794871795	0.5977157360406091	0.0650730411686587
10732.45239257813	-4.707557866822284	-32.92844347758641	5.244213317771679	4.526307158015808	3.098801419242899	-1.143252697176576	3473.538461538461	3623.443223443223	0.1846153846153846	0.5926395939086294	0.06905710491367861
10751.98364257813	-4.432878672039377	-32.69510023354792	4.71213279606231	5.206150268820106	1.252217382304001	-1.095091374662226	3467.71282051282	3627.838827838828	0.1807692307692308	0.5951776649746192	0.07835325365205843
10771.51489257813	-4.001246532792123	-33.88335638649534	3.875346720787734	4.491769034429986	0.1289727989871609	-1.304580609952042	3486.646153846154	3627.838827838828	0.1705128205128205	0.5850253807106599	0.06108897742363877
10791.04614257813	-4.430200934930372	-33.3901124403357	4.979906506962731	5.172174655390406	-0.2161591292339146	-1.738152985139603	3477.907692307692	3621.978021978022	0.1897435897435897	0.5939086294416244	0.06772908366533864
10810.57739257813	-4.195194723811423	-32.96439179048893	4.48052761885767	5.180949813825891	0.9016610530094757	-1.818254431371215	3479.364102564102	3617.582417582417	0.1794871794871795	0.5850253807106599	0.07569721115537847
10830.10864257813	-4.149550694180261	-33.08587687580101	5.044930581973842	4.864766187012042	1.989206037066219	-1.105821794880799	3485.189743589744	3624.908424908425	0.1782051282051282	0.5977157360406091	0.06905710491367861
10849.63989257813	-4.265984243825508	-32.9728943752747	5.401575617449242	4.878266430758942	0.8493354567028902	-0.2758568098629947	3460.430769230769	3619.047619047619	0.1692307692307692	0.5977157360406091	0.0650730411686587
10869.17114257813	-5.114152240742723	-33.34086008300369	4.584775925727574	4.847778380297191	1.255017781297261	-1.427352600119488	3485.189743589744	3624.908424908425	0.1846153846153846	0.5977157360406091	0.06241699867197875
10888.70239257813	-4.946642240779659	-33.15773749065869	5.335775922034144	4.861278624044092	0.1151472009339323	-0.5973876151016833	3469.169230769231	3624.908424908425	0.1730769230769231	0.5926395939086294	0.06640106241699867
10908.23364257813	-4.700725020406204	-33.01226772938973	5.92749795937965	4.528669700671514	1.96995603793954	-0.6882194815518683	3474.994871794872	3626.373626373626	0.1730769230769231	0.598984771573604	0.06640106241699867
10927.76489257813	-3.786568963118634	-33.63094996263479	5.343103688136577	4.162085163869236	2.356388363407232	-1.422112958479431	3483.733333333333	3623.443223443223	0.1833333333333333	0.5913705583756345	0.06640106241699867
10947.29614257813	-4.160892603659205	-32.72826770107344	3.910739634079529	3.492817244000009	2.690495092568339	-0.6136088138987725	3482.276923076923	3627.838827838828	0.1871794871794872	0.598984771573604	0.06772908366533864
10966.82739257813	-5.194698572981571	-32.95489290282707	4.530142701842898	3.475829437285158	1.956306836799381	-0.9351396191374612	3485.189743589744	3626.373626373626	0.1846153846153846	0.6015228426395939	0.07171314741035856
10986.35864257813	-3.993767336039387	-33.58321806752329	4.623266396061325	4.178510460427965	1.589124510458367	-0.6188484555388298	3477.907692307692	3624.908424908425	0.1833333333333333	0.5964467005076142	0.06241699867197875
11005.88989257813	-4.189239067137948	-32.85502238834452	5.076093286205159	4.86712872966775	0.8603606557628593	-0.6507885792560911	3464.8	3624.908424908425	0.182051282051282	0.5926395939086294	0.06108897742363877
11025.42114257813	-4.391959155583297	-34.00412125286087	4.804084441670267	4.844853327485363	0.8824110538827973	-1.400652118042284	3482.276923076923	3623.443223443223	0.1794871794871795	0.5964467005076142	0.06905710491367861
11044.95239257813	-4.190008531824444	-33.93116830593423	4.999146817555613	4.505831788333008	0.4905543273416553	-0.956349322636149	3476.451282051281	3626.373626373626	0.1692307692307692	0.5875634517766497	0.06374501992031872
11064.48364257813	-5.384691715512285	-32.92453829040951	5.530828448771503	5.575659858434213	1.238391784250772	-0.3878983798118676	3458.974358974359	3620.51282051282	0.1730769230769231	0.5977157360406091	0.06241699867197875
11084.01489257813	-4.50894671980282	-33.50596381299916	5.105328019717994	4.509319351300957	2.364613163473941	-1.464783502415265	3485.189743589744	3626.373626373626	0.1794871794871795	0.6015228426395939	0.0650730411686587
11103.54614257813	-4.436987613465263	-32.42171943347701	4.301238653473733	4.865328697168162	3.490658145784042	-1.587555492582711	3480.820512820513	3624.908424908425	0.1846153846153846	0.5875634517766497	0.07569721115537847
11123.07739257813	-4.630935804484564	-33.50275483747059	4.906419551543669	4.167372759336772	1.600149709518336	-0.9937802249319263	3476.451282051281	3626.373626373626	0.1794871794871795	0.5977157360406091	0.06772908366533864
11142.60864257813	-4.268877431046731	-34.73920302541203	5.112256895326947	4.847778380297191	1.255017781297261	-1.427352600119488	3486.646153846154	3626.373626373626	0.1807692307692308	0.6002538071065989	0.06640106241699867
11162.13989257813	-4.588877480292471	-32.65907989875076	5.112251970752954	5.213800406943349	-0.6328666528882541	-0.2117254254900136	3451.692307692307	3616.117216117216	0.1679487179487179	0.6002538071065989	0.06374501992031872
11181.67114257813	-4.507007668792851	-33.35407610067306	5.299233120714851	5.216725459755178	-0.2602599254737907	-0.2384259075672175	3445.866666666666	3616.117216117216	0.1717948717948718	0.5977157360406091	0.07171314741035856
11201.20239257813	-5.023064242298891	-34.0836281922012	5.693575770111036	4.86712872966775	0.8603606557628593	-0.6507885792560911	3470.625641025641	3627.838827838828	0.1743589743589744	0.5862944162436548	0.06905710491367861
11220.73364257813	-4.556160457394434	-33.45981639957008	4.383954260556747	5.23135072381432	1.602773711598527	-0.3719283179532371	3472.082051282051	3620.51282051282	0.182051282051282	0.6002538071065989	0.06108897742363877
11240.26489257813	-4.228358036227629	-33.04781992187163	5.164196377237141	4.525744647859686	1.597349310525077	-0.6615189994746644	3485.189743589744	3627.838827838828	0.1743589743589744	0.5913705583756345	0.06905710491367861
11259.79614257813	-3.545407034507722	-33.59606197207027	5.459296549227888	4.55038259269778	0.4464535311017792	0.5433777549362365	3460.430769230769	3621.978021978022	0.1769230769230769	0.5939086294416244	0.06772908366533864
11279.32739257813	-4.665791939211059	-33.35370398755067	5.420806078894136	4.169735301992479	0.4713043282149769	-0.5387470093072181	3488.102564102564	3626.373626373626	0.1743589743589744	0.5951776649746192	0.06241699867197875
11298.85864257813	-5.23066273685662	-33.03549217423635	4.93372631433802	4.192573214330986	1.950706038812862	-0.2706171682229373	3473.538461538461	3617.582417582417	0.1679487179487179	0.5888324873096447	0.08499335989375829
11318.38989257813	-4.392036102051947	-32.81173584461984	4.796389794805313	4.551507613010021	3.449357748537425	-0.4200896404675876	3467.71282051282	3620.51282051282	0.1782051282051282	0.6002538071065989	0.06640106241699867
11337.92114257813	-4.303487337073548	-33.20578548186341	5.651266292645271	3.831276272996244	1.580899710391658	-0.5761779116029954	3479.364102564102	3626.373626373626	0.1743589743589744	0.5977157360406091	0.0743691899070385
11357.45239257813	-4.483108711202052	-33.10744481707054	3.689128879794842	4.530469733171102	-0.660341452081642	0.2485474317747519	3476.451282051281	3626.373626373626	0.1717948717948718	0.583756345177665	0.07038512616201859
11376.98364257813	-4.507053836674041	-33.23864485572845	5.294616332595878	4.877703920602822	-0.6521166520149325	0.2058768878389174	3479.364102564102	3626.373626373626	0.1705128205128205	0.6002538071065989	0.0544488711819389
11396.51489257813	-4.11908050816679	-34.26895945598231	4.09194918332096	4.525744647859686	1.597349310525077	-0.6615189994746644	3486.646153846154	3626.373626373626	0.1743589743589744	0.5939086294416244	0.0650730411686587
11416.04614257813	-4.315121643133359	-33.11711175581992	4.48783568666413	5.223138075534956	1.986405638072959	-0.7735605694235375	3472.082051282051	3619.047619047619	0.1794871794871795	0.5977157360406091	0.0650730411686587
11435.57739257813	-4.150704891210006	-33.20009575218558	4.929510878999523	4.181435513239793	1.961731237872831	-0.6455489376160337	3486.646153846154	3627.838827838828	0.1884615384615385	0.5888324873096447	0.06241699867197875
11455.10864257813	-4.271770618267953	-34.50551167554936	4.822938173204653	4.169735301992479	0.4713043282149769	-0.5387470093072181	3483.733333333333	3623.443223443223	0.182051282051282	0.6065989847715736	0.06374501992031872
11474.63989257813	-4.111216579070807	-32.9307481782154	4.878342092919324	5.216725459755178	-0.2602599254737907	-0.2384259075672175	3460.430769230769	3620.51282051282	0.1756410256410256	0.5926395939086294	0.06772908366533864
11494.17114257813	-4.593863611460962	-32.19250544473213	4.613638853903893	4.494694087241814	0.5015795264016244	-1.331281092029246	3486.646153846154	3621.978021978022	0.1846153846153846	0.5939086294416244	0.06772908366533864
11513.70239257813	-3.992920924884242	-33.69945755817461	4.707907511575826	5.558672051719363	0.5042035284818147	-0.7094291850505562	3473.538461538461	3624.908424908425	0.182051282051282	0.5951776649746192	0.06640106241699867
11533.23364257813	-5.109227666749153	-32.65352621042951	5.077233325084671	4.870053782479578	1.232967383177323	-0.677489061333295	3476.451282051281	3626.373626373626	0.1769230769230769	0.5964467005076142	0.07569721115537847
11552.76489257813	-4.501559858812463	-32.97496300413788	5.844014118753639	4.522819595047857	1.224742583110613	-0.6348185173974605	3485.189743589744	3626.373626373626	0.1756410256410256	0.6078680203045684	0.07304116865869853
11572.29614257813	-5.866215329460156	-32.99512251724524	5.37846705398441	5.200300163196449	0.5070039274750743	-1.041690410507818	3472.082051282051	3621.978021978022	0.1692307692307692	0.5926395939086294	0.06374501992031872
11591.82739257813	-4.797106935893127	-33.03338353320948	4.28930641068731	4.85070343310902	1.627624508711724	-1.454053082196692	3488.102564102564	3624.908424908425	0.182051282051282	0.6002538071065989	0.07038512616201859
11611.35864257813	-4.583106495143754	-33.08798551682789	5.689350485624551	4.511681893956665	1.235767782170582	-1.009750286790557	3477.907692307692	3626.373626373626	0.1692307692307692	0.5977157360406091	0.07702523240371846
11630.88989257813	-4.62978160745482	-32.38853596108601	5.021839254517988	4.872978835291407	1.605574110591786	-0.7041895434104989	3466.25641025641	3624.908424908425	0.182051282051282	0.5901015228426395	0.07835325365205843
11650.42114257813	-4.840027060534094	-32.7223418996298	3.997293946590532	4.162085163869236	2.356388363407232	-1.422112958479431	3486.646153846154	3627.838827838828	0.1782051282051282	0.5951776649746192	0.0743691899070385
11669.95239257813	-4.032024504680192	-32.93073217334992	4.797549531980798	4.853065975764728	0.4987791274083648	-0.9990198665719836	3461.887179487179	3621.978021978022	0.1717948717948718	0.598984771573604	0.06640106241699867
11689.48364257813	-4.174112006973197	-33.67645456526476	2.588799302680322	4.508756841144836	0.8631610547561188	-0.9830498047133531	3474.994871794872	3626.373626373626	0.1807692307692308	0.5888324873096447	0.07304116865869853
11709.01489257813	-4.904568527293836	-33.35253963358707	5.543147270616421	4.853065975764728	0.4987791274083648	-0.9990198665719836	3477.907692307692	3624.908424908425	0.158974358974359	0.5939086294416244	0.07702523240371846
11728.54614257813	-4.469335293313783	-32.54443289221462	5.066470668621722	4.830790573582341	0.5208295255283029	-1.748883405358176	3467.71282051282	3619.047619047619	0.1769230769230769	0.6002538071065989	0.07038512616201859
11748.07739257813	-4.475167835637419	-32.96161894754467	4.48321643625816	4.489406491774278	1.25781818029052	-1.75961382557675	3480.820512820513	3621.978021978022	0.1743589743589744	0.5926395939086294	0.0650730411686587
11767.60864257813	-4.629166035705624	-32.92761922701424	5.083396429437626	4.836640679205998	1.26604298035723	-1.802284369512584	3477.907692307692	3617.582417582417	0.1833333333333333	0.5888324873096447	0.0743691899070385
11787.13989257813	-4.792367033424315	-32.88432468085683	4.763296657568516	4.861841134200214	1.616599309651755	-1.079121312803595	3466.25641025641	3624.908424908425	0.1782051282051282	0.5888324873096447	0.06640106241699867
11806.67114257813	-4.309843115384	-33.31475076115446	5.015688461600018	4.139809761686849	2.37843876152717	-2.171976497265623	3489.558974358974	3624.908424908425	0.1769230769230769	0.6002538071065989	0.06374501992031872
