Time Stamp	Accelerometer X	Accelerometer Y	Accelerometer Z	Gyroscope X	Gyroscope Y	Gyroscope Z	VSenseReg	VSenseBatt	Magnetometer X	Magnetometer Y	Magnetometer Z
407.257080078125	-13.23076923076923	-32.46554166410051	-0.03060910266674877	2.169508353377629	-1.04551171729631	-2.072966527237351	3491.015384615384	3614.652014652014	0.3912515188335358	0.5474452554744526	0.0369881109643329
426.788330078125	-16.23076923076923	-32.34142698774404	0.6098109256636078	0.03431032118483024	0.9544483847396457	0.8255279112477929	3502.666666666666	3626.373626373626	0.3912515188335358	0.5486618004866181	0.04623513870541612
446.319580078125	-15.23076923076923	-32.02481985588471	1.087146640389235	2.186189051505497	1.763284427993867	-2.453208638071851	3485.189743589744	3617.582417582417	0.3876063183475091	0.5462287104622872	0.0369881109643329
465.850830078125	-15	-32.33040278376547	0.7509084190429265	2.632166050492524	0.3492456759548219	-2.063645530275989	3488.102564102564	3614.652014652014	0.3876063183475091	0.551094890510949	0.0369881109643329
485.382080078125	-14.92307692307692	-31.90928127117078	0.7717558662314468	3.085630821866173	-1.526431837331544	-1.270610422510344	3477.907692307692	3619.047619047619	0.3839611178614824	0.5486618004866181	0.047556142668428
504.913330078125	-15.19230769230769	-32.35815575537353	0.4077877686764795	3.080797127763275	-1.995863314140116	-1.275256400337401	3495.384615384615	3620.51282051282	0.3863912515188335	0.5413625304136254	0.03830911492734478
524.444580078125	-15.73076923076923	-32.36981123360227	1.52902321857486	3.095298210071968	-0.587568883714401	-1.261318466856231	3476.451282051281	3620.51282051282	0.3851761846901579	0.5437956204379563	0.04095112285336856
543.975830078125	-14.69230769230769	-32.41502432715404	0.8281394346246228	3.553122213083965	0.3377570327281599	-1.256643447721925	3476.451282051281	3619.047619047619	0.3839611178614824	0.5389294403892945	0.03963011889035667
563.507080078125	-15	-32.40276836854098	0.5230338116647162	2.213486062768255	0.8477996210604781	-1.238146660335445	3493.928205128205	3620.51282051282	0.3900364520048603	0.5486618004866181	0.02906208718626156
583.038330078125	-14.76923076923077	-31.83688489252941	0.8442446264704071	2.20381867456246	-0.09106333255666496	-1.247438615989558	3491.015384615384	3617.582417582417	0.3888213851761846	0.5498783454987835	0.03963011889035667
602.569580078125	-15.96153846153846	-32.30442045944448	0.4133306645316253	1.302671750847157	-0.5334207350160721	-1.242850720776999	3508.492307692307	3620.51282051282	0.3973268529769137	0.5571776155717761	0.04623513870541612
622.100830078125	-16	-32.15661760177373	0.7539570117632568	1.75082836565336	-0.5469577721906543	-1.247467657296807	3493.928205128205	3619.047619047619	0.3888213851761846	0.5474452554744526	0.04623513870541612
641.632080078125	-15.65384615384616	-33.32671521832851	1.220376301040833	2.220973835154875	0.3861608598131578	-0.834674660365662	3469.169230769231	3617.582417582417	0.3924665856622114	0.5462287104622872	0.047556142668428
661.163330078125	-15.30769230769231	-31.91859641559402	-0.3009484510685472	1.309685060769229	1.336512456656963	-1.632384787265612	3493.928205128205	3619.047619047619	0.3754556500607533	0.5523114355231144	0.0369881109643329
680.694580078125	-15.26923076923077	-32.06408973332512	1.166025127794543	2.179175741583424	-0.1066487636791675	-2.063674571583238	3470.625641025641	3611.721611721612	0.3863912515188335	0.5474452554744526	0.04095112285336856
700.225830078125	-15.42307692307692	-32.63996581880889	1.267521709675433	2.181829819867147	-1.037719001735059	-1.664848549440512	3482.276923076923	3619.047619047619	0.3876063183475091	0.5498783454987835	0.04095112285336856
719.757080078125	-15.42307692307692	-32.73927603621359	0.4638018106793127	1.713863966184807	-0.570335918874408	-2.471821590687326	3493.928205128205	3620.51282051282	0.3803159173754556	0.5474452554744526	0.04227212681638045
739.288330078125	-15.80769230769231	-31.70313943462462	0.9646640389234464	1.258219578991984	-0.09516012045250553	-2.870676654137302	3489.558974358974	3619.047619047619	0.3839611178614824	0.5413625304136254	0.04491413474240423
758.819580078125	-14.88461538461539	-32.68527899242471	1.071641928927758	1.716043582003981	0.8301657959900554	-2.866001635002996	3491.015384615384	3619.047619047619	0.3863912515188335	0.5425790754257908	0.03963011889035667
778.350830078125	-14.19230769230769	-31.67895085299008	0.06292726488883416	1.711209887901084	0.3607343191814837	-2.870647612830053	3480.820512820513	3613.186813186813	0.3900364520048603	0.5474452554744526	0.04491413474240423
797.882080078125	-14.80769230769231	-32.7737959598448	1.574413376855331	2.166854275093907	-0.1144414792404187	-2.471792549380078	3477.907692307692	3617.582417582417	0.3924665856622114	0.5450121654501217	0.04227212681638045
817.413330078125	-14.84615384615385	-32.73454147933732	1.573227813019647	2.162020580991009	-0.5838729560489903	-2.476438527207134	3486.646153846154	3617.582417582417	0.3863912515188335	0.5474452554744526	0.03434610303830912
836.944580078125	-14.53846153846154	-31.65438504649874	1.103867709552257	1.731019126777222	-0.09311172650458524	-2.05905763506343	3488.102564102564	3619.047619047619	0.3876063183475091	0.5474452554744526	0.04623513870541612
856.475830078125	-15.57692307692308	-32.0987944201515	1.285874853729137	2.169508353377629	-1.04551171729631	-2.072966527237351	3479.364102564102	3616.117216117216	0.3997569866342648	0.5498783454987835	0.035667107001321
876.007080078125	-15.15384615384616	-32.03019338547761	1.278900043111412	3.102785982458588	-1.049207644961721	-0.8578464668864478	3464.8	3619.047619047619	0.3961117861482381	0.5462287104622872	0.03038309114927345
895.538330078125	-14.84615384615385	-32.75455749214756	0.6509515304551334	1.743340593266739	-0.08531901094333398	-1.65093965726659	3496.841025641026	3620.51282051282	0.3863912515188335	0.5486618004866181	0.03963011889035667
915.069580078125	-14.69230769230769	-32.52588224425695	0.6018045205395087	2.20381867456246	-0.09106333255666496	-1.247438615989558	3488.102564102564	3617.582417582417	0.3851761846901579	0.5401459854014599	0.0369881109643329
934.600830078125	-15.26923076923077	-31.74537322165425	0.6148149288661697	1.312339139052952	0.4054422186010711	-1.233558765122886	3493.928205128205	3619.047619047619	0.3973268529769137	0.5474452554744526	0.0369881109643329
954.132080078125	-15.69230769230769	-31.67155262671676	1.193015951222517	1.763149832142877	-0.5391650566294031	-0.8393496794999676	3479.364102564102	3620.51282051282	0.3876063183475091	0.5437956204379563	0.04095112285336856
973.663330078125	-15.07692307692308	-31.80692246104576	1.576892283057215	2.657283445936108	-1.966740845843031	-0.4544035082239138	3463.343589743589	3617.582417582417	0.3900364520048603	0.5425790754257908	0.03302509907529723
993.194580078125	-15.88461538461539	-32.53150982324321	0.1524142390835748	1.780304992735293	-0.06194086425958019	-0.4265857238760711	3477.907692307692	3619.047619047619	0.393681652490887	0.5450121654501217	0.03038309114927345
1012.725830078125	-15.73076923076923	-32.38982724641252	0.6067469360103467	2.206472752846183	-1.022133570612557	-0.8486125938468322	3473.538461538461	3621.978021978022	0.3863912515188335	0.5486618004866181	0.03434610303830912
1032.257080078125	-15.65384615384616	-32.42753433516045	0.4921013734064176	1.745994671550462	-1.016389248999226	-1.252113635123864	3493.928205128205	3620.51282051282	0.3985419198055893	0.5425790754257908	0.04491413474240423
1051.788330078125	-15.65384615384616	-32.53993194555645	0.3427511239761041	1.75831613803998	-1.008596533437975	-0.8439956573270243	3482.276923076923	3621.978021978022	0.3876063183475091	0.5437956204379563	0.03963011889035667
1071.319580078125	-15.34615384615385	-32.30968621050687	0.06123360226642838	-0.03914401528772766	-1.423879861548217	-0.8301738890748497	3489.558974358974	3619.047619047619	0.3948967193195626	0.5523114355231144	0.0369881109643329
1090.850830078125	-15	-32.02323397179281	0.7770832050255589	0.8421936695514368	-0.5276764134027411	-1.646351762054031	3496.841025641026	3620.51282051282	0.393681652490887	0.5474452554744526	0.0369881109643329
1110.382080078125	-15.61538461538462	-31.84167333867094	0.006743856623760758	1.745994671550462	-1.016389248999226	-1.252113635123864	3473.538461538461	3617.582417582417	0.3924665856622114	0.5450121654501217	0.03963011889035667
1129.913330078125	-16.34615384615385	-31.84104976288723	0.7063342982077973	0.8443732853706114	0.8728253014617224	-2.040531806369701	3499.753846153846	3614.652014652014	0.3900364520048603	0.5559610705596108	0.03830911492734478
1149.444580078125	-15.30769230769231	-31.4389819547946	0.718328508961015	2.65680898347156	0.3648311070773244	-1.24740957468231	3474.994871794872	3617.582417582417	0.3924665856622114	0.5413625304136254	0.04227212681638045
1168.975830078125	-15.07692307692308	-32.33965634045698	1.290509330541356	2.181829819867147	-1.037719001735059	-1.664848549440512	3482.276923076923	3619.047619047619	0.393681652490887	0.551094890510949	0.047556142668428
1188.507080078125	-15.42307692307692	-32.34126531994827	-0.205964771817454	3.100606366639414	-2.449709359826185	-0.4636664225707784	3453.148717948718	3616.117216117216	0.3900364520048603	0.5450121654501217	0.04359313077939234
1208.038330078125	-14.5	-32.99237081973271	0.6570025250970006	2.169508353377629	-1.04551171729631	-2.072966527237351	3485.189743589744	3616.117216117216	0.3815309842041312	0.5450121654501217	0.04095112285336856
1227.569580078125	-15.73076923076923	-32.45911344460184	0.2249029993225351	2.184009435686322	0.3627827131294041	-2.059028593756181	3499.753846153846	3616.117216117216	0.3876063183475091	0.5413625304136254	0.04095112285336856
1247.100830078125	-15.61538461538462	-32.548392560202	0.7273203177926958	1.735852820880119	0.3763197503039863	-2.054411657236373	3488.102564102564	3614.652014652014	0.3863912515188335	0.5462287104622872	0.0369881109643329
1266.632080078125	-15.46153846153846	-31.54525158588409	0.4164254480507483	2.20381867456246	-0.09106333255666496	-1.247438615989558	3474.994871794872	3619.047619047619	0.3730255164034022	0.551094890510949	0.03963011889035667
1286.163330078125	-14.69230769230769	-31.55895485619265	0.3323581942477061	1.307505444950055	-0.06398925820750048	-1.238204742949943	3483.733333333333	3617.582417582417	0.3839611178614824	0.5401459854014599	0.03830911492734478
1305.694580078125	-15.5	-32.58532210383691	0.5353359610765536	1.310159523233777	-0.9950594962633924	-0.8393787208072164	3477.907692307692	3621.978021978022	0.3827460510328068	0.5486618004866181	0.035667107001321
1325.225830078125	-15.11538461538462	-32.35429112520786	0.1376331834698528	1.302671750847157	-0.5334207350160721	-1.242850720776999	3470.625641025641	3616.117216117216	0.3851761846901579	0.5571776155717761	0.03038309114927345
1344.757080078125	-15.65384615384616	-32.24354098663547	0.9078185625423416	1.292529900176814	0.85928826428714	-2.045148742889508	3491.015384615384	3617.582417582417	0.3851761846901579	0.5462287104622872	0.03302509907529723
1364.288330078125	-15.11538461538462	-32.28654462031163	0.5964617848124653	1.297363594279711	1.328719741095712	-2.040502765062452	3486.646153846154	3616.117216117216	0.3924665856622114	0.5413625304136254	0.047556142668428
1383.819580078125	-15.38461538461539	-32.25811418365461	1.367247644269262	1.735852820880119	0.3763197503039863	-2.054411657236373	3485.189743589744	3617.582417582417	0.3839611178614824	0.5523114355231144	0.03170409511228534
1403.350830078125	-16	-32.37833343597956	0.3012871835930282	1.273195123765224	-1.018437642947146	-2.063732654197735	3488.102564102564	3614.652014652014	0.3876063183475091	0.5486618004866181	0.03963011889035667
1422.882080078125	-15.19230769230769	-32.17878148672784	1.054458951776806	2.181829819867147	-1.037719001735059	-1.664848549440512	3472.082051282051	3617.582417582417	0.3839611178614824	0.5425790754257908	0.04227212681638045
1442.413330078125	-14.92307692307692	-31.96009114984295	1.389172876762949	1.287696206073917	0.3898567874785686	-2.049794720716565	3486.646153846154	3614.652014652014	0.3863912515188335	0.5535279805352799	0.035667107001321
1461.944580078125	-14.73076923076923	-31.52585914885755	0.6391112890312252	1.743340593266739	-0.08531901094333398	-1.65093965726659	3483.733333333333	3620.51282051282	0.3900364520048603	0.5498783454987835	0.03170409511228534
1481.475830078125	-14.57692307692308	-32.18250754449714	0.6253772248568086	1.743340593266739	-0.08531901094333398	-1.65093965726659	3479.364102564102	3619.047619047619	0.3815309842041312	0.5474452554744526	0.03963011889035667
1501.007080078125	-15.30769230769231	-33.09107285828662	0.6305659912545422	1.738506899163842	-0.5547504877519056	-1.655585635093647	3492.471794871794	3620.51282051282	0.3863912515188335	0.5535279805352799	0.03963011889035667
1520.538330078125	-14.69230769230769	-32.78993964402292	0.3431360472993781	2.162495043455558	-2.915444908969346	-1.683432460748739	3485.189743589744	3619.047619047619	0.3791008505467801	0.5644768856447688	0.04227212681638045
1540.069580078125	-15.30769230769231	-32.43747305536737	0.6428835375993103	1.736327283344668	-1.955252202616369	-1.261405590777978	3483.733333333333	3617.582417582417	0.3900364520048603	0.5559610705596108	0.03038309114927345
1559.600830078125	-14.69230769230769	-32.14711769415533	0.8943462462277516	1.682207723283699	-2.455854541669945	-2.898523479792393	3482.276923076923	3619.047619047619	0.3839611178614824	0.5450121654501217	0.04623513870541612
1579.132080078125	-14.84615384615385	-32.10557676910759	0.8942230707643037	0.4138462936213723	-0.9679854219142279	-0.8301448477676008	3474.994871794872	3619.047619047619	0.3851761846901579	0.551094890510949	0.03963011889035667
1598.663330078125	-14.76923076923077	-32.4027221777422	0.2899550409558414	-0.4679658536823406	0.4673830828606512	-0.8069730412468149	3493.928205128205	3620.51282051282	0.3876063183475091	0.551094890510949	0.04095112285336856
1618.194580078125	-15	-32.32578370388618	0.5199544250785242	0.007487772386620286	-0.4616387612473203	0.403471999969783	3477.907692307692	3621.978021978022	0.3900364520048603	0.5498783454987835	0.04359313077939234
1637.725830078125	-14.69230769230769	-31.95388618587178	0.8481554474348712	0.4486310772707509	-2.345108990094938	0.7883891299385879	3488.102564102564	3626.373626373626	0.3888213851761846	0.5559610705596108	0.03434610303830912
1657.257080078125	-15.57692307692308	-32.08955626039293	0.8239668658003326	0.4486310772707509	-2.345108990094938	0.7883891299385879	3488.102564102564	3624.908424908425	0.3948967193195626	0.5450121654501217	0.03302509907529723
1676.788330078125	-16.34615384615385	-33.05740746443308	-0.01424216296113801	-0.4578240030119974	-0.9253259164425609	-0.004675019134305635	3495.384615384615	3624.908424908425	0.3863912515188335	0.5450121654501217	0.02906208718626156
1696.319580078125	-15.73076923076923	-31.78395793557923	1.082512163577015	-0.445976998987028	1.414038752039046	-0.3895631077958617	3495.384615384615	3620.51282051282	0.3876063183475091	0.5450121654501217	0.047556142668428
1715.850830078125	-15.65384615384616	-31.92713401490423	0.4720853605961694	-0.9064550802827482	1.419783073652377	-0.7930641490728936	3495.384615384615	3623.443223443223	0.3803159173754556	0.551094890510949	0.02509907529722589
1735.382080078125	-15.19230769230769	-32.04790755681468	0.2799932253495103	0.4283473759300646	0.4403090085114868	-0.8162069142864306	3476.451282051281	3620.51282051282	0.3973268529769137	0.551094890510949	0.03963011889035667
1754.913330078125	-16.61538461538462	-31.63632444417072	0.3546837469975981	0.846552901189786	2.273327016326186	-2.43471185068537	3502.666666666666	3617.582417582417	0.3863912515188335	0.5486618004866181	0.02509907529722589
1774.444580078125	-16.96153846153846	-31.87581603744534	1.136955718420891	0.4155514469759986	2.764088245870591	-2.017330958541666	3476.451282051281	3614.652014652014	0.3778857837181044	0.5389294403892945	0.03302509907529723
1793.975830078125	-16.96153846153846	-32.64720237728644	1.244734248937612	1.296889131815163	3.660291694016067	-2.833508831520847	3469.169230769231	3613.186813186813	0.3851761846901579	0.5462287104622872	0.03434610303830912
1813.507080078125	-15.73076923076923	-32.52455040955842	1.573674324074645	0.3587778086313075	3.194556144872906	-4.053274869698807	3488.102564102564	3613.186813186813	0.3754556500607533	0.5425790754257908	0.03434610303830912
1833.038330078125	-16.03846153846154	-31.78017029007822	1.200822196218513	1.688272108276675	4.0772225558438	-4.874069679197797	3472.082051282051	3610.25641025641	0.3924665856622114	0.5535279805352799	0.03830911492734478
1852.569580078125	-16.34615384615385	-32.20826661329063	1.759484510685472	1.240115493470472	4.090759593018382	-4.869452742677989	3485.189743589744	3611.721611721612	0.3912515188335358	0.5425790754257908	0.02906208718626156
1872.100830078125	-15.88461538461539	-31.85250508098787	2.740638664777976	2.168084965983985	5.949204141464756	-4.451984726612539	3479.364102564102	3608.791208791209	0.3888213851761846	0.5523114355231144	0.03830911492734478
1891.632080078125	-17.23076923076923	-32.41168319270801	1.276467327708321	2.577097565502459	4.511787242741955	-5.286775552207196	3457.517948717949	3604.395604395604	0.3851761846901579	0.5401459854014599	0.02774108322324967
1911.163330078125	-17.19230769230769	-31.79964741023588	1.405447434870974	2.56164755826467	7.766636718156951	-6.886725618605158	3482.276923076923	3604.395604395604	0.3839611178614824	0.5474452554744526	0.03170409511228534
1930.694580078125	-17.5	-32.13536213586253	1.191183716203732	2.52733723707984	6.812188333417306	-7.712253529852951	3464.8	3600	0.3876063183475091	0.5450121654501217	0.03830911492734478
1950.225830078125	-16.80769230769231	-32.48242440105931	2.467373899119296	3.848869301874039	10.48806545855588	-9.729526405780119	3464.8	3598.534798534799	0.3900364520048603	0.5462287104622872	0.035667107001321
1969.757080078125	-17.38461538461539	-32.26159389049702	1.618156063312188	2.472268752089775	10.97472990020444	-10.93538355178416	3479.364102564102	3594.139194139194	0.3888213851761846	0.5486618004866181	0.0488771466314399
1989.288330078125	-16.61538461538462	-32.01893822750508	2.17768060602328	2.89312835563322	11.87667766996325	-12.15506246604037	3558.010256410256	3698.168498168498	0.3876063183475091	0.551094890510949	0.04623513870541612
2008.819580078125	-17.23076923076923	-33.06066391574798	2.956272710476073	4.665945575981891	12.27637556695099	-12.98512018988623	3560.923076923077	3696.703296703297	0.3948967193195626	0.5535279805352799	0.04623513870541612
2028.350830078125	-17.19230769230769	-32.21074551949252	2.729583666933547	6.85526316823566	10.77701780396861	-14.24649673935696	3540.533333333333	3693.772893772893	0.3888213851761846	0.5328467153284672	0.03830911492734478
2047.882080078125	-17.34615384615385	-32.10915655601404	3.573212416086716	9.906583668917001	8.296137581897417	-16.34263507311509	3539.076923076923	3687.912087912088	0.3961117861482381	0.5401459854014599	0.05019815059445178
2067.413330078125	-17.80769230769231	-32.44336238221347	3.437349879903923	12.56339265238856	8.660968688974743	-17.5900446477974	3544.902564102564	3682.051282051282	0.3961117861482381	0.5437956204379563	0.05680317040951123
2086.944580078125	-17.65384615384615	-31.84824013056599	4.296621912914947	16.14817110837363	10.88424434449844	-18.41998620641426	3531.794871794872	3676.190476190476	0.402187120291616	0.5425790754257908	0.047556142668428
2106.475830078125	-17.88461538461539	-32.06769261563096	3.961553858471393	18.8049800918452	11.24907545157577	-19.66739578109657	3537.620512820513	3682.051282051282	0.4082624544349939	0.5352798053527981	0.05284015852047556
2126.007080078125	-18.11538461538462	-31.6866647163885	4.371697357886309	21.02112023289717	11.16580483458035	-20.50671641928929	3511.405128205128	3674.725274725275	0.4106925880923451	0.5401459854014599	0.06208718626155878
2145.538330078125	-18.5	-32.15788784874053	5.24054628318039	21.86283943998406	12.96970037409797	-22.94607424780172	3531.794871794872	3668.864468864469	0.4082624544349939	0.5340632603406327	0.06605019815059446
2165.069580078125	-18.30769230769231	-31.24404138695572	3.586684732401305	24.97747242646762	14.25985739761785	-24.18880880334972	3512.861538461538	3661.538461538461	0.4046172539489671	0.5316301703163017	0.06737120211360634
2184.600830078125	-18.80769230769231	-31.59134230461292	4.144038307569132	25.8346416407923	12.80890346172047	-25.02821656546418	3528.882051282051	3663.003663003663	0.4131227217496962	0.5340632603406327	0.07793923381770146
2204.132080078125	-18.11538461538462	-31.52037784073413	3.749661267475519	28.97391756025489	14.11464591636286	-25.45471516541851	3514.317948717948	3665.934065934066	0.4191980558930741	0.5279805352798054	0.0726552179656539
2223.663330078125	-18.96153846153846	-31.11406817761901	5.434178111720145	29.40709863028785	15.02438640168291	-26.26627610187788	3544.902564102564	3667.399267399267	0.4264884568651275	0.5340632603406327	0.07661822985468957
2243.194580078125	-19.76923076923077	-31.22123852928497	3.908080310402168	28.97609717607406	15.51514763122732	-25.84889520973418	3521.6	3665.934065934066	0.4471445929526123	0.5267639902676399	0.08586525759577279
2262.725830078125	-19.23076923076923	-30.48207797006836	4.873129272648889	29.01694634471642	20.67110116056036	-26.20590743143339	3508.492307692307	3663.003663003663	0.4410692588092345	0.5158150851581509	0.0964332892998679
2282.257080078125	-19.84615384615385	-31.01031594506375	4.977335714725626	27.67901534775533	24.91321741667749	-27.37459675482098	3528.882051282051	3661.538461538461	0.433778857837181	0.5145985401459854	0.09247027741083223
2301.788330078125	-19.73076923076923	-30.96872113075076	4.705287306768492	28.1535200488952	28.64733947841023	-27.75016384652117	3521.6	3663.003663003663	0.4325637910085055	0.51338199513382	0.09775429326287979
2321.319580078125	-19.11538461538462	-30.5675078524358	5.183084929482047	28.14337819822485	30.04004847771344	-28.55246186863368	3530.338461538461	3661.538461538461	0.4434993924665856	0.51338199513382	0.1122853368560106
2340.850830078125	-19.19230769230769	-30.43280008622283	6.216927388064298	29.92899134752759	28.11596713734208	-28.1813955482243	3504.123076923077	3655.677655677655	0.4374240583232077	0.51338199513382	0.1096433289299868
2360.382080078125	-19.42307692307692	-29.5136493810433	6.64400751370327	29.9606475904287	30.00148576013762	-27.75469365911923	3509.948717948718	3660.07326007326	0.4349939246658566	0.5085158150851582	0.1294583883751651
2379.913330078125	-20.57692307692308	-30.14361489191353	6.603821518753465	29.96766090035077	31.87141895181065	-28.14422772560785	3528.882051282051	3655.677655677655	0.4520048602673147	0.4951338199513382	0.1294583883751651
2399.444580078125	-19.80769230769231	-29.94561033442139	7.472824413376855	32.22294505669048	33.21202819636346	-28.15337447472571	3512.861538461538	3655.677655677655	0.4544349939246658	0.5109489051094891	0.1294583883751651
2418.975830078125	-20	-29.19735788630905	8.714048161606208	33.96628564995721	33.12670918542012	-29.8043141319923	3517.230769230769	3655.677655677655	0.4641555285540704	0.5036496350364964	0.1532364597093791
2438.507080078125	-20.88461538461539	-29.77953901582805	7.938489252940814	36.15560324221098	31.62735142243774	-31.06569068146304	3521.6	3654.212454212454	0.4556500607533414	0.4951338199513382	0.1505944517833553
2458.038330078125	-20.57692307692308	-29.0912345260824	7.830957073350989	37.94292154486835	33.43534374985119	-31.88181047182772	3517.230769230769	3649.81684981685	0.465370595382746	0.4878345498783455	0.1624834874504623
2477.569580078125	-21.57692307692308	-29.62493841226828	8.593074459567653	37.90861122368352	32.48089536511155	-32.70733838307551	3518.687179487179	3648.351648351648	0.4641555285540704	0.4878345498783455	0.1690885072655218
2497.100830078125	-20.57692307692308	-28.60238190552442	8.388326045451747	40.15858722345578	35.68364508577614	-33.51413717647883	3523.05641025641	3648.351648351648	0.4750911300121506	0.4939172749391728	0.1809775429326288
2516.632080078125	-19.69230769230769	-28.05176448851389	8.818993656463633	41.89756858508417	32.79732264510388	-34.37671674511408	3501.210256410256	3643.956043956044	0.4860267314702308	0.4817518248175183	0.1889035667107001
2536.163330078125	-19.80769230769231	-27.8516274558108	8.542911252078586	42.26743716931492	29.93602588483286	-36.04168145978359	3509.948717948718	3641.025641025641	0.4763061968408262	0.4781021897810219	0.1968295904887715
2555.694580078125	-19.34615384615385	-27.74760577692924	8.649519615692555	42.62498428705614	27.06693640900059	-38.11476415224994	3495.384615384615	3632.234432234432	0.473876063183475	0.462287104622871	0.2087186261558785
2575.225830078125	-19.73076923076923	-27.37199759807846	9.484495288538524	43.00717433777641	24.21343236429083	-39.3716108891226	3482.276923076923	3633.699633699634	0.4872417982989064	0.4549878345498783	0.2166446499339498
2594.757080078125	-20.23076923076923	-25.84241239145162	8.505234957196526	42.91703930317598	19.02630797271279	-40.64707057861074	3504.123076923077	3629.304029304029	0.4872417982989064	0.4549878345498783	0.2166446499339498
2614.288330078125	-21.15384615384615	-25.34758576091643	9.686980353513581	41.98954429312702	14.83629147134606	-40.2715325282178	3501.210256410256	3629.304029304029	0.4957472660996354	0.4476885644768857	0.2245706737120211
2633.819580078125	-21.03846153846154	-26.37607778530517	10.99619695756605	41.9723891325346	14.35906727897624	-40.6842964838417	3517.230769230769	3630.769230769231	0.4981773997569866	0.4367396593673966	0.2351387054161163
2653.350830078125	-21.80769230769231	-24.48548839071257	11.4667272279362	42.79088879403611	9.152661528610283	-41.56087206857262	3498.297435897436	3624.908424908425	0.5006075334143377	0.4318734793187348	0.2470277410832233
2672.882080078125	-22.88461538461539	-24.72666594814313	11.1409897148488	45.52380619226394	10.96475064391958	-40.75375382078956	3474.994871794872	3626.373626373626	0.5103280680437423	0.413625304136253	0.2391017173051519
2692.413330078125	-22.26923076923077	-23.29385816345384	11.96213894192277	45.55934720433885	17.9828446493644	-41.90841808677423	3504.123076923077	3629.304029304029	0.5078979343863912	0.4111922141119221	0.249669749009247
2711.944580078125	-22.65384615384616	-23.21849017675679	12.4245088378395	46.5071259157285	19.3874431521247	-40.67936009294215	3482.276923076923	3627.838827838828	0.5078979343863912	0.4087591240875912	0.2562747688243065
2731.475830078125	-22.07692307692308	-24.32849356408204	13.50160128102482	46.06114891674147	20.80148190416374	-41.06892320073801	3491.015384615384	3630.769230769231	0.5176184690157958	0.4014598540145986	0.2747688243064729
2751.007080078125	-22.19230769230769	-22.2930421260085	13.76749091580957	45.61564638021899	19.88394870328244	-40.66548024207548	3507.035897435897	3632.234432234432	0.5139732685297691	0.4038929440389295	0.285336856010568
2770.538330078125	-22.80769230769231	-22.85284381351235	13.5268060602328	46.52958923288836	18.00252686838274	-39.4689440930328	3488.102564102564	3632.234432234432	0.5139732685297691	0.4002433090024331	0.2800528401585205
2790.069580078125	-23.23076923076923	-22.0499784442939	14.19122990700253	46.11574293926699	18.97051229029697	-38.6387992452652	3511.405128205128	3638.095238095238	0.5261239368165249	0.3759124087591241	0.2813738441215324
2809.600830078125	-22.76923076923077	-21.2238406109503	14.73049208597647	47.06086757237291	21.30618103111316	-37.80856727357585	3501.210256410256	3636.630036630037	0.5224787363304981	0.3722627737226277	0.2932628797886394
2829.132080078125	-22.57692307692308	-20.84888680174909	15.02126316437766	48.46429067095539	22.23560373545157	-36.1806542162938	3495.384615384615	3641.025641025641	0.5358444714459295	0.3698296836982968	0.3064729194187583
2848.663330078125	-22.80769230769231	-20.5733278930837	14.93562542341565	48.02845552263871	22.2569334881874	-35.76791930197717	3525.969230769231	3641.025641025641	0.5261239368165249	0.3479318734793188	0.3104359313077939
2868.194580078125	-22.5	-20.5848140050502	15.20223871404816	48.91993505814821	21.76042793702966	-35.78179915284384	3505.579487179487	3641.025641025641	0.5309842041312272	0.3418491484184915	0.3210039630118891
2887.725830078125	-22.46153846153846	-19.85499168565622	15.21112274434933	50.28904783554586	21.73540225662842	-34.97941400680958	3505.579487179487	3642.490842490842	0.5370595382746051	0.3418491484184915	0.3249669749009247
2907.257080078125	-21.92307692307692	-20.24904539015828	15.14457720022172	48.91074213240697	18.48999303049216	-34.99808504203955	3499.753846153846	3639.560439560439	0.5334143377885783	0.3357664233576643	0.3183619550858652
2926.788330078125	-22.88461538461539	-17.75878395023711	14.66996674262487	48.47974067819317	18.98075426003657	-34.58070414989584	3511.405128205128	3645.421245421245	0.5479951397326852	0.3199513381995134	0.3434610303830912
2946.319580078125	-22.73076923076923	-17.61864106669951	15.20128410420644	47.67669102392947	20.93231053498753	-32.10417849876697	3512.861538461538	3649.81684981685	0.5407047387606317	0.3211678832116788	0.3434610303830912
2965.850830078125	-21	-17.83924062326785	16.8081850095461	47.7061676510114	21.41732744291861	-31.28329656534623	3502.666666666666	3645.421245421245	0.543134872417983	0.2992700729927008	0.35667107001321
2985.382080078125	-22.34615384615385	-17.34757806244996	16.64813389172877	47.23384256569071	19.08370709605033	-31.30190951796171	3509.948717948718	3652.747252747252	0.5504252733900364	0.3004866180048662	0.3553500660501981
3004.913330078125	-23.23076923076923	-16.80501324136233	17.32758514503911	45.91354119178659	21.47147559161693	-31.264828819267	3528.882051282051	3646.886446886447	0.5382746051032806	0.294403892944039	0.3659180977542933
3024.444580078125	-23.23076923076923	-16.88353759931022	17.4076491962801	46.8366769701972	22.86048866325473	-30.8520067810286	3525.969230769231	3652.747252747252	0.551640340218712	0.2834549878345499	0.3725231175693527
3043.975830078125	-22.34615384615385	-15.73628903122498	18.77599002278746	49.08542227907939	19.99959276321414	-29.67861339719947	3511.405128205128	3660.07326007326	0.5382746051032806	0.2785888077858881	0.3725231175693527
3063.507080078125	-23.57692307692308	-15.48402568208413	17.00897641189875	49.04144456968876	18.10628142485736	-30.51343326410137	3524.51282051282	3655.677655677655	0.5273390036452005	0.2579075425790754	0.381770145310436
3083.038330078125	-23.69230769230769	-15.435548438751	18.54665270678081	49.972068120486	19.03365573524783	-29.6971392258932	3518.687179487179	3655.677655677655	0.5370595382746051	0.2542579075425791	0.380449141347424
3102.569580078125	-23.42307692307692	-14.3138279854653	17.96063004249554	49.51860334911235	20.9093332485342	-30.49017433365884	3539.076923076923	3655.677655677655	0.5504252733900364	0.2372262773722628	0.3923381770145311
3122.100830078125	-23.57692307692308	-13.89506220360904	18.33003325737513	49.09508966728518	20.93845571683129	-29.66932144154535	3530.338461538461	3660.07326007326	0.5382746051032806	0.2372262773722628	0.3949801849405548
3141.632080078125	-22.46153846153846	-13.64617848124654	18.23200098540371	50.04988168859691	24.21298741126463	-28.82979751420189	3509.948717948718	3660.07326007326	0.5334143377885783	0.2262773722627737	0.4002642007926024
3161.163330078125	-22.80769230769231	-12.61465326107039	18.92497074582743	48.2475878411663	23.32827260634581	-28.82062172377677	3534.707692307692	3654.212454212454	0.5382746051032806	0.2238442822384428	0.4174372523117569
3180.694580078125	-23	-11.99573504957812	18.94059863275236	48.27488485242906	22.41278779941242	-27.60555974604036	3514.317948717948	3661.538461538461	0.5467800729040097	0.218978102189781	0.4121532364597094
3200.225830078125	-21.38461538461539	-11.20016012810248	19.85416025127795	47.38823901102245	23.37872482737873	-27.58703391734663	3517.230769230769	3663.003663003663	0.5334143377885783	0.2043795620437956	0.4227212681638045
3219.757080078125	-21.5	-11.27716788815668	19.97377902321857	46.50424724789956	23.41359161728915	-27.16968206651018	3521.6	3661.538461538461	0.5334143377885783	0.1909975669099757	0.4187582562747688
3239.288330078125	-21.65384615384615	-10.16246073782103	20.16149842951284	47.4203697163881	22.93267149725391	-26.36732596178317	3514.317948717948	3657.142857142857	0.5249088699878493	0.183698296836983	0.429326287978864
3258.819580078125	-22.15384615384615	-8.953131736158156	19.81043296175402	47.40368901826024	20.12387535196373	-25.98708385094868	3531.794871794872	3668.864468864469	0.5236938031591737	0.1751824817518248	0.4398943196829591
3278.350830078125	-22.07692307692308	-9.650597400997722	19.99140851142452	47.4213186413172	18.2695275914132	-24.78131382886638	3517.230769230769	3664.468864468864	0.5370595382746051	0.1776155717761557	0.4319682959048877
3297.882080078125	-22	-8.688273695879781	19.8752232555275	46.56898312109542	20.18991300411916	-23.93726008892486	3520.14358974359	3667.399267399267	0.528554070473876	0.1630170316301703	0.4438573315719947
3317.413330078125	-21.76923076923077	-7.866031286567716	20.84002586684732	47.02680712410741	21.11523892056172	-23.93258506979056	3530.338461538461	3667.399267399267	0.5334143377885783	0.1569343065693431	0.453104359313078
3336.944580078125	-22.11538461538462	-7.518129888526206	21.09880211861797	48.36644327442313	20.6051963322294	-23.95108185717704	3525.969230769231	3667.399267399267	0.5297691373025516	0.1557177615571776	0.4557463672391017
3356.475830078125	-21.65384615384615	-7.377155570610334	21.28085545359365	47.91828665961693	20.61873336940398	-23.94646492065723	3534.707692307692	3670.32967032967	0.528554070473876	0.1411192214111922	0.4597093791281374
3376.007080078125	-22	-6.410297468744226	21.36102728336515	47.45297488421831	20.15504621420874	-24.35461193976132	3534.707692307692	3665.934065934066	0.5224787363304981	0.1289537712895377	0.4715984147952444
3395.538330078125	-21.57692307692308	-6.167711091950483	22.27016998213956	47.43581972362589	19.67782202183891	-24.76737589538521	3530.338461538461	3665.934065934066	0.5249088699878493	0.1167883211678832	0.4689564068692206
3415.069580078125	-21.11538461538462	-4.491662560817884	20.69851265627887	48.35677588621733	19.66633337861225	-23.96037381283115	3518.687179487179	3661.538461538461	0.5164034021871202	0.1058394160583942	0.4702774108322325
3434.600830078125	-22.11538461538462	-5.400281763872636	20.97562665517029	45.30763500135517	23.54771531554791	-22.25841552338868	3539.076923076923	3671.794871794872	0.5151883353584447	0.09489051094890512	0.4729194187582563
3454.132080078125	-21.23076923076923	-4.589456180328878	21.85742440105931	46.76157465678579	30.57195450283649	-20.97822273215174	3515.774358974359	3671.794871794872	0.5091130012150668	0.1009732360097324	0.4689564068692206
3473.663330078125	-20.53846153846154	-4.518491716450083	21.4630473609657	45.02524737344112	32.52720670545286	-19.71681714137376	3540.533333333333	3680.58608058608	0.5091130012150668	0.08150851581508516	0.476882430647292
3493.194580078125	-18.84615384615385	-4.107054874668966	22.27582065652522	46.82801568333628	31.08034955745132	-18.93298686534048	3534.707692307692	3679.120879120879	0.5139732685297691	0.07907542579075426	0.4966974900924703
3512.725830078125	-19.76923076923077	-3.468266921229291	22.02873067684917	46.29019849639419	23.57519025012751	-19.41082355185042	3536.164102564102	3679.120879120879	0.5091130012150668	0.08150851581508516	0.4887714663143989
3532.257080078125	-19.61538461538462	-2.753818439366878	22.69092196834391	44.926393875564	21.73807545441697	-19.41555665359923	3540.533333333333	3680.58608058608	0.5006075334143377	0.06447688564476886	0.4914134742404227
3551.788330078125	-19.96153846153846	-3.014095892098294	22.58940998953009	43.17291143162691	23.21610346466351	-18.56691501844514	3514.317948717948	3674.725274725275	0.4993924665856622	0.06569343065693431	0.5019815059445179
3571.319580078125	-19.69230769230769	-1.154092504773049	21.62770216172939	42.34692399773879	28.88414797627679	-18.093811433684	3550.728205128205	3683.516483516483	0.4981773997569866	0.04744525547445256	0.5006605019815059
3590.850830078125	-18.73076923076923	-1.455679928558231	22.28399642791156	41.92341031591162	28.91327044457387	-17.27295854157052	3543.446153846154	3684.981684981685	0.496962332928311	0.03649635036496351	0.4980184940554822
3610.382080078125	-18.96153846153846	-1.109295128410421	22.50321795898257	41.91156331188666	26.57390577609226	-16.88807045290896	3528.882051282051	3682.051282051282	0.4908869987849331	0.03284671532846716	0.5033025099075297
3629.913330078125	-18.42307692307692	-0.3539677896163084	22.65992794235388	39.62462291264584	23.34777790874392	-17.30562559289616	3552.184615384615	3686.446886446886	0.4835965978128797	0.0291970802919708	0.5165125495376486
3649.444580078125	-18.30769230769231	1.080279608302026	21.98601958489869	38.7749414707078	24.33709308339398	-16.06274583081191	3553.641025641025	3689.377289377289	0.4811664641555285	0.008515815085158151	0.5217965653896962
3668.975830078125	-18.65384615384615	1.61987282133399	22.27558970253126	36.60761273314934	26.78310651555476	-14.38395934789023	3544.902564102564	3692.307692307692	0.4872417982989064	0.00364963503649635	0.5178335535006605
3688.507080078125	-19.26923076923077	1.652853051672107	23.16503972408696	35.82076931454895	33.87503088871625	-13.08068187405424	3547.815384615385	3693.772893772893	0.4750911300121506	0.007299270072992701	0.5310435931307794
3708.038330078125	-16.15384615384615	0.9506066391574799	22.46966804212601	36.33489249344108	36.70146085907685	-11.83306901022119	3456.061538461538	3588.278388278388	0.4702308626974483	0.00121654501216545	0.5310435931307794
3727.569580078125	-16.53846153846154	0.8612274434932561	23.47708936379873	35.43422003219033	33.92753150369708	-11.03547504855024	3464.8	3591.208791208791	0.4750911300121506	-0.007299270072992701	0.5323645970937913
3747.100830078125	-16.30769230769231	1.55259592289216	23.29328077846893	35.82655193358094	29.68131845968411	-11.4900237633104	3476.451282051281	3594.139194139194	0.4580801944106925	-0.01338199513381995	0.5468956406869221
3766.632080078125	-17.88461538461539	2.429905462831804	23.31241916610211	36.22153791325527	24.50403517761524	-11.54574645592783	3461.887179487179	3594.139194139194	0.4617253948967193	-0.006082725060827251	0.5389696169088507
3786.163330078125	-16.84615384615385	1.98668165301472	23.28130196464865	34.84323221011638	21.25862595147899	-11.5644174911578	3469.169230769231	3595.604395604395	0.4556500607533414	-0.0194647201946472	0.5442536327608983
3805.694580078125	-15.96153846153846	2.752086284412145	22.58799347170044	34.85773329242507	22.6669203819047	-11.55047955767663	3476.451282051281	3594.139194139194	0.4434993924665856	-0.03284671532846716	0.5376486129458389
3825.225830078125	-16.15384615384615	3.928373468005173	21.65824967666441	33.55553600404247	20.86876916400042	-9.514622770441235	3469.169230769231	3602.930402930403	0.4507897934386391	-0.024330900243309	0.5521796565389696
3844.757080078125	-15.03846153846154	3.097162345260824	19.79572889080495	32.6367594572702	22.28075952209154	-10.71580489731097	3467.71282051282	3592.673992673992	0.4471445929526123	-0.04014598540145985	0.5416116248348745
3864.288330078125	-14.88461538461539	4.261201268707273	21.05532118002094	30.28650657222717	15.28359440915213	-11.9867638155083	3467.71282051282	3588.278388278388	0.4398541919805589	-0.03527980535279805	0.5429326287978864
3883.819580078125	-15.23076923076923	4.524419535628502	19.77902321857486	25.78295156946983	14.47230911171955	-12.35800438376118	3571.117948717948	3696.703296703297	0.4362089914945322	-0.04501216545012166	0.5376486129458389
3903.350830078125	-15.53846153846154	5.030147194678819	21.72340949682823	21.82953522014409	21.17397583717205	-11.84329028770727	3460.430769230769	3589.743589743589	0.4362089914945322	-0.04866180048661801	0.5468956406869221
3922.882080078125	-15.73076923076923	5.494326230214941	21.78368848925294	17.92009658020898	29.76895390098133	-10.49375632475146	3448.779487179487	3592.673992673992	0.4325637910085055	-0.04987834549878346	0.5495376486129459
3942.413330078125	-14.30769230769231	5.83257375130874	22.67900474225534	14.41436238322489	38.78865554217959	-10.77666523167576	3476.451282051281	3594.139194139194	0.4228432563791008	-0.05474452554744526	0.5508586525759578
3961.944580078125	-14.03846153846154	4.653992424708998	23.64653261070395	13.99568239550062	39.28720948728525	-9.951166361735213	3464.8	3594.139194139194	0.4216281895504253	-0.06082725060827251	0.5587846763540291
3981.475830078125	-12.61538461538462	4.834421383260454	22.81739237543881	14.44383901030682	39.27367245011067	-9.955783298255021	3467.71282051282	3595.604395604395	0.4058323207776428	-0.06934306569343066	0.5521796565389696
4001.007080078125	-13.73076923076923	4.728729137155878	23.44815852682146	15.18405064123286	31.21950697664828	-12.49270666113564	3558.010256410256	3696.703296703297	0.4155528554070473	-0.08029197080291971	0.5614266842800528
4020.538330078125	-11.96153846153846	5.549739791833467	22.93608733140358	15.03325719911395	21.33027510142327	-14.22274410669119	3556.553846153846	3684.981684981685	0.4082624544349939	-0.07664233576642336	0.5693527080581242
4040.069580078125	-12.53846153846154	6.287907248876024	23.14309909466034	14.96729063502801	18.49030809388809	-15.47497390704405	3549.271794871795	3686.446886446886	0.3876063183475091	-0.07542579075425791	0.5587846763540291
4059.600830078125	-11.34615384615385	5.765420028330357	23.07515242963602	14.08813256600802	18.99460636060708	-15.05297607838054	3543.446153846154	3684.981684981685	0.402187120291616	-0.07177615571776155	0.5653896961690885
4079.132080078125	-10.96153846153846	6.141182176510439	23.13319886678573	14.51477478858346	15.70284170133375	-14.6819968818929	3534.707692307692	3687.912087912088	0.3985419198055893	-0.08515815085158152	0.5627476882430648
4098.663330078125	-10.80769230769231	5.856369711153538	21.83536059616924	12.2696324829141	12.96952345747773	-13.87055211066252	3549.271794871795	3687.912087912088	0.3900364520048603	-0.08150851581508516	0.5693527080581242
4118.194580078125	-10.53846153846154	7.639388433823982	22.79980907803165	10.07766081237661	15.399951458516	-13.00800158333452	3553.641025641025	3696.703296703297	0.3803159173754556	-0.07177615571776155	0.5627476882430648
4137.725830078125	-11.61538461538462	8.143422430251894	23.67503233355916	6.537334528246706	12.73841518842874	-10.55023409135736	3470.625641025641	3597.069597069597	0.3851761846901579	-0.09124087591240876	0.570673712021136
4157.257080078125	-11.57692307692308	7.801618217651043	25.34216604052473	5.792763665682314	17.9915772321622	-7.224950639845404	3448.779487179487	3600	0.3851761846901579	-0.09367396593673966	0.5680317040951123
4176.788330078125	-10.07692307692308	6.540139804151014	25.37762517706473	5.427728775554463	21.32230546924178	-5.55533994734884	3485.189743589744	3607.326007326007	0.3742405832320777	-0.08029197080291971	0.570673712021136
4196.319580078125	-10.76923076923077	5.435271293958244	25.54412760978013	7.654959692205881	15.18318194710245	-4.006350430512258	3476.451282051281	3613.186813186813	0.3839611178614824	-0.09732360097323602	0.5653896961690885
4215.850830078125	-10.38461538461539	5.326030054813081	24.85234341319209	10.23973772659853	6.174968949130848	-4.530443606142023	3480.820512820513	3610.25641025641	0.3742405832320777	-0.09854014598540146	0.5772787318361955
4235.382080078125	-9.346153846153847	6.370919812773296	25.41554782287368	13.64301542249267	-8.039649799206712	-5.931112366502707	3463.343589743589	3605.860805860806	0.3815309842041312	-0.09854014598540146	0.571994715984148
4254.913330078125	-9.923076923076923	6.207596846708136	22.62015766459321	13.46227089082728	-16.08232662944244	-9.27503781193739	3479.364102564102	3600	0.3791008505467801	-0.09489051094890512	0.5785997357992074
4274.444580078125	-12.23076923076923	8.150997721253926	23.91165239884215	9.901186442892143	-13.62687294800292	-9.214872430643643	3473.538461538461	3600	0.3669501822600243	-0.08880778588807786	0.5693527080581242
4293.975830078125	-13.38461538461539	7.739668658003326	22.55502863829525	6.99971045940062	3.406383055133985	-6.974708784246747	3456.061538461538	3598.534798534799	0.3851761846901579	-0.09245742092457421	0.5772787318361955
4313.507080078125	-11.11538461538462	7.141952023156987	23.24855268830449	3.545441744193778	13.85775727344172	-6.019325824299356	3486.646153846154	3605.860805860806	0.3803159173754556	-0.1009732360097324	0.5825627476882431
4333.038330078125	-10.42307692307692	7.826484264334544	22.94501755250354	1.787600068618346	12.53478185395934	-4.382324100513936	3470.625641025641	3604.395604395604	0.3754556500607533	-0.1070559610705596	0.5772787318361955
4352.569580078125	-9.26923076923077	7.006058693108334	24.35091149842952	0.9480604773506318	12.13138802930619	-2.337146316317179	3457.517948717949	3613.186813186813	0.3803159173754556	-0.1094890510948905	0.5772787318361955
4372.100830078125	-9.192307692307693	7.809793989037384	24.47183900966927	-0.4597218528701906	8.400961895238861	-3.176699284967889	3491.015384615384	3614.652014652014	0.3766707168894289	-0.09732360097323602	0.5759577278731837
4391.632080078125	-10.30769230769231	8.09749337931884	24.66379257251955	0.4278729134655163	2.771880961431842	-1.609212980744826	3476.451282051281	3617.582417582417	0.3742405832320777	-0.09367396593673966	0.571994715984148
4411.163330078125	-9	7.266320748906818	24.53011640081296	-0.4367840732457815	4.684473658576543	-1.173277218600144	3495.384615384615	3620.51282051282	0.3693803159173754	-0.1034063260340633	0.5680317040951123
4430.694580078125	-10.53846153846154	6.959613844922092	24.0962308308185	-0.4235136818271671	0.02912246829708476	0.8208528921134873	3486.646153846154	3626.373626373626	0.3693803159173754	-0.1058394160583942	0.5746367239101717
4450.225830078125	-10.30769230769231	7.00739052780686	23.39970437888773	0.4486310772707509	-2.345108990094938	0.7883891299385879	3489.558974358974	3623.443223443223	0.3730255164034022	-0.09732360097323602	0.5772787318361955
4469.757080078125	-9.230769230769232	6.635770154585207	23.59610765535505	1.248270424825208	-11.76081260061553	0.6862357003578374	3472.082051282051	3624.908424908425	0.3608748481166464	-0.09367396593673966	0.571994715984148
4489.288330078125	-10.57692307692308	8.062026544312374	22.86021124591981	-1.060658829110917	-15.93359613714227	-0.1487293730803135	3488.102564102564	3621.978021978022	0.3791008505467801	-0.09367396593673966	0.571994715984148
4508.819580078125	-10.92307692307692	7.229753033195787	22.51234834021063	-4.141455956874193	-13.93773282300215	1.126527027257088	3488.102564102564	3621.978021978022	0.3718104495747266	-0.1021897810218978	0.5759577278731837
4528.350830078125	-10.57692307692308	7.05044805074829	21.51605900104699	-7.682731165933189	-11.93612518724871	1.998282386317457	3499.753846153846	3623.443223443223	0.3766707168894289	-0.1009732360097324	0.5693527080581242
4547.882080078125	-11.34615384615385	7.754703763010408	21.68788877255651	-11.18704197552363	-9.911139404811506	4.094391678768345	3482.276923076923	3627.838827838828	0.3754556500607533	-0.1034063260340633	0.5680317040951123
4567.413330078125	-10.96153846153846	6.729345014473117	22.57121081480569	-12.45369825183133	-4.691196617270969	4.975584200019072	3493.928205128205	3633.699633699634	0.3766707168894289	-0.09245742092457421	0.571994715984148
4586.944580078125	-10.46153846153846	6.154369649565807	21.97382521401737	-15.178653415208	-9.296496446747939	5.364944018664192	3504.123076923077	3635.164835164835	0.3839611178614824	-0.08880778588807786	0.5693527080581242
4606.475830078125	-10.42307692307692	6.429212600849911	21.65475457288908	-16.53013656954868	-11.12581852689723	5.768328894712228	3501.210256410256	3635.164835164835	0.3876063183475091	-0.09610705596107057	0.5759577278731837
4626.007080078125	-10.76923076923077	6.704748414115908	21.68565621728152	-18.79992180819708	-13.87472220187575	5.763537710348927	3511.405128205128	3636.630036630037	0.393681652490887	-0.07420924574209246	0.5667107001321005
4645.538330078125	-11.42307692307692	6.504457412083513	22.73866785736281	-20.58022680093237	-13.81278133761617	6.190123434224998	3501.210256410256	3630.769230769231	0.3888213851761846	-0.0827250608272506	0.5653896961690885
4665.069580078125	-11.57692307692308	5.489768738067377	23.62694771201577	-22.28176930062766	-13.23465270318051	9.070063002709164	3495.384615384615	3635.164835164835	0.3876063183475091	-0.08394160583941607	0.570673712021136
4684.600830078125	-11.69230769230769	5.652953131736158	23.27542033626902	-25.80323527081052	-11.68689111311313	10.75340833953616	3521.6	3648.351648351648	0.3888213851761846	-0.0705596107055961	0.5614266842800528
4704.132080078125	-11.42307692307692	4.715333805505942	23.73330972470284	-26.60628492507423	-9.735334838162171	13.22993399066504	3502.666666666666	3652.747252747252	0.4034021871202916	-0.06447688564476886	0.5640686922060766
4723.663330078125	-11.61538461538462	4.084790909650797	24.68353144053705	-27.93625368718415	-8.28642929621271	13.25772273370563	3537.620512820513	3652.747252747252	0.3985419198055893	-0.04866180048661801	0.5733157199471598
4743.194580078125	-11.84615384615385	1.836792510931823	23.85268214571657	-25.67348175845782	-7.407458812907227	13.65204798455754	3523.05641025641	3654.212454212454	0.3924665856622114	-0.06082725060827251	0.5640686922060766
4762.725830078125	-10.19230769230769	3.584675432653816	23.26622836730923	-23.04567493960364	-9.859216566681331	12.37676254291289	3508.492307692307	3649.81684981685	0.3912515188335358	-0.04744525547445256	0.5587846763540291
4782.257080078125	-10.73076923076923	4.866362320625731	23.18188396871343	-26.7478854414519	-16.35413180684968	10.7161824343052	3518.687179487179	3648.351648351648	0.4009720534629404	-0.04501216545012166	0.5693527080581242
4801.788330078125	-12.73076923076923	3.876709059555337	22.74147009915625	-28.88839163021214	-12.49203122870194	12.8170248285049	3508.492307692307	3649.81684981685	0.3973268529769137	-0.03527980535279805	0.5627476882430648
4821.319580078125	-11.38461538461539	2.361920305475149	22.13475395701176	-33.74949375071071	-10.43422705030225	14.51886695271837	3525.969230769231	3652.747252747252	0.402187120291616	-0.03892944038929441	0.5667107001321005
4840.850830078125	-12.84615384615385	2.548700498860627	23.87266736466096	-37.23882901552791	-9.332518790359684	17.42192024510882	3521.6	3661.538461538461	0.4119076549210206	-0.02554744525547445	0.5587846763540291
4860.382080078125	-13.5	3.470076060848679	22.68850464987375	-40.6745191827487	-5.398636238443194	21.1690853600553	3515.774358974359	3665.934065934066	0.4155528554070473	-0.01581508515815085	0.5693527080581242
4879.913330078125	-13.26923076923077	1.62018075999261	24.56788507729261	-43.25133498229017	0.8163660453607351	22.88965660211324	3540.533333333333	3673.260073260073	0.4034021871202916	-0.0194647201946472	0.571994715984148
4899.444580078125	-13.07692307692308	1.26762948820595	24.69544866662561	-43.66736089173072	0.3838497524104994	24.11398149419651	3541.989743589743	3677.655677655677	0.4070473876063183	-0.006082725060827251	0.5614266842800528
4918.975830078125	-13.88461538461539	0.329794604914701	26.24103898503418	-42.34705951782659	-2.003918743156105	24.0769007955018	3555.097435897435	3682.051282051282	0.4119076549210206	0.008515815085158151	0.5733157199471598
4938.507080078125	-14.92307692307692	-0.2670444047545729	26.35222023772865	-39.74294670702236	-9.134405833893423	23.57139153118027	3533.251282051282	3674.725274725275	0.4143377885783718	0.009732360097323601	0.560105680317041
4958.038330078125	-14.30769230769231	-0.3677711399889142	26.92701853790725	-37.60196605579758	-15.32807836496152	22.26355520343897	3520.14358974359	3671.794871794872	0.4119076549210206	0.0218978102189781	0.5640686922060766
4977.569580078125	-14.61538461538462	-1.722762825645132	25.75352589764119	-35.04060026349388	-18.28823117335045	18.94303389498306	3523.05641025641	3663.003663003663	0.4106925880923451	0.02554744525547445	0.560105680317041
4997.100830078125	-16.80769230769231	-1.75938443062142	25.93075999260947	-34.18172589581457	-16.00711144146301	16.91644002209453	3518.687179487179	3657.142857142857	0.4179829890643985	0.0413625304136253	0.5653896961690885
5016.632080078125	-16.53846153846154	-1.497582681529839	26.03298023033812	-33.67385979841898	-6.655397089149918	15.78038870872534	3507.035897435897	3654.212454212454	0.4204131227217496	0.04379562043795621	0.5680317040951123
5036.163330078125	-15.42307692307692	-3.372705856993287	26.36606208043358	-34.05263954242999	3.662254291129484	14.66286322404988	3515.774358974359	3651.282051282051	0.4131227217496962	0.04987834549878346	0.5680317040951123
5055.694580078125	-14.92307692307692	-1.791340764919628	25.64396132290448	-33.20295810049193	2.672939116479423	13.41998346196563	3514.317948717948	3652.747252747252	0.4277035236938031	0.05961070559610706	0.5561426684280053
5075.225830078125	-14.5	-2.916002032395147	25.68471700437273	-33.75840491049097	-2.977872430293859	11.7363767533734	3523.05641025641	3652.747252747252	0.4204131227217496	0.06082725060827251	0.560105680317041
5094.757080078125	-15.26923076923077	-4.071695818193017	24.62325244811234	-35.5730202244111	-3.870379950773924	11.33743456600168	3512.861538461538	3645.421245421245	0.4191980558930741	0.07299270072992702	0.5574636723910171
5114.288330078125	-15.03846153846154	-3.208651536613907	25.47103836915687	-35.07557774364683	-3.852746125703501	12.96528954066923	3496.841025641026	3646.886446886447	0.4216281895504253	0.08150851581508516	0.5561426684280053
5133.819580078125	-15.69230769230769	-3.195695017552504	25.47705856993287	-36.38621172934515	-0.526114676519754	13.01166219501805	3533.251282051282	3649.81684981685	0.4228432563791008	0.07907542579075426	0.5561426684280053
5153.350830078125	-14.96153846153846	-4.100888403030117	25.77518938227505	-35.46042187265081	-0.06817184293784445	13.82331025539917	3515.774358974359	3648.351648351648	0.4131227217496962	0.09732360097323602	0.560105680317041
5172.882080078125	-14.19230769230769	-4.645016012810249	25.28926217897395	-34.57813526288255	-3.835112300633079	14.59314451533678	3498.297435897436	3648.351648351648	0.425273390036452	0.09245742092457421	0.5587846763540291
5192.413330078125	-14.03846153846154	-4.945995257744657	24.79976288723286	-34.23992292155291	-8.581927683699632	12.50147791156221	3520.14358974359	3649.81684981685	0.425273390036452	0.1021897810218978	0.5482166446499339
5211.944580078125	-14.65384615384616	-5.381081788507728	26.01562788692493	-34.27593839609236	-13.2684497362241	12.86313611108848	3504.123076923077	3646.886446886447	0.4277035236938031	0.1167883211678832	0.5508586525759578
5231.475830078125	-14.96153846153846	-5.99702069347786	24.42795775081603	-35.59889384828021	-9.949611002601602	12.50139078764046	3525.969230769231	3655.677655677655	0.4228432563791008	0.121654501216545	0.5561426684280053
5251.007080078125	-13.80769230769231	-6.136901829155633	24.49893761162776	-34.2179340668576	-7.635272014521238	12.91888784501316	3501.210256410256	3646.886446886447	0.4240583232077764	0.1289537712895377	0.5442536327608983
5270.538330078125	-15.65384615384616	-6.235041879657572	25.48286321364784	-33.82342254964782	-10.48098334366975	12.07015908593733	3511.405128205128	3651.282051282051	0.4313487241798298	0.1374695863746959	0.560105680317041
5290.069580078125	-16.88461538461539	-8.171452546652706	25.45724271725073	-33.38275370722823	-10.03288161959702	11.66207014944774	3518.687179487179	3648.351648351648	0.4240583232077764	0.1399026763990268	0.5389696169088507
5309.600830078125	-15.42307692307692	-7.640735665455441	24.38293711892591	-31.58529355390053	-9.617598291486772	11.64824838119557	3511.405128205128	3648.351648351648	0.425273390036452	0.1496350364963504	0.5455746367239102
5329.132080078125	-15.88461538461539	-8.019592597154647	24.55655293465541	-31.19343611497447	-11.5322393825794	10.40069359997701	3498.297435897436	3645.421245421245	0.4325637910085055	0.1569343065693431	0.5455746367239102
5348.663330078125	-15.92307692307692	-8.949575044651105	24.94029069409374	-30.79674498194551	-12.97744899686345	9.157784796585514	3507.035897435897	3643.956043956044	0.4374240583232077	0.1630170316301703	0.5429326287978864
5368.194580078125	-14.73076923076923	-8.339617848124654	24.01935394469422	-28.14476969257685	-13.08204936659469	7.905729244076147	3507.035897435897	3638.095238095238	0.4277035236938031	0.1776155717761557	0.5389696169088507
5387.725830078125	-14.11538461538462	-8.691314590133645	23.68111412206688	-27.32627003107535	-18.28845511696065	7.029153659345228	3505.579487179487	3636.630036630037	0.4362089914945322	0.1678832116788321	0.5416116248348745
5407.257080078125	-14.65384615384616	-8.975495781240378	23.04401983124961	-25.19448230559181	-27.75256255456624	6.505031442408214	3511.405128205128	3638.095238095238	0.4398541919805589	0.1776155717761557	0.523117569352708
5426.788330078125	-13.96153846153846	-9.161660097308616	23.96762025004619	-24.35835302103334	-34.81331606548272	6.834225879759587	3501.210256410256	3638.095238095238	0.4374240583232077	0.1776155717761557	0.5389696169088507
5446.319580078125	-15.34615384615385	-9.165786475334112	23.63547761285952	-21.73348204642387	-47.06079310774682	8.726318726121463	3480.820512820513	3638.095238095238	0.4447144592952612	0.1909975669099757	0.5204755614266843
5465.850830078125	-14.88461538461539	-9.881651475026175	22.42872759746259	-21.39697485844886	-55.5396821585982	7.821838233120953	3512.861538461538	3641.025641025641	0.4556500607533414	0.1800486618004866	0.5165125495376486
5485.382080078125	-15.61538461538462	-9.277468128348833	21.79648334051857	-17.49890876007416	-68.80559684380944	7.650198425285094	3485.189743589744	3639.560439560439	0.456865127582017	0.1861313868613139	0.5151915455746368
5504.913330078125	-17.30769230769231	-9.655031717681839	23.13620126870728	-18.53682250606424	-75.39731973814779	5.145680741964878	3504.123076923077	3633.699633699634	0.4678007290400972	0.1970802919708029	0.4927344782034346
5524.444580078125	-18.73076923076923	-10.42824259407526	22.83520662683993	-17.21699559462467	-75.45351628079403	4.315593976811774	3505.579487179487	3635.164835164835	0.4629404617253949	0.2055961070559611	0.4927344782034346
5543.975830078125	-19.53846153846154	-10.04348093859703	21.71250846831311	-17.20078935896135	-70.3131481825835	3.14234579951888	3520.14358974359	3638.095238095238	0.4872417982989064	0.2128953771289538	0.4729194187582563
5563.507080078125	-21.30769230769231	-9.892945125331034	21.72417934347478	-19.37124663726807	-64.60449255944647	3.629300193839439	3504.123076923077	3632.234432234432	0.496962332928311	0.2019464720194647	0.4663143989431968
5583.038330078125	-21.76923076923077	-10.04854652953132	20.35040339964279	-20.43611845214416	-45.73207336665112	6.685815961059011	3473.538461538461	3633.699633699634	0.4945321992709599	0.2031630170316302	0.4649933949801849
5602.569580078125	-22.19230769230769	-10.84465264519308	20.19417072119234	-25.57449274049289	-23.49855679499201	7.367698134965212	3520.14358974359	3639.560439560439	0.5030376670716888	0.2165450121654501	0.4504623513870542
5622.100830078125	-20.30769230769231	-11.2584529161791	21.69187657818562	-27.95388331024111	-6.432081535662178	12.05195271162334	3509.948717948718	3646.886446886447	0.5054678007290401	0.2201946472019465	0.453104359313078
5641.632080078125	-18.46153846153846	-11.2411467635647	20.90349202438874	-28.71778894921708	-3.056645399163002	15.35865225182707	3508.492307692307	3654.212454212454	0.5054678007290401	0.2201946472019465	0.4504623513870542
5661.163330078125	-18.65384615384615	-11.05565221407896	19.51337993471701	-30.11978866040592	-10.98078396226247	16.10975739392021	3521.6	3657.142857142857	0.5091130012150668	0.2238442822384428	0.4504623513870542
5680.694580078125	-18.34615384615385	-12.30967081357393	18.44507914023527	-31.04244997635199	-14.70136898682063	16.48994142214021	3521.6	3661.538461538461	0.5066828675577156	0.2287104622871046	0.4425363276089828
5700.225830078125	-20.57692307692308	-12.66039754880828	18.98141590195233	-32.31877364086548	-10.42028915289724	17.36184198773682	3518.687179487179	3661.538461538461	0.5042527339003645	0.2262773722627737	0.4504623513870542
5719.757080078125	-19.76923076923077	-12.94276960029562	20.75386463016567	-34.04856207675262	-4.263531805687475	17.44070744556779	3518.687179487179	3661.538461538461	0.5042527339003645	0.2481751824817518	0.4412153236459709
5739.288330078125	-20.15384615384615	-12.31696126131675	18.69421691199113	-33.99491697915619	-1.431357513713542	18.28481926812381	3505.579487179487	3660.07326007326	0.4908869987849331	0.2457420924574209	0.4398943196829591
5758.819580078125	-18.65384615384615	-14.38754850033873	18.80050194001355	-34.94752938464875	-3.305387493282417	17.05111529646468	3525.969230769231	3663.003663003663	0.5091130012150668	0.2469586374695864	0.4438573315719947
5778.350830078125	-18.92307692307692	-14.31754634476812	19.41577877686765	-36.31133400547894	-5.142502288992958	17.04638219471588	3527.425641025641	3660.07326007326	0.5006075334143377	0.2712895377128954	0.4319682959048877
5797.882080078125	-19.65384615384615	-13.64330695325491	17.20380920120712	-35.40753300347992	-5.631215124589442	17.44062032164604	3511.405128205128	3661.538461538461	0.5054678007290401	0.2761557177615572	0.4253632760898283
5817.413330078125	-18.76923076923077	-15.40607870912115	17.91932007144177	-36.32365547196847	-5.150295004554209	16.63826421691904	3523.05641025641	3661.538461538461	0.4896719319562576	0.2785888077858881	0.4266842800528402
5836.944580078125	-19.73076923076923	-16.23308646917534	17.92355422799778	-36.76650393020722	-6.998898443491409	17.4405331977243	3528.882051282051	3661.538461538461	0.4981773997569866	0.2858880778588808	0.4200792602377807
5856.475830078125	-18.65384615384615	-16.49615846523373	18.46176941553243	-38.95800113828016	-6.900042395373493	19.0960897915107	3536.164102564102	3667.399267399267	0.5054678007290401	0.2834549878345499	0.4187582562747688
5876.007080078125	-19.23076923076923	-16.76725996181561	19.13222886001109	-38.91354896642499	-7.33830300993706	20.723915724871	3536.164102564102	3670.32967032967	0.4933171324422843	0.2931873479318735	0.4200792602377807
5895.538330078125	-18.80769230769231	-16.75254819240007	17.97356346615754	-37.18376053053785	-13.49506035714682	20.64505026704003	3515.774358974359	3667.399267399267	0.5018226002430133	0.3065693430656934	0.4108322324966975
5915.069580078125	-17.96153846153846	-18.44912083512964	17.34065714109749	-35.91928387004932	-20.11550485955182	20.15803779010497	3543.446153846154	3668.864468864469	0.4993924665856622	0.316301703163017	0.3949801849405548
5934.600830078125	-18.5	-18.63707119541787	17.66125207858595	-34.58571210472659	-27.15862454539788	22.1150872021239	3539.076923076923	3673.260073260073	0.4945321992709599	0.3090024330900243	0.3949801849405548
5954.132080078125	-18.38461538461539	-19.25061587731724	17.45387078893884	-32.31355455375545	-36.06758063502114	26.08490871877918	3530.338461538461	3684.981684981685	0.4993924665856622	0.3211678832116788	0.3963011889035667
5973.663330078125	-19.26923076923077	-17.81887817946665	17.90544743487097	-33.10864197316798	-36.90923507423786	29.75791243633623	3528.882051282051	3687.912087912088	0.4933171324422843	0.3345498783454988	0.3725231175693527
5993.194580078125	-20.38461538461539	-18.11934162714787	16.73631212662438	-32.55224623823985	-35.92156743330529	33.02753127784526	3559.466666666666	3699.6336996337	0.4957472660996354	0.3333333333333333	0.3857331571994716
6012.725830078125	-20.03846153846154	-19.15163669397056	16.08183469852805	-31.97433611108095	-31.65567217027396	35.92155398634684	3566.748717948718	3706.959706959707	0.5030376670716888	0.3527980535279806	0.3725231175693527
6032.257080078125	-18.46153846153846	-20.21293958243518	15.64697912175894	-29.74492557861035	-36.39429397754884	37.07636345886775	3566.748717948718	3705.494505494505	0.4921020656136087	0.3576642335766423	0.3698811096433289
6051.788330078125	-19.07692307692308	-20.71192338486173	16.21155385847139	-29.81477691187009	-44.36683636773331	37.40549981360463	3550.728205128205	3704.029304029304	0.5030376670716888	0.3637469586374696	0.3540290620871863
6071.319580078125	-19.88461538461539	-19.86063466157541	14.83942538646302	-28.00452082958832	-46.27533227698217	38.59280208960769	3531.794871794872	3701.098901098901	0.4896719319562576	0.3698296836982968	0.3553500660501981
6090.850830078125	-19.73076923076923	-20.85524573504958	16.33920982940198	-29.36178660296099	-43.91094192809932	37.40552885491187	3559.466666666666	3708.424908424908	0.4945321992709599	0.3795620437956205	0.3487450462351387
6110.382080078125	-20.23076923076923	-21.38500030793866	16.40386155077908	-31.12057720346552	-40.57077344174099	37.4565184457805	3544.902564102564	3709.89010989011	0.4981773997569866	0.3759124087591241	0.3368560105680317
6129.913330078125	-22.15384615384615	-22.68873560386771	16.20601096261625	-30.69535836828373	-36.86782224225325	35.44847944289295	3558.010256410256	3702.564102564103	0.4957472660996354	0.3941605839416059	0.3236459709379128
6149.444580078125	-20.61538461538462	-23.21654246474102	16.05789246782041	-28.39268619584415	-26.16975432377402	33.89978033912886	3562.379487179487	3695.238095238095	0.4993924665856622	0.4063260340632603	0.309114927344782
6168.975830078125	-20.84615384615385	-23.43214571657326	15.53036275173985	-27.6534234898472	-29.5607758913957	29.77684484333145	3559.466666666666	3689.377289377289	0.488456865127582	0.4051094890510949	0.3170409511228534
6188.507080078125	-22.19230769230769	-24.14144392437027	15.8029654492825	-26.40534576152556	-28.26322701254499	26.10387016708164	3540.533333333333	3683.516483516483	0.4921020656136087	0.4160583941605839	0.3130779392338177
6208.038330078125	-20.88461538461539	-23.95333959475273	14.7054412760978	-25.54088147131783	-17.11745823022346	21.30872402832931	3528.882051282051	3671.794871794872	0.4933171324422843	0.4111922141119221	0.2919418758256275
6227.569580078125	-20.88461538461539	-24.24819086038061	14.06338917287676	-25.56912740750968	-11.53882951744936	18.50764991767611	3507.035897435897	3661.538461538461	0.4799513973268529	0.4197080291970803	0.2959048877146632
6247.100830078125	-20.34615384615385	-24.50675155509023	12.99142390835745	-27.32450770130496	-0.7345136955213886	16.18426728699661	3523.05641025641	3654.212454212454	0.4750911300121506	0.4294403892944039	0.2787318361955086
6266.632080078125	-18.65384615384615	-24.09454486666256	11.84262794851266	-26.36052275425199	5.810452905449449	16.24007710353579	3507.035897435897	3654.212454212454	0.488456865127582	0.4282238442822385	0.2787318361955086
6286.163330078125	-18.65384615384615	-24.27622867524789	13.23451068547145	-28.63296207118411	3.992619468526823	15.83645989702976	3520.14358974359	3657.142857142857	0.4799513973268529	0.4343065693430657	0.2760898282694848
6305.694580078125	-17.76923076923077	-24.66251462708629	12.43342366200653	-28.60035690335391	1.214994185481649	17.84917391905162	3531.794871794872	3661.538461538461	0.4848116646415552	0.4306569343065694	0.2747688243064729
6325.225830078125	-16.53846153846154	-25.73928373468005	11.19495596477182	-28.18774130062261	-5.816636857137752	18.99922124851648	3534.707692307692	3665.934065934066	0.473876063183475	0.4452554744525548	0.2747688243064729
6344.757080078125	-16.61538461538462	-27.02186364476196	10.01625916117509	-27.41710411768554	-18.04892932850978	18.86919195197339	3531.794871794872	3665.934065934066	0.473876063183475	0.4476885644768857	0.2747688243064729
6364.288330078125	-16.03846153846154	-26.14797222393299	8.052457350495782	-27.17291158013012	-33.11544448580366	17.0834318138004	3504.123076923077	3658.608058608058	0.4678007290400972	0.451338199513382	0.2628797886393659
6383.819580078125	-17.65384615384615	-24.30451284104207	9.802565129026299	-34.03032247114331	-35.32968075227905	13.45639417229068	3537.620512820513	3655.677655677655	0.4702308626974483	0.4635036496350365	0.2509907529722589
6403.350830078125	-20.34615384615385	-24.9809770893638	9.779623698959167	-36.45369075028214	-20.15651683130599	17.3058288820469	3512.861538461538	3658.608058608058	0.4690157958687727	0.4659367396593674	0.2536327608982827
6422.882080078125	-18.15384615384615	-25.26846092258422	10.42304612921106	-38.27810897249587	4.892341927717474	22.88068410083887	3523.05641025641	3671.794871794872	0.4629404617253949	0.4574209245742092	0.2417437252311757
6442.413330078125	-16.26923076923077	-26.38667087516167	10.60277452731416	-38.97291950663764	7.845102880775587	28.63144552999658	3550.728205128205	3686.446886446886	0.4556500607533414	0.4598540145985401	0.2272126816380449
6461.944580078125	-15.42307692307692	-27.29799993841227	11.09230461292111	-37.11413378682333	-2.4274397398538	34.22441796087786	3556.553846153846	3696.703296703297	0.465370595382746	0.4683698296836983	0.2245706737120211
6481.475830078125	-15.88461538461539	-27.73767475518877	10.4606608363614	-37.13640440747962	-14.10088493557808	37.37321233757616	3584.225641025641	3706.959706959707	0.4629404617253949	0.4708029197080292	0.2272126816380449
6501.007080078125	-17.88461538461539	-28.03292634107286	9.915547822873684	-37.09849108308197	-18.74065069473503	40.18357840388347	3560.923076923077	3715.750915750915	0.4386391251518833	0.475669099756691	0.2179656538969617
6520.538330078125	-18.07692307692308	-28.63806429759192	9.595522571903677	-37.43452380859244	-12.59333359680402	41.88106496334237	3466.25641025641	3611.721611721612	0.4471445929526123	0.4841849148418492	0.2153236459709379
6540.069580078125	-18.38461538461539	-29.83831680729199	8.377378826137832	-38.33131150066939	-10.2346875695345	41.09729276992358	3488.102564102564	3613.186813186813	0.433778857837181	0.4975669099756691	0.2034346103038309
6559.600830078125	-16.03846153846154	-29.96564174416456	8.55131797745889	-36.15166129662141	-12.67290828613402	39.82662426479875	3549.271794871795	3709.89010989011	0.433778857837181	0.5060827250608273	0.2073976221928666
6579.132080078125	-16.34615384615385	-30.61391420828971	8.58032579910082	-34.07399313119884	-22.63761806279319	37.66538415884732	3546.358974358974	3709.89010989011	0.4240583232077764	0.5158150851581509	0.190224570673712
6598.663330078125	-16.30769230769231	-30.6323828293404	7.542218390096693	-31.51916618635267	-29.79927601577552	35.52740298333842	3550.728205128205	3701.098901098901	0.4228432563791008	0.51338199513382	0.1928665785997358
6618.194580078125	-17.57692307692308	-30.86974964587054	7.218251524296361	-33.38477251958549	-34.4550280662854	34.6831749955534	3568.205128205128	3699.6336996337	0.4277035236938031	0.5109489051094891	0.1730515191545575
6637.725830078125	-19.34615384615385	-29.52210229722239	6.989730245735049	-33.28544455924382	-25.99746876816986	35.17492057423727	3549.271794871795	3702.564102564103	0.4191980558930741	0.5218978102189781	0.166446499339498
6657.257080078125	-19.07692307692308	-30.22722793619511	7.361396809755497	-35.40803935898612	-13.26292642402677	34.91532868037	3566.748717948718	3701.098901098901	0.4094775212636695	0.5170316301703163	0.1638044914134743
6676.788330078125	-17.46153846153846	-31.00752910020324	8.222608856315821	-34.01039887943565	-8.13979129065623	34.95258362690819	3546.358974358974	3705.494505494505	0.4082624544349939	0.5255474452554745	0.1611624834874505
6696.319580078125	-15.92307692307692	-31.03493564082035	8.054474348709737	-30.54693723848755	-15.32073060242647	33.21348655615653	3553.641025641025	3696.703296703297	0.4082624544349939	0.5316301703163017	0.1585204755614267
6715.850830078125	-16.65384615384615	-30.83954086346	6.707812403769169	-27.62394686276527	-29.07575898346463	30.59772677675219	3555.097435897435	3690.84249084249	0.402187120291616	0.5389294403892945	0.1492734478203435
6735.382080078125	-17.26923076923077	-32.35549208597647	6.197681221900598	-24.15299744943055	-36.71833705648218	29.2621017059703	3534.707692307692	3690.84249084249	0.3948967193195626	0.5352798053527981	0.1373844121532365
6754.913330078125	-16.42307692307692	-32.37533873252448	6.343859703147134	-21.56964280243156	-38.73183419569272	26.35899033096534	3521.6	3682.051282051282	0.3900364520048603	0.5450121654501217	0.1360634081902246
6774.444580078125	-16.96153846153846	-31.68489406910143	5.052395762764057	-21.23721308013391	-39.28493714972714	22.67666561644692	3546.358974358974	3679.120879120879	0.3766707168894289	0.5340632603406327	0.1215323645970938
6793.975830078125	-16.84615384615385	-31.9327615938905	3.868848925294081	-20.03747229284124	-42.68170303896215	18.95723116192654	3531.794871794872	3665.934065934066	0.3863912515188335	0.5535279805352799	0.1136063408190225
6813.507080078125	-15.46153846153846	-31.95711954178728	3.702130935517645	-19.26124518737575	-46.04934645990007	16.05864959951965	3520.14358974359	3660.07326007326	0.3876063183475091	0.5535279805352799	0.1109643328929987
6833.038330078125	-15.61538461538462	-31.8393637987313	3.737420705795405	-17.12339307689922	-48.98037679999192	13.55898118317723	3492.471794871794	3651.282051282051	0.3803159173754556	0.5535279805352799	0.1083223249669749
6852.569580078125	-16.42307692307692	-32.52006990207551	3.96503356531379	-18.63458083313908	-53.24257613535782	9.44983841432475	3520.14358974359	3648.351648351648	0.3778857837181044	0.5462287104622872	0.09379128137384413
6872.100830078125	-16.57692307692308	-31.17055952454271	3.951053150212478	-18.22822231190433	-53.74892279602474	8.216221566587366	3501.210256410256	3639.560439560439	0.3766707168894289	0.5547445255474452	0.09775429326287979
6891.632080078125	-17.11538461538462	-31.90664069717313	2.832034858656156	-18.57923058218804	-46.67832817559907	9.106764126106704	3501.210256410256	3641.025641025641	0.3863912515188335	0.559610705596107	0.08190224570673713
6911.163330078125	-16.5	-32.25756759253557	2.455302703701423	-19.28124712275545	-32.53713893474775	10.88784924514538	3518.687179487179	3643.956043956044	0.3815309842041312	0.5547445255474452	0.0726552179656539
6930.694580078125	-16.23076923076923	-31.24593520970623	3.527529716080557	-20.06543646307211	-26.37628479964216	12.58995274112409	3517.230769230769	3648.351648351648	0.3754556500607533	0.5523114355231144	0.07001321003963013
6950.225830078125	-15.88461538461539	-31.6654323458767	3.002386524604299	-21.29996203401416	-21.60239534222644	14.69085321793828	3530.338461538461	3658.608058608058	0.3754556500607533	0.5632603406326034	0.06737120211360634
6969.757080078125	-15.73076923076923	-32.28666779577508	3.141082096446388	-22.54680907144572	-16.83629860037197	16.38363571695563	3524.51282051282	3661.538461538461	0.3718104495747266	0.551094890510949	0.0726552179656539
6989.288330078125	-16.19230769230769	-31.47919104514381	1.690321487959599	-23.74001101128087	-9.238027566543575	18.920530038529	3509.948717948718	3660.07326007326	0.3657351154313487	0.5547445255474452	0.06208718626155878
7008.819580078125	-16.84615384615385	-32.10212785613106	2.72177742193755	-25.43112989434483	0.6741815951347561	19.03656331897642	3527.425641025641	3665.934065934066	0.3633049817739976	0.5681265206812652	0.05151915455746367
7028.350830078125	-16.76923076923077	-32.78034735480692	3.863521586499969	-25.7632778506815	11.95407407571506	19.15268372334559	3517.230769230769	3663.003663003663	0.3645200486026731	0.5608272506082725	0.047556142668428
7047.882080078125	-14.96153846153846	-33.1225672845969	3.782210383691569	-24.3955884606775	18.92376425407488	17.57605067000466	3512.861538461538	3660.07326007326	0.3657351154313487	0.5644768856447688	0.035667107001321
7067.413330078125	-15.03846153846154	-33.53214109749338	3.183977951592043	-21.76825610428787	18.80357845322113	15.50775916190162	3514.317948717948	3657.142857142857	0.3511543134872417	0.5717761557177615	0.04227212681638045
7086.944580078125	-14.42307692307692	-33.73756697665824	3.224502679066331	-19.20689031198418	15.8434256448322	12.18723785344571	3521.6	3649.81684981685	0.3511543134872417	0.5693430656934306	0.03434610303830912
7106.475830078125	-13.53846153846154	-32.90364599371806	2.951530455133337	-16.17973828181733	11.01538803871815	10.06786963055229	3508.492307692307	3643.956043956044	0.3487241798298906	0.5620437956204379	0.04491413474240423
7126.007080078125	-14.23076923076923	-34.07780070210014	2.736188951160929	-12.69959594274137	6.643244872238089	7.94853044896612	3509.948717948718	3636.630036630037	0.3523693803159174	0.5790754257907543	0.047556142668428
7145.538330078125	-13.65384615384616	-33.53879257251955	2.131936318285398	-9.175001431810243	1.832841091194464	7.457017200740251	3486.646153846154	3636.630036630037	0.3487241798298906	0.5632603406326034	0.03963011889035667
7165.069580078125	-14.23076923076923	-33.84068793496336	2.41901213278315	-5.217225850846153	-2.067822204529102	6.153943016055006	3472.082051282051	3629.304029304029	0.3438639125151883	0.5693430656934306	0.035667107001321
7184.600830078125	-13.26923076923077	-34.31318131428219	2.005219560263596	-4.886501281903133	-6.352998826348336	3.65880441231065	3496.841025641026	3627.838827838828	0.3499392466585662	0.5620437956204379	0.02774108322324967
7204.132080078125	-13.5	-33.4602374207058	1.896486419905155	-1.376407853280696	-12.57169703781768	3.153353230603609	3479.364102564102	3626.373626373626	0.3438639125151883	0.5583941605839417	0.023778071334214
7223.663330078125	-14	-32.98303257991009	1.613167457042557	-0.536393799548434	-14.49987516608488	1.901181512865247	3496.841025641026	3623.443223443223	0.3511543134872417	0.5547445255474452	0.02113606340819023
7243.194580078125	-14	-32.72744349325615	2.295251585884092	2.160033661675402	-15.04273615037969	2.276951893716183	3467.71282051282	3621.978021978022	0.3547995139732685	0.5656934306569343	0.02509907529722589
7262.725830078125	-14.03846153846154	-33.4249322534951	0.6696895978321118	2.137570344515541	-13.65781986663773	1.066535893806834	3491.015384615384	3619.047619047619	0.3523693803159174	0.5571776155717761	0.02113606340819023
7282.257080078125	-14.46153846153846	-33.69215372297838	0.9923015335345201	3.058052044642433	-11.33773655694404	1.080531909902502	3493.928205128205	3617.582417582417	0.3547995139732685	0.5608272506082725	0.03170409511228534
7301.788330078125	-14.23076923076923	-33.11395270062203	0.6976350311018047	4.867833664459658	-10.91466051327254	1.474828119447168	3472.082051282051	3621.978021978022	0.3572296476306197	0.5547445255474452	0.01717305151915456
7321.319580078125	-13.61538461538462	-33.19466342304613	0.2716326907679991	4.37257079951456	-9.531792623478504	-0.5472068995360531	3507.035897435897	3620.51282051282	0.3462940461725395	0.5693430656934306	0.02113606340819023
7340.850830078125	-14.30769230769231	-33.13244441707212	-0.2239329925478844	5.229740013839237	-10.98274655937589	-1.386614661650518	3482.276923076923	3617.582417582417	0.3462940461725395	0.5669099756690997	0.009247027741083224
7360.382080078125	-14.07692307692308	-32.54115600172446	0.7501077785305168	7.419057606093004	-12.48210432235827	-2.647991211121247	3469.169230769231	3616.117216117216	0.3462940461725395	0.5656934306569343	0.02113606340819023
7379.913330078125	-14.69230769230769	-33.47587300609719	0.02441953562850285	7.340295113053001	-12.99829209253435	-5.101345055729342	3479.364102564102	3611.721611721612	0.3402187120291616	0.5656934306569343	0.01981505944517834
7399.444580078125	-14.57692307692308	-33.511262856439	-0.2445494857424402	7.739165861901133	-13.04299999195393	-6.738433903436509	3479.364102564102	3604.395604395604	0.3438639125151883	0.5571776155717761	0.02509907529722589
7418.975830078125	-14.11538461538462	-33.29715310710107	0.1268861242840427	8.155191771341679	-12.6104836990037	-7.962758795519779	3479.364102564102	3601.465201465201	0.3511543134872417	0.5656934306569343	0.02774108322324967
7438.507080078125	-14.23076923076923	-33.01849171645009	-0.2292603313419965	8.598040229580438	-10.7618802600665	-8.76502777632504	3458.974358974359	3595.604395604395	0.3523693803159174	0.5583941605839417	0.023778071334214
7458.038330078125	-13.73076923076923	-33.11462246720453	0.2311233602266429	8.61254131188913	-9.353585829640782	-8.751089842843868	3460.430769230769	3595.604395604395	0.3547995139732685	0.5608272506082725	0.02113606340819023
7477.569580078125	-14.07692307692308	-33.1801287183593	0.006435917965141424	7.269776620825147	-5.580901050332216	-9.92442514405851	3474.994871794872	3598.534798534799	0.3560145808019441	0.5644768856447688	0.01849405548216645
7497.100830078125	-13.38461538461539	-33.57492147564206	-0.177003140974318	8.173103160359624	-3.738041933008345	-10.32319308358674	3464.8	3594.139194139194	0.3450789793438639	0.5705596107055961	0.01981505944517834
7516.632080078125	-13.46153846153846	-33.38170536429144	-0.1455010161975736	8.170449082075901	-2.806971694952453	-10.72201910572947	3450.235897435897	3589.743589743589	0.3438639125151883	0.5669099756690997	0.023778071334214
7536.163330078125	-13.19230769230769	-33.31698435671614	0.1953716819609535	7.68750768362032	-1.416311089597161	-12.33593614691585	3562.379487179487	3696.703296703297	0.3523693803159174	0.5620437956204379	0.02509907529722589
7555.694580078125	-14.07692307692308	-32.90991254542095	-0.04283426741393126	7.224375524040877	-0.4794965299279383	-13.13826321033561	3559.466666666666	3695.238095238095	0.3596597812879708	0.5620437956204379	0.03170409511228534
7575.225830078125	-13.11538461538462	-33.32543727289524	0.5410944139927327	7.221721445757154	0.4515737081279536	-13.53708923247833	3549.271794871795	3689.377289377289	0.3560145808019441	0.5705596107055961	0.02642007926023778
7594.757080078125	-12.69230769230769	-32.66636386031902	-0.1433454455872389	5.886918989544342	1.431047773268843	-13.5139464672648	3556.553846153846	3690.84249084249	0.3657351154313487	0.5705596107055961	0.023778071334214
7614.288330078125	-14.03846153846154	-33.14701761409127	0.2354960891790356	6.379527776205718	0.9792501215306948	-11.8907374704243	3447.323076923077	3588.278388278388	0.3633049817739976	0.5547445255474452	0.03038309114927345
7633.819580078125	-12.46153846153846	-33.83032579910082	0.1316745704255713	5.057046786482422	1.966516902232835	-11.45947672741392	3469.169230769231	3592.673992673992	0.3693803159173754	0.5656934306569343	0.02245706737120212
7653.350830078125	-13.26923076923077	-32.74423384861736	0.4809232000985403	3.3260276597052	2.059628628737421	-9.400419092350493	3476.451282051281	3597.069597069597	0.3633049817739976	0.5535279805352799	0.035667107001321
7672.882080078125	-12.84615384615385	-32.66793434747798	0.08902506620681172	4.719783370081879	2.050188379458679	-7.781797990722557	3464.8	3601.465201465201	0.3596597812879708	0.5547445255474452	0.02774108322324967
7692.413330078125	-13.38461538461539	-32.71038369156864	0.826876886124284	2.946966149733207	1.650490482470939	-6.951740266876703	3482.276923076923	3602.930402930403	0.3681652490886999	0.551094890510949	0.023778071334214
7711.944580078125	-14	-32.92452423477243	0.6108271232370511	3.44440863049748	1.668124307541362	-5.323885292209152	3476.451282051281	3605.860805860806	0.3718104495747266	0.559610705596107	0.03830911492734478
7731.475830078125	-12.42307692307692	-33.22059955656833	0.3761316745704257	2.56525056147749	2.172422574260349	-4.90188746354564	3498.297435897436	3613.186813186813	0.3693803159173754	0.5644768856447688	0.035667107001321
7751.007080078125	-13.26923076923077	-33.21076091642544	0.730353513580095	3.040704187546451	1.243400730152378	-3.691442422329042	3473.538461538461	3610.25641025641	5.164034021871203	0.5535279805352799	0.03434610303830912
7770.538330078125	-13.26923076923077	-33.0529423538831	0.5317330787707091	3.082502281117902	1.736210353644703	-2.462442511111466	3470.625641025641	3614.652014652014	0.3693803159173754	0.5644768856447688	0.04623513870541612
7790.069580078125	-14.23076923076923	-32.18320810494549	0.3142514011208968	2.181355357402599	1.293852951185296	-2.457854615898907	3504.123076923077	3617.582417582417	0.3596597812879708	0.5583941605839417	0.03434610303830912
7809.600830078125	-12.80769230769231	-33.10442969760423	0.721484880211862	3.104965598277762	0.3512940699027422	-1.252026511202117	3483.733333333333	3620.51282051282	0.3681652490886999	0.5571776155717761	0.02906208718626156
7829.132080078125	-13.73076923076923	-31.9305983248137	0.6453008560694711	2.661642677574457	0.8342625838858959	-1.242763596855253	3480.820512820513	3620.51282051282	0.3596597812879708	0.5656934306569343	0.04095112285336856
7848.663330078125	-12.57692307692308	-32.9642714171337	1.17510931822381	2.66429675585818	-0.09680765416999591	-0.8439375747125265	3485.189743589744	3620.51282051282	0.3633049817739976	0.5620437956204379	0.01849405548216645
7868.194580078125	-13.76923076923077	-32.50106238837224	0.3608117263041204	2.65680898347156	0.3648311070773244	-1.24740957468231	3491.015384615384	3619.047619047619	0.3633049817739976	0.5583941605839417	0.035667107001321
7887.725830078125	-14.30769230769231	-31.72593459382891	0.6044219991377717	3.563264063754308	-1.054951966575052	-0.454345425609416	3485.189743589744	3620.51282051282	0.3730255164034022	0.5559610705596108	0.02113606340819023
7907.257080078125	-13.96153846153846	-32.98533442138326	-0.2332789308369774	3.102785982458588	-1.049207644961721	-0.8578464668864478	3493.928205128205	3620.51282051282	0.3778857837181044	0.5498783454987835	0.03302509907529723
7926.788330078125	-13.73076923076923	-32.69428619818932	0.3681560633121883	4.018908450947131	-1.530127764996955	-0.05549036215944087	3477.907692307692	3624.908424908425	0.3827460510328068	0.5583941605839417	0.03830911492734478
7946.319580078125	-14.42307692307692	-32.15630196464864	-0.8387479214140543	3.085630821866173	-1.526431837331544	-1.270610422510344	3492.471794871794	3617.582417582417	0.3718104495747266	0.5583941605839417	0.035667107001321
7965.850830078125	-13.57692307692308	-32.78740684855577	-0.8988883414423849	3.974930741556506	-3.423439103353744	-0.8903102290613473	3473.538461538461	3619.047619047619	0.3827460510328068	0.5547445255474452	0.02245706737120212
7985.382080078125	-15.38461538461539	-31.41205271909836	-0.5512101989283733	3.536441514956098	-2.471039112562018	-0.8764013368874259	3469.169230769231	3617.582417582417	0.3778857837181044	0.5462287104622872	0.02906208718626156
8004.913330078125	-14.03846153846154	-33.03000092381598	0.1538923446449469	3.092644131788245	0.3435013543414909	-1.660144488998957	3493.928205128205	3617.582417582417	0.3608748481166464	0.5583941605839417	0.02642007926023778
8024.444580078125	-14.19230769230769	-32.38567007452116	0.7835037260577693	2.661642677574457	0.8342625838858959	-1.242763596855253	3488.102564102564	3617.582417582417	0.3681652490886999	0.5608272506082725	0.03302509907529723
8043.975830078125	-14.5	-32.21944478659852	0.4722393299254789	1.770163142064949	1.330768135043632	-1.22888374598858	3492.471794871794	3619.047619047619	0.3608748481166464	0.5498783454987835	0.0369881109643329
8063.507080078125	-14.38461538461539	-33.34262794851266	0.7467820410174294	1.307505444950055	-0.06398925820750048	-1.238204742949943	3492.471794871794	3617.582417582417	0.3633049817739976	0.5559610705596108	0.04359313077939234
8083.038330078125	-14.76923076923077	-31.97699698220115	0.1575414177495842	2.662117140039005	-1.497309369034459	-0.4497575303968571	3470.625641025641	3617.582417582417	0.3669501822600243	0.5523114355231144	0.03302509907529723
8102.569580078125	-14.42307692307692	-32.55046344768122	-0.3614430005542895	1.743340593266739	-0.08531901094333398	-1.65093965726659	3492.471794871794	3619.047619047619	0.3730255164034022	0.5523114355231144	0.04227212681638045
8122.100830078125	-15.23076923076923	-32.44130689166718	0.7576522756666873	2.186663513970045	-0.5682875249264878	-1.660202571613455	3482.276923076923	3617.582417582417	0.3693803159173754	0.5620437956204379	0.02774108322324967
8141.632080078125	-14.92307692307692	-32.44278499722855	0.5238652460429882	2.216140141051977	-0.08327061699541369	-0.8393206381927187	3480.820512820513	3620.51282051282	0.3645200486026731	0.5620437956204379	0.04227212681638045
8161.163330078125	-14.42307692307692	-32.09702377286444	1.966573258606886	2.654629367652385	-1.035670607787139	-0.8532295303666401	3463.343589743589	3617.582417582417	0.3681652490886999	0.5632603406326034	0.03302509907529723
8180.694580078125	-14.19230769230769	-32.68668011332143	0.4493902814559341	1.721351738571427	-1.031974680121728	-2.068349590717543	3489.558974358974	3614.652014652014	0.3742405832320777	0.559610705596107	0.03963011889035667
8200.225830078125	-14.69230769230769	-32.53204101742934	0.9097431791587118	2.174342047480527	-0.576080240487739	-2.068320549410295	3499.753846153846	3614.652014652014	0.3657351154313487	0.5535279805352799	0.02774108322324967
8219.757080078125	-14.73076923076923	-32.40733355915502	0.4820625731354312	2.610177195797212	-0.5974099932235725	-2.481055463726942	3486.646153846154	3617.582417582417	0.370595382746051	0.559610705596107	0.04359313077939234
8239.288330078125	-14.15384615384616	-32.50652829956273	1.018722670444048	3.511324119512514	-0.1550525907641654	-2.485643358939501	3470.625641025641	3616.117216117216	0.3718104495747266	0.5547445255474452	0.04095112285336856
8258.819580078125	-13.92307692307692	-32.39023526513519	0.7425324875284842	3.979289973194855	-0.6224356736248168	-1.678670317692686	3453.148717948718	3614.652014652014	0.3791008505467801	0.5608272506082725	0.03963011889035667
8278.350830078125	-14.30769230769231	-32.14396132290448	0.3519122990700254	2.595201651023971	0.3258675292710681	-3.287999463666508	3485.189743589744	3616.117216117216	0.3718104495747266	0.5620437956204379	0.0369881109643329
8297.882080078125	-13.15384615384616	-32.93205333497567	0.1411282872451809	3.087810437685347	-0.1259301224670807	-1.664790466826014	3477.907692307692	3619.047619047619	0.3681652490886999	0.5535279805352799	0.03302509907529723
8317.413330078125	-15.42307692307692	-31.62068885877933	0.3036737081973271	2.610177195797212	-0.5974099932235725	-2.481055463726942	3476.451282051281	3616.117216117216	0.3681652490886999	0.551094890510949	0.035667107001321
8336.944580078125	-14.19230769230769	-32.84295898257067	0.5710260516105192	2.622498662286729	-0.5896172776623212	-2.072937485930102	3467.71282051282	3611.721611721612	0.3681652490886999	0.5498783454987835	0.04359313077939234
8356.475830078125	-14.88461538461539	-31.73913746381721	-0.08158834760115785	2.166854275093907	-0.1144414792404187	-2.471792549380078	3483.733333333333	3617.582417582417	0.370595382746051	0.5535279805352799	0.04359313077939234
8376.007080078125	-14.96153846153846	-32.33039508529901	0.7120619572581141	1.263053273094881	0.374271356356066	-2.866030676310245	3486.646153846154	3614.652014652014	0.3669501822600243	0.5583941605839417	0.03170409511228534
8395.538330078125	-14.15384615384616	-32.29174108517583	-0.1052534335160436	1.731019126777222	-0.09311172650458524	-2.05905763506343	3464.8	3611.721611721612	0.3766707168894289	0.5681265206812652	0.03434610303830912
8415.069580078125	-14.26923076923077	-31.81137987312927	0.9920705795405556	0.8272181247781963	0.3956011090918995	-2.453295761993597	3489.558974358974	3616.117216117216	0.370595382746051	0.5583941605839417	0.04095112285336856
8434.600830078125	-14.19230769230769	-32.84064944263103	0.4555490546283181	0.3790615099719937	0.4091381462664818	-2.44867882547379	3489.558974358974	3616.117216117216	0.3620899149453219	0.5523114355231144	0.03830911492734478
8454.132080078125	-13.88461538461539	-32.57191137525405	0.1724918396255466	0.8395395912677141	0.4033938246531508	-2.045177784196758	3474.994871794872	3613.186813186813	0.3657351154313487	0.5498783454987835	0.023778071334214
8473.663330078125	-14.57692307692308	-32.46350157048716	1.213540062819487	0.3838952040748912	0.8785696230750534	-2.444032847646733	3491.015384615384	3619.047619047619	0.3681652490886999	0.5498783454987835	0.03302509907529723
8493.194580078125	-14.61538461538462	-31.9338547761286	1.692738806429759	0.8540406735764062	1.811688255078866	-2.031239850715587	3480.820512820513	3614.652014652014	0.3730255164034022	0.5559610705596108	0.04227212681638045
8512.725830078125	-13.61538461538462	-32.32242717250724	0.8905893945925971	0.8245640464944735	1.326671347147792	-2.852121784136323	3505.579487179487	3617.582417582417	0.3730255164034022	0.5474452554744526	0.04359313077939234
8532.257080078125	-15.11538461538462	-32.5521417133707	2.337854899304059	1.740686514983017	0.8457512271125578	-2.049765679409316	3482.276923076923	3611.721611721612	0.3754556500607533	0.5523114355231144	0.03963011889035667
8551.788330078125	-14.30769230769231	-33.03775327954672	0.810740900412638	2.627332356389627	-0.1201858008537497	-2.068291508103046	3472.082051282051	3613.186813186813	0.370595382746051	0.5644768856447688	0.02906208718626156
8571.319580078125	-13.92307692307692	-32.59809385970315	1.520077600541972	2.159366502707286	0.3471972820069015	-2.87526454934986	3499.753846153846	3616.117216117216	0.3681652490886999	0.5559610705596108	0.035667107001321
8590.850830078125	-14.5	-32.74063096631151	1.531548315575537	3.065821582990035	-1.072585791645475	-2.082200400276967	3479.364102564102	3619.047619047619	0.3730255164034022	0.5535279805352799	0.03830911492734478
8610.382080078125	-15.34615384615385	-32.52139403830758	1.031240376916918	3.092644131788245	0.3435013543414909	-1.660144488998957	3479.364102564102	3620.51282051282	0.3791008505467801	0.5669099756690997	0.03038309114927345
8629.913330078125	-13.88461538461539	-33.08847847508776	1.000846831311203	2.649321211084939	0.8264698683246446	-1.650881574652093	3485.189743589744	3620.51282051282	0.3596597812879708	0.5608272506082725	0.02509907529722589
8649.444580078125	-14.61538461538462	-32.56666871959105	0.6411282872451809	2.171687969196804	0.3549899975681528	-2.467146571553021	3485.189743589744	3616.117216117216	0.370595382746051	0.5523114355231144	0.04491413474240423
8668.975830078125	-14.92307692307692	-32.78921598817515	0.5377224856808522	2.600035345126869	0.7952990060796397	-3.283353485839451	3505.579487179487	3617.582417582417	0.3742405832320777	0.5559610705596108	0.03830911492734478
8688.507080078125	-13.96153846153846	-32.18700344891298	0.2347878302642115	2.617190505719284	1.272523198449463	-2.870589530215555	3493.928205128205	3617.582417582417	0.3827460510328068	0.5535279805352799	0.03302509907529723
8708.038330078125	-13.73076923076923	-32.47564975056969	0.9747952207920183	3.969148122524512	0.7702733256783955	-2.480968339805195	3467.71282051282	3616.117216117216	0.3681652490886999	0.5523114355231144	0.03434610303830912
8727.569580078125	-13.38461538461539	-32.31776190182916	0.42655662991932	3.058333810603414	-0.6109470303981547	-2.48567240024675	3493.928205128205	3617.582417582417	0.3730255164034022	0.5462287104622872	0.04491413474240423
8747.100830078125	-13.80769230769231	-31.96294728090165	0.416594814312989	2.612831274080934	-1.528480231279465	-2.082229441584216	3488.102564102564	3620.51282051282	0.370595382746051	0.551094890510949	0.04359313077939234
8766.632080078125	-14.42307692307692	-32.83299716696434	0.303704502063189	2.625152740570452	-1.520687515718213	-1.674111463787376	3469.169230769231	3616.117216117216	0.3693803159173754	0.5547445255474452	0.03302509907529723
8786.163330078125	-14.5	-32.47657356654555	-0.132860134261255	2.179175741583424	-0.1066487636791675	-2.063674571583238	3485.189743589744	3613.186813186813	0.3730255164034022	0.5474452554744526	0.04491413474240423
8805.694580078125	-13.03846153846154	-32.55172599618157	0.2401459629241858	1.300017672563434	0.3976495030398198	-1.641676742919726	3495.384615384615	3620.51282051282	0.3645200486026731	0.5547445255474452	0.03170409511228534
8825.225830078125	-14.69230769230769	-32.49431853174848	0.9466958181930162	0.8518610577572318	0.411186540214402	-1.637059806399918	3492.471794871794	3619.047619047619	0.3778857837181044	0.5486618004866181	0.03302509907529723
8844.757080078125	-14.61538461538462	-32.93465541664101	-0.1903060910266674	1.290350284357639	-0.5412134505773234	-1.650968698573839	3495.384615384615	3620.51282051282	0.3827460510328068	0.5523114355231144	0.0488771466314399
8864.288330078125	-13.96153846153846	-32.06921691199113	0.1146917534027223	1.290824746822188	-2.872785403497679	-0.8579626321154434	3473.538461538461	3617.582417582417	0.3693803159173754	0.5583941605839417	0.0369881109643329
8883.819580078125	-14.57692307692308	-32.63748691260701	0.2974225534273574	0.3843696665394395	-1.453002329845302	-1.651026781188337	3492.471794871794	3621.978021978022	0.3718104495747266	0.5535279805352799	0.035667107001321
8903.350830078125	-14.53846153846154	-32.29027837654739	0.2062265196772803	0.8620029084275749	-0.9815224590888101	-0.8347617842874087	3483.733333333333	3620.51282051282	0.3730255164034022	0.5523114355231144	0.03170409511228534
8922.882080078125	-14.5	-32.90922738190553	0.3459844798916056	-0.03696439946855311	-0.02337814668375379	-1.224353933390519	3482.276923076923	3619.047619047619	0.3669501822600243	0.551094890510949	0.03302509907529723
8942.413330078125	-14.42307692307692	-32.52428866169859	0.2528946233910208	-0.4802873201718583	0.4595903672994	-1.215091019043655	3495.384615384615	3620.51282051282	0.3730255164034022	0.5547445255474452	0.03302509907529723
8961.944580078125	-14.53846153846154	-32.61207427480446	0.9114060479152555	-0.02947662708193283	-0.4850169079310741	-0.8208819334207362	3493.928205128205	3620.51282051282	0.370595382746051	0.559610705596107	0.03830911492734478
8981.475830078125	-14	-32.61812526944632	0.6754942415470839	-0.9332776290809582	0.00369592766541068	-1.215120060350903	3508.492307692307	3620.51282051282	0.3657351154313487	0.5620437956204379	0.04227212681638045
9001.007080078125	-14.88461538461539	-32.54670659604606	-0.08774712077354163	0.4015248271318546	-0.9757781374754792	-1.238262825564441	3485.189743589744	3619.047619047619	0.3754556500607533	0.5571776155717761	0.04359313077939234
9020.538330078125	-13.5	-32.94905924739792	1.337577754511301	0.8448477478351597	-1.458746651458633	-1.247525739911305	3477.907692307692	3619.047619047619	0.3693803159173754	0.5450121654501217	0.03170409511228534
9040.069580078125	-14.38461538461539	-32.21403276467328	0.08625361827923883	0.8620029084275749	-0.9815224590888101	-0.8347617842874087	3486.646153846154	3619.047619047619	0.3669501822600243	0.5547445255474452	0.03302509907529723
9059.600830078125	-14.5	-32.27025466527068	1.089656340456981	1.310159523233777	-0.9950594962633924	-0.8393787208072164	3483.733333333333	3614.652014652014	0.3754556500607533	0.5535279805352799	0.0369881109643329
9079.132080078125	-13.69230769230769	-32.40404631397426	1.202315698712816	1.30532582913088	-1.464490973071964	-0.8440246986342732	3474.994871794872	3614.652014652014	0.3730255164034022	0.551094890510949	0.03434610303830912
9098.663330078125	-14.19230769230769	-33.02310309786291	-0.03715279916240677	2.228936070006044	-2.407049854354518	0.3618034060625168	3460.430769230769	3619.047619047619	0.3778857837181044	0.5571776155717761	0.03302509907529723
9118.194580078125	-14.46153846153846	-32.44346246227752	0.09620003695263923	1.322480989723295	-0.9872667807021411	-0.4312607430103768	3495.384615384615	3620.51282051282	0.3645200486026731	0.5547445255474452	0.02509907529722589
9137.725830078125	-13.57692307692308	-32.84899458027961	0.2574213216727228	1.327314683826192	-0.5178353038935696	-0.42661476518332	3483.733333333333	3617.582417582417	0.3730255164034022	0.5583941605839417	0.02774108322324967
9157.257080078125	-14.23076923076923	-32.39029685286691	1.053304181806984	1.314993217336675	-0.5256280194548209	-0.8347327429801598	3496.841025641026	3620.51282051282	0.370595382746051	0.5644768856447688	0.03302509907529723
9176.788330078125	-14.34615384615385	-31.95381689967359	0.4985372913715589	2.2187942193357	-1.014340855051305	-0.4404946160499925	3473.538461538461	3619.047619047619	0.3730255164034022	0.5535279805352799	0.0488771466314399
9196.319580078125	-14.19230769230769	-32.84603836915687	0.7249953809201207	2.20381867456246	-0.09106333255666496	-1.247438615989558	3504.123076923077	3619.047619047619	0.3742405832320777	0.5547445255474452	0.02906208718626156
9215.850830078125	-15	-33.01479645254666	0.3552072427172508	2.2187942193357	-1.014340855051305	-0.4404946160499925	3483.733333333333	3614.652014652014	0.3815309842041312	0.5450121654501217	0.01981505944517834
9235.382080078125	-14.61538461538462	-32.83919443246905	0.8058754696064545	2.231115685825218	-1.006548139490054	-0.03237663825315272	3477.907692307692	3623.443223443223	0.3766707168894289	0.5523114355231144	0.03434610303830912
9254.913330078125	-14.42307692307692	-33.03392714171337	0.7348186241300735	1.772817220348672	0.3996978969877401	-0.8300577238458541	3489.558974358974	3621.978021978022	0.3803159173754556	0.5535279805352799	0.02642007926023778
9274.444580078125	-14.73076923076923	-32.1617524789062	-0.2585299008437521	2.201639058743285	-1.491565047421129	-0.853258571673889	3488.102564102564	3620.51282051282	0.3803159173754556	0.5474452554744526	0.04227212681638045
9293.975830078125	-14.53846153846154	-32.10166594814313	0.3909897148488022	2.186663513970045	-0.5682875249264878	-1.660202571613455	3492.471794871794	3619.047619047619	0.3754556500607533	0.5571776155717761	0.03038309114927345
9313.507080078125	-14.92307692307692	-32.56596046067623	0.9134076491962802	1.755662059756257	-0.07752629538208272	-1.24282167946975	3495.384615384615	3620.51282051282	0.3730255164034022	0.5620437956204379	0.0369881109643329
9333.038330078125	-15.03846153846154	-32.18413961938781	1.168519430929359	2.186663513970045	-0.5682875249264878	-1.660202571613455	3467.71282051282	3616.117216117216	0.3596597812879708	0.559610705596107	0.02774108322324967
9352.569580078125	-14.5	-32.22637340641744	0.8186703208720824	1.253385884889086	-0.5645915972610771	-2.875322631964358	3499.753846153846	3614.652014652014	0.3742405832320777	0.5620437956204379	0.02245706737120212
9372.100830078125	-14.80769230769231	-32.57055644515612	1.027822257806245	2.615010889900109	-0.127978516415001	-2.476409485899886	3469.169230769231	3610.25641025641	0.3669501822600243	0.5498783454987835	0.03170409511228534
9391.632080078125	-15.15384615384616	-32.02326476565868	0.9324690521648088	2.639179360414596	2.219178867627857	-2.453179596764602	3480.820512820513	3617.582417582417	0.3669501822600243	0.5474452554744526	0.02906208718626156
9411.163330078125	-14.5	-32.21636540001232	0.3182700006158774	2.639179360414596	2.219178867627857	-2.453179596764602	3479.364102564102	3614.652014652014	0.370595382746051	0.5523114355231144	0.02906208718626156
9430.694580078125	-14.57692307692308	-33.26568177619019	0.9379349633552998	2.598330191772242	-2.936774661705179	-2.096167375065386	3469.169230769231	3614.652014652014	0.3657351154313487	0.5498783454987835	0.02774108322324967
9450.225830078125	-14.5	-32.76911529223379	1.032687688612429	2.597855729307694	-0.6052027087848237	-2.889173441523782	3489.558974358974	3614.652014652014	0.3681652490886999	0.5523114355231144	0.03038309114927345
9469.757080078125	-14.46153846153846	-32.02081665332266	0.1177557430559835	3.038524571727276	-0.1571009847120857	-3.297262378013373	3483.733333333333	3616.117216117216	0.3754556500607533	0.5620437956204379	0.03302509907529723
9489.288330078125	-15.03846153846154	-31.93316961261317	0.1584806306583728	3.516157813615412	0.3143788860444061	-2.480997381112444	3466.25641025641	3616.117216117216	0.3608748481166464	0.5571776155717761	0.03170409511228534
9508.819580078125	-14	-32.33944078339595	0.2028084005666071	2.649321211084939	0.8264698683246446	-1.650881574652093	3485.189743589744	3619.047619047619	0.3730255164034022	0.5498783454987835	0.03434610303830912
9528.350830078125	-14.03846153846154	-32.27401151690583	0.8159604606762333	2.669130449961077	0.3726238226385756	-0.8392915968854698	3480.820512820513	3616.117216117216	0.3827460510328068	0.5656934306569343	0.03038309114927345
9547.882080078125	-14.46153846153846	-32.34184270493318	0.7844429389665579	2.228461607541495	-0.07547790143416243	-0.431202660395879	3473.538461538461	3619.047619047619	0.3742405832320777	0.5535279805352799	0.03302509907529723
9567.413330078125	-14.26923076923077	-32.5943139126686	-0.2458428281086407	1.33214837792909	-0.04840382708499796	-0.4219687873562633	3491.015384615384	3619.047619047619	0.3718104495747266	0.5571776155717761	0.03038309114927345
9586.944580078125	-14.26923076923077	-32.44650335653138	0.05593705733817833	2.233295301644393	0.3939535753744091	-0.4265566825688222	3464.8	3616.117216117216	0.3633049817739976	0.5498783454987835	0.04227212681638045
9606.475830078125	-14.53846153846154	-32.79144854345014	0.264734864814929	1.331673915464542	2.283168125835357	-1.214974853814659	3493.928205128205	3619.047619047619	0.3803159173754556	0.5425790754257908	0.03302509907529723
9626.007080078125	-14.03846153846154	-32.57656124899919	0.5588316807291989	1.319352448975024	2.275375410274106	-1.623092831611499	3492.471794871794	3617.582417582417	0.3681652490886999	0.5474452554744526	0.035667107001321
9645.538330078125	-14.03846153846154	-32.66201422676603	0.985326722916795	2.20381867456246	-0.09106333255666496	-1.247438615989558	3464.8	3616.117216117216	0.3681652490886999	0.5571776155717761	0.03830911492734478
9665.069580078125	-13.73076923076923	-32.29242624869126	-0.4940721808215804	1.743340593266739	-0.08531901094333398	-1.65093965726659	3502.666666666666	3619.047619047619	0.3645200486026731	0.5523114355231144	0.02642007926023778
9684.600830078125	-14.5	-32.63824136232063	0.2582219621851329	2.649795673549487	-1.505102084595711	-0.8578755081936967	3479.364102564102	3616.117216117216	0.3523693803159174	0.5583941605839417	0.04359313077939234
9704.132080078125	-14.69230769230769	-33.06939397671984	0.8543142206072553	3.095298210071968	-0.587568883714401	-1.261318466856231	3482.276923076923	3619.047619047619	0.3633049817739976	0.5486618004866181	0.035667107001321
9723.663330078125	-14.57692307692308	-32.42423939151322	-0.7495688858779328	2.651975289368662	-0.1046003697312472	-1.252055552509366	3491.015384615384	3617.582417582417	0.370595382746051	0.5547445255474452	0.03170409511228534
9743.194580078125	-14.80769230769231	-32.83461384492209	0.7691537845661145	3.563264063754308	-1.054951966575052	-0.454345425609416	3466.25641025641	3614.652014652014	0.370595382746051	0.5669099756690997	0.03830911492734478
9762.725830078125	-13.84615384615385	-32.46720453285705	0.6679189505450516	2.216140141051977	-0.08327061699541369	-0.8393206381927187	3496.841025641026	3620.51282051282	0.3742405832320777	0.5547445255474452	0.03434610303830912
9782.257080078125	-14.46153846153846	-33.03239514688674	0.6966804212600852	2.6717845282448	-0.5584464154173162	-0.4404655747427436	3485.189743589744	3617.582417582417	0.3742405832320777	0.551094890510949	0.03434610303830912
9801.788330078125	-14.5	-32.75987713247521	0.5707797006836239	3.127428915437623	-1.033622213839219	-0.04161051129276842	3479.364102564102	3623.443223443223	0.3681652490886999	0.551094890510949	0.02642007926023778
9821.319580078125	-13.46153846153846	-32.9690675617417	0.3764550101619757	2.228461607541495	-0.07547790143416243	-0.431202660395879	3495.384615384615	3620.51282051282	0.370595382746051	0.5559610705596108	0.02642007926023778
9840.850830078125	-14.69230769230769	-32.49200899180884	0.831218821210815	2.66429675585818	-0.09680765416999591	-0.8439375747125265	3479.364102564102	3620.51282051282	0.370595382746051	0.5559610705596108	0.02906208718626156
9860.382080078125	-14.92307692307692	-33.22340949682823	1.093551764488514	3.119941143051003	-0.5719834525918984	-0.4450825112625514	3479.364102564102	3619.047619047619	0.3608748481166464	0.551094890510949	0.03830911492734478
9879.913330078125	-14.69230769230769	-31.79683746997598	-1.235049578124038	3.1247748371539	-0.1025519757833269	-0.4404365334354947	3474.994871794872	3619.047619047619	0.3633049817739976	0.5644768856447688	0.04095112285336856
9899.444580078125	-14.15384615384616	-32.53424277883846	0.4813697111535383	2.216140141051977	-0.08327061699541369	-0.8393206381927187	3493.928205128205	3619.047619047619	0.3778857837181044	0.5608272506082725	0.04623513870541612
9918.975830078125	-14.34615384615385	-32.74137001909219	1.414654800763688	3.563264063754308	-1.054951966575052	-0.454345425609416	3470.625641025641	3616.117216117216	0.3693803159173754	0.5583941605839417	0.03170409511228534
9938.507080078125	-14.34615384615385	-33.15246812834883	0.8157141097493381	2.208652368665357	0.3783681442519066	-1.242792638162502	3493.928205128205	3620.51282051282	0.3742405832320777	0.5620437956204379	0.035667107001321
9958.038330078125	-14.5	-32.7629565190614	0.7247490299932254	3.129608531256798	0.3668795010252447	-0.4357905556084379	3476.451282051281	3617.582417582417	0.3596597812879708	0.5608272506082725	0.0369881109643329
9977.569580078125	-14.42307692307692	-32.68826599741331	0.7594537168196096	2.208652368665357	0.3783681442519066	-1.242792638162502	3482.276923076923	3619.047619047619	0.3742405832320777	0.5656934306569343	0.03830911492734478
9997.100830078125	-14.42307692307692	-32.56663022725873	0.4468959783211186	2.208652368665357	0.3783681442519066	-1.242792638162502	3482.276923076923	3620.51282051282	0.3791008505467801	0.5535279805352799	0.03038309114927345
10016.63208007813	-14.5	-32.3988190552442	-0.1744318531748477	2.240783074031013	-0.06768518587291117	-0.02308468259903924	3473.538461538461	3620.51282051282	0.3766707168894289	0.551094890510949	0.04227212681638045
10036.16333007813	-14.26923076923077	-32.32640727966989	-0.1796360165055122	1.307505444950055	-0.06398925820750048	-1.238204742949943	3493.928205128205	3617.582417582417	0.3742405832320777	0.5656934306569343	0.04227212681638045
10055.69458007813	-14.88461538461539	-32.41352312619327	0.9453870788938842	2.174342047480527	-0.576080240487739	-2.068320549410295	3477.907692307692	3614.652014652014	0.3584447144592952	0.5608272506082725	0.0369881109643329
10075.22583007813	-15.11538461538462	-32.44205364291433	0.6796052226396503	1.725710970209776	1.769028749607199	-2.856709679348882	3504.123076923077	3617.582417582417	0.370595382746051	0.5608272506082725	0.03038309114927345
10094.75708007813	-13.42307692307692	-32.09836330602944	1.033549916856562	2.191022745608394	2.232715904802439	-2.448562660244794	3493.928205128205	3617.582417582417	0.3669501822600243	0.5583941605839417	0.03434610303830912
10114.28833007813	-14.11538461538462	-32.50883014103592	1.095353205641436	3.112453370664383	-0.1103446913445781	-0.8485545112323344	3470.625641025641	3619.047619047619	0.3730255164034022	0.5559610705596108	0.02774108322324967
10133.81958007813	-13.88461538461539	-32.56652244872821	-0.09695448666625595	1.251206269069912	-1.965093312125541	-2.481142587648689	3504.123076923077	3617.582417582417	0.3645200486026731	0.5498783454987835	0.04359313077939234
10153.35083007813	-14.65384615384616	-32.36959567654124	0.4413222886001109	3.06364196717086	-2.473087506509939	-1.688020355961298	3466.25641025641	3616.117216117216	0.370595382746051	0.5583941605839417	0.03302509907529723
10172.88208007813	-14	-32.57578370388619	0.481492886616986	2.622498662286729	-0.5896172776623212	-2.072937485930102	3473.538461538461	3614.652014652014	0.3620899149453219	0.5535279805352799	0.02906208718626156
10192.41333007813	-13.96153846153846	-32.89988144361643	1.26330295005235	1.745520209085914	1.31518270392113	-2.04511970158226	3489.558974358974	3614.652014652014	0.3742405832320777	0.5535279805352799	0.04491413474240423
10211.94458007813	-14.69230769230769	-32.45582619942108	0.9451561248999202	1.762675369678329	1.792406896290952	-1.632355745958363	3492.471794871794	3619.047619047619	0.3718104495747266	0.5486618004866181	0.05812417437252312
10231.47583007813	-13.80769230769231	-32.31707673831373	0.8153753772248568	1.317172833155849	0.8748736954096426	-1.228912787295829	3505.579487179487	3620.51282051282	0.3693803159173754	0.5608272506082725	0.03302509907529723
10251.00708007813	-14.69230769230769	-32.48969945186919	0.7157418242286139	0.8668366025304722	-0.5120909822802385	-0.8301158064603519	3485.189743589744	3621.978021978022	0.370595382746051	0.559610705596107	0.03302509907529723
10270.53833007813	-14.42307692307692	-32.52351881505204	0.2144022910636203	1.322480989723295	-0.9872667807021411	-0.4312607430103768	3474.994871794872	3620.51282051282	0.3839611178614824	0.559610705596107	0.03830911492734478
10290.06958007813	-13.80769230769231	-34.22783611504588	0.1994980599864509	0.8813376848391645	0.8962034481454761	-0.8161778729791817	3486.646153846154	3619.047619047619	0.3681652490886999	0.5498783454987835	0.0488771466314399
10309.60083007813	-14.61538461538462	-32.49738252140174	1.022972223932993	1.314518754872126	1.805943933465535	-1.627738809438555	3480.820512820513	3619.047619047619	0.3633049817739976	0.5571776155717761	0.035667107001321
10329.13208007813	-14.34615384615385	-32.15474687442261	0.9296514134384432	1.287696206073917	0.3898567874785686	-2.049794720716565	3479.364102564102	3614.652014652014	0.3742405832320777	0.5462287104622872	0.04359313077939234
10348.66333007813	-14.76923076923077	-32.22026852251032	0.7826568947465664	1.295183978460537	-0.07178197376875174	-1.646322720746783	3493.928205128205	3620.51282051282	0.3681652490886999	0.5608272506082725	0.03302509907529723
10368.19458007813	-14.30769230769231	-32.46190798792881	0.8646301656709985	1.280682896151845	-1.480076404194467	-1.660260654227953	3491.015384615384	3620.51282051282	0.3633049817739976	0.5535279805352799	0.03434610303830912
10387.72583007813	-15.07692307692308	-32.44435548438752	0.7562357578370389	1.738506899163842	-0.5547504877519056	-1.655585635093647	3492.471794871794	3619.047619047619	0.3742405832320777	0.551094890510949	0.03302509907529723
10407.25708007813	-15	-32.95320872082282	1.121974502679066	1.760495753859155	0.3919051814264888	-1.238175701642694	3474.994871794872	3619.047619047619	0.3681652490886999	0.5486618004866181	0.03963011889035667
10426.78833007813	-14.57692307692308	-33.57977920798177	1.258191168319271	2.213486062768255	0.8477996210604781	-1.238146660335445	3472.082051282051	3617.582417582417	0.3693803159173754	0.559610705596107	0.03963011889035667
10446.31958007813	-14.42307692307692	-31.83373621974503	0.3406571410974935	1.287696206073917	0.3898567874785686	-2.049794720716565	3501.210256410256	3614.652014652014	0.3742405832320777	0.559610705596107	0.0369881109643329
10465.85083007813	-14.03846153846154	-32.75208628441214	-0.2803011640081297	2.186663513970045	-0.5682875249264878	-1.660202571613455	3476.451282051281	3617.582417582417	0.370595382746051	0.5583941605839417	0.03170409511228534
10485.38208007813	-14.46153846153846	-33.29106362012687	0.1685656217281519	2.642307901162867	-1.04346332334839	-1.26134750816348	3477.907692307692	3619.047619047619	0.3730255164034022	0.5681265206812652	0.035667107001321
10504.91333007813	-14.42307692307692	-32.32951746012194	0.1297191599433394	1.738506899163842	-0.5547504877519056	-1.655585635093647	3495.384615384615	3619.047619047619	0.3718104495747266	0.5523114355231144	0.03830911492734478
10524.44458007813	-14.69230769230769	-32.13326045451746	0.2014842643345447	2.198984980459562	-0.5604948093652366	-1.252084593816615	3485.189743589744	3617.582417582417	0.3681652490886999	0.5608272506082725	0.0369881109643329
10543.97583007813	-14.76923076923077	-32.86232062573136	0.1929543634907927	1.287696206073917	0.3898567874785686	-2.049794720716565	3501.210256410256	3614.652014652014	0.3693803159173754	0.5608272506082725	0.03963011889035667
10563.50708007813	-14.26923076923077	-33.10318254603683	0.1975888403030117	1.319826911439572	-0.05619654264624922	-0.830086765153103	3483.733333333333	3616.117216117216	0.370595382746051	0.5535279805352799	0.03434610303830912
10583.03833007813	-14.42307692307692	-32.87687842581757	0.5746905216480878	1.763149832142877	-0.5391650566294031	-0.8393496794999676	3473.538461538461	3619.047619047619	0.3645200486026731	0.5559610705596108	0.03830911492734478
10602.56958007813	-14.11538461538462	-32.6497120773542	0.4471423292480139	0.4111922153376494	-0.03691518385833602	-1.228970869910327	3505.579487179487	3619.047619047619	0.3693803159173754	0.5669099756690997	0.03302509907529723
10622.10083007813	-14.69230769230769	-32.81457473671245	1.57489068177619	1.344469844418608	-0.0406111115237467	-0.01385080955942354	3476.451282051281	3623.443223443223	0.3815309842041312	0.551094890510949	0.03434610303830912
10641.63208007813	-13.96153846153846	-33.00689012748661	0.8445063743302333	1.349303538521505	0.4288203652848249	-0.009204831732366803	3488.102564102564	3624.908424908425	0.3754556500607533	0.5547445255474452	0.03170409511228534
10661.16333007813	-14.19230769230769	-33.15859610765536	0.9682669212292913	2.238603458211838	-1.468186900737375	0.3710953617166303	3460.430769230769	3621.978021978022	0.3730255164034022	0.5559610705596108	0.03170409511228534
10680.69458007813	-14.61538461538462	-32.37112767136787	0.4794604914700992	1.319826911439572	-0.05619654264624922	-0.830086765153103	3492.471794871794	3621.978021978022	0.3681652490886999	0.5559610705596108	0.03830911492734478
10700.22583007813	-14.5	-32.9215449282503	0.9618617971300117	1.319826911439572	-0.05619654264624922	-0.830086765153103	3495.384615384615	3620.51282051282	0.3681652490886999	0.5535279805352799	0.04227212681638045
10719.75708007813	-14.23076923076923	-34.03314959660036	0.5036336761717066	1.33963615031571	-0.5100425883323183	-0.01849678738648029	3472.082051282051	3621.978021978022	0.3766707168894289	0.5644768856447688	0.03302509907529723
10739.28833007813	-14.11538461538462	-32.84448327893084	0.5703177926956951	2.201639058743285	-1.491565047421129	-0.853258571673889	3476.451282051281	3620.51282051282	0.3730255164034022	0.5571776155717761	0.03038309114927345
10758.81958007813	-14.34615384615385	-32.71365553981647	1.952007760054197	1.760495753859155	0.3919051814264888	-1.238175701642694	3477.907692307692	3616.117216117216	0.3718104495747266	0.5547445255474452	0.03830911492734478
10778.35083007813	-13.57692307692308	-32.2908557615323	1.196634230461292	2.213486062768255	0.8477996210604781	-1.238146660335445	3474.994871794872	3617.582417582417	0.3778857837181044	0.559610705596107	0.02509907529722589
10797.88208007813	-13.5	-33.02142483217344	1.109703147133091	2.66429675585818	-0.09680765416999591	-0.8439375747125265	3473.538461538461	3617.582417582417	0.370595382746051	0.5498783454987835	0.03434610303830912
10817.41333007813	-13.69230769230769	-32.79358871712755	1.448666625608179	2.198984980459562	-0.5604948093652366	-1.252084593816615	3495.384615384615	3620.51282051282	0.3645200486026731	0.5486618004866181	0.0369881109643329
10836.94458007813	-14	-32.12234402906941	0.886432222701238	2.642307901162867	-1.04346332334839	-1.26134750816348	3492.471794871794	3620.51282051282	0.3754556500607533	0.5583941605839417	0.035667107001321
10856.47583007813	-14.46153846153846	-32.57741577877687	1.024635092689537	3.05615419478424	-2.011448745262618	-2.09149235593108	3477.907692307692	3614.652014652014	0.3572296476306197	0.5486618004866181	0.03434610303830912
10876.00708007813	-13.5	-32.54411991131367	0.3213801810679313	2.632166050492524	0.3492456759548219	-2.063645530275989	3488.102564102564	3616.117216117216	0.3657351154313487	0.551094890510949	0.03963011889035667
10895.53833007813	-13.5	-32.85975703639835	0.7186210506867031	3.11728706476728	0.3590867854639934	-0.8439085334052776	3467.71282051282	3619.047619047619	0.3657351154313487	0.5583941605839417	0.02906208718626156
10915.06958007813	-14.26923076923077	-32.35258206565253	-0.7939736404508222	1.753007981472534	0.8535439426738091	-1.641647701612477	3493.928205128205	3619.047619047619	0.3742405832320777	0.5498783454987835	0.03434610303830912
10934.60083007813	-13.88461538461539	-32.08074921475642	0.614383814744103	2.6717845282448	-0.5584464154173162	-0.4404655747427436	3461.887179487179	3616.117216117216	0.3669501822600243	0.5535279805352799	0.0369881109643329
10954.13208007813	-14.38461538461539	-31.84296668103714	0.7637186672414855	1.782959071019015	-0.9930111023154721	-0.02775970173334488	3486.646153846154	3623.443223443223	0.3693803159173754	0.5583941605839417	0.02906208718626156
