Time Stamp	Accelerometer X	Accelerometer Y	Accelerometer Z	Gyroscope X	Gyroscope Y	Gyroscope Z	VSenseReg	VSenseBatt	Magnetometer X	Magnetometer Y	Magnetometer Z
704.132080078125	-14.96153846153846	-32.56134907926341	0.7213001170166903	-78.86206922492781	-5.367910874661541	-11.10179311037489	3477.907692307692	3594.139194139194	0.4046172539489671	0.5401459854014599	0.06605019815059446
723.663330078125	-15.42307692307692	-32.68076769107594	1.38453839995073	0.4384892266004077	-0.9523999907917253	-0.01390889217392133	3499.753846153846	3629.304029304029	0.4034021871202916	0.537712895377129	0.05680317040951123
743.194580078125	-15.30769230769231	-31.70688858779331	0.6521216973578863	2.132543953909076	-1.068889863980064	-3.297320460627871	3479.364102564102	3619.047619047619	0.3997569866342648	0.5340632603406327	0.06208718626155878
762.725830078125	-14.65384615384616	-32.07628410420644	-0.7627178666009729	1.241064418399569	-0.5723843128223284	-3.283440609761198	3479.364102564102	3620.51282051282	0.3900364520048603	0.5364963503649636	0.0607661822985469
782.257080078125	-14.96153846153846	-32.10636971115354	1.049254788446142	0.8122425800049558	1.31887863158654	-3.260239761933163	3495.384615384615	3620.51282051282	0.4070473876063183	0.537712895377129	0.0488771466314399
801.788330078125	-14.61538461538462	-31.79605222639651	0.5718420890558601	-0.5000965590479962	0.9134364129854691	-2.026680996810277	3473.538461538461	3616.117216117216	0.3997569866342648	0.5316301703163017	0.059445178335535
821.319580078125	-14.69230769230769	-32.29415840364599	0.5540740284535322	-0.07658287722082909	0.8843139446883843	-2.847533888923765	3498.297435897436	3620.51282051282	0.3973268529769137	0.5316301703163017	0.05019815059445178
840.850830078125	-15.19230769230769	-32.68149134692369	1.189951961569256	1.280682896151845	-1.480076404194467	-1.660260654227953	3477.907692307692	3623.443223443223	0.4094775212636695	0.5389294403892945	0.06472919418758256
860.382080078125	-14.84615384615385	-32.82923261686272	0.5385539200591243	-0.07392879893710622	-0.04675629336750757	-2.448707866781038	3498.297435897436	3623.443223443223	0.4058323207776428	0.5401459854014599	0.059445178335535
879.913330078125	-15.03846153846154	-31.97628102481986	2.314051240992794	0.4160259094405469	0.4325162929502356	-1.22432489208327	3491.015384615384	3620.51282051282	0.4119076549210206	0.5352798053527981	0.059445178335535
899.444580078125	-14.57692307692308	-32.5266289955041	0.5237574675124717	0.3940370547452343	-0.5141393762281589	-1.641734825534224	3479.364102564102	3621.978021978022	0.402187120291616	0.5413625304136254	0.06208718626155878
918.975830078125	-15.26923076923077	-32.20882090287615	0.7102759130381228	-0.5387661118711756	-2.842015401483104	-2.063848819426731	3493.928205128205	3620.51282051282	0.4143377885783718	0.5364963503649636	0.05019815059445178
938.507080078125	-15.69230769230769	-32.4675740592474	0.6094721931391268	-0.04928586595807082	-0.03117086224500505	-1.632471911187359	3493.928205128205	3623.443223443223	0.4009720534629404	0.5401459854014599	0.06472919418758256
958.038330078125	-15.57692307692308	-32.41135215865	1.529146394038307	-0.5119435630729656	-1.425928255496138	-1.641792908148721	3492.471794871794	3621.978021978022	0.4082624544349939	0.5291970802919708	0.05680317040951123
977.569580078125	-15.53846153846154	-32.43982878610581	0.9914393052903863	-0.02682254879820996	-1.416087145986966	-0.42205591127801	3476.451282051281	3620.51282051282	0.3997569866342648	0.5450121654501217	0.06869220607661823
997.100830078125	-14.61538461538462	-32.0462523865246	-0.3796883660774773	0.859348830143852	-0.05045222103291825	-1.233587806430135	3483.733333333333	3623.443223443223	0.4058323207776428	0.5304136253041363	0.05548216644649934
1016.632080078125	-15.34615384615385	-32.6838316807292	1.460814805690706	0.8813376848391645	0.8962034481454761	-0.8161778729791817	3498.297435897436	3623.443223443223	0.4106925880923451	0.5401459854014599	0.04623513870541612
1036.163330078125	-14.42307692307692	-32.10780162591611	0.5823889881135679	1.772817220348672	0.3996978969877401	-0.8300577238458541	3488.102564102564	3626.373626373626	0.4094775212636695	0.5425790754257908	0.05680317040951123
1055.694580078125	-14.46153846153846	-32.7367740346123	1.300240192153723	1.78513868683819	0.4074906125489913	-0.4219397460490144	3488.102564102564	3624.908424908425	0.4094775212636695	0.5401459854014599	0.05284015852047556
1075.225830078125	-16.80769230769231	-31.67793465541664	0.7044250785243579	2.206472752846183	-1.022133570612557	-0.8486125938468322	3491.015384615384	3624.908424908425	0.3997569866342648	0.537712895377129	0.05548216644649934
1094.757080078125	-15.11538461538462	-32.48516505512102	0.9120989098971486	3.083451206046998	-2.926933552196008	-0.8764303781946748	3483.733333333333	3623.443223443223	0.4131227217496962	0.5352798053527981	0.07397622192866579
1114.288330078125	-15.19230769230769	-32.09332850896101	0.6279639095892098	2.659463061755282	-0.5662391309785675	-0.8485835525395833	3495.384615384615	3623.443223443223	0.4058323207776428	0.5340632603406327	0.06340819022457067
1133.819580078125	-15.03846153846154	-32.98324043850465	0.7389450021555705	2.235474917463567	1.794455290238872	-0.8207367268844917	3501.210256410256	3624.908424908425	0.4094775212636695	0.5437956204379563	0.059445178335535
1153.350830078125	-15.46153846153846	-32.46367863521587	0.18393176079325	2.676618222347698	-0.08901493860874465	-0.4358195969156868	3479.364102564102	3624.908424908425	0.4082624544349939	0.5364963503649636	0.05416116248348745
1172.882080078125	-15.46153846153846	-32.41132906325061	1.41260700868387	2.208652368665357	0.3783681442519066	-1.242792638162502	3491.015384615384	3624.908424908425	0.4058323207776428	0.5364963503649636	0.06208718626155878
1192.413330078125	-15.15384615384616	-32.14413068916672	1.2065344583359	1.738506899163842	-0.5547504877519056	-1.655585635093647	3492.471794871794	3617.582417582417	0.393681652490887	0.5352798053527981	0.06869220607661823
1211.944580078125	-15.69230769230769	-31.69387817946665	0.3862166656402044	2.186663513970045	-0.5682875249264878	-1.660202571613455	3479.364102564102	3620.51282051282	0.4070473876063183	0.5437956204379563	0.059445178335535
1231.475830078125	-15.61538461538462	-31.92173738991193	0.1637925725195542	1.285042127790194	1.320927025534461	-2.448620742859291	3499.753846153846	3623.443223443223	0.3948967193195626	0.5462287104622872	0.05548216644649934
1251.007080078125	-15.42307692307692	-31.84163484633861	-0.1874884523003018	1.275374739584399	0.3820640719173173	-2.457912698513405	3498.297435897436	3623.443223443223	0.4106925880923451	0.5291970802919708	0.0607661822985469
1270.538330078125	-14.92307692307692	-32.67989776436534	0.8410420644207673	2.634820128776247	-0.58182456210107	-1.664819508133263	3476.451282051281	3619.047619047619	0.4082624544349939	0.5437956204379563	0.059445178335535
1290.069580078125	-15.34615384615385	-32.41361550779085	1.411544620311634	1.258219578991984	-0.09516012045250553	-2.870676654137302	3495.384615384615	3619.047619047619	0.4009720534629404	0.5364963503649636	0.05812417437252312
1309.600830078125	-15.73076923076923	-32.09805536737082	1.402768368540987	1.726185432674324	-0.5625432033131568	-2.063703612890487	3467.71282051282	3616.117216117216	0.4082624544349939	0.5328467153284672	0.06208718626155878
1329.132080078125	-14.69230769230769	-31.56357393607194	0.5633121882121083	0.8320518188810937	0.8650325859004712	-2.448649784166541	3495.384615384615	3620.51282051282	0.4106925880923451	0.537712895377129	0.05812417437252312
1348.663330078125	-14.80769230769231	-31.71756636078093	0.6860103467389297	1.287696206073917	0.3898567874785686	-2.049794720716565	3467.71282051282	3614.652014652014	0.4082624544349939	0.5304136253041363	0.06605019815059446
1368.194580078125	-14.84615384615385	-32.22798238590872	1.245273141590195	1.287696206073917	0.3898567874785686	-2.049794720716565	3480.820512820513	3619.047619047619	0.4277035236938031	0.5340632603406327	0.05416116248348745
1387.725830078125	-14.88461538461539	-31.52973917595615	0.986958797807477	0.8223844306752989	-0.07383036771667204	-2.457941739820654	3492.471794871794	3621.978021978022	0.4094775212636695	0.5340632603406327	0.05680317040951123
1407.257080078125	-14.38461538461539	-32.86686272094599	0.03544373960707037	0.8395395912677141	0.4033938246531508	-2.045177784196758	3495.384615384615	3620.51282051282	0.4082624544349939	0.5425790754257908	0.059445178335535
1426.788330078125	-15.46153846153846	-31.42592535566915	0.2193447065344585	1.735852820880119	0.3763197503039863	-2.054411657236373	3493.928205128205	3617.582417582417	0.4009720534629404	0.5328467153284672	0.05548216644649934
1446.319580078125	-15.69230769230769	-32.16040524727474	0.6356469791217589	3.102785982458588	-1.049207644961721	-0.8578464668864478	3467.71282051282	3621.978021978022	0.4106925880923451	0.5401459854014599	0.05284015852047556
1465.850830078125	-15.19230769230769	-32.33736989591673	1.291571718913592	2.216140141051977	-0.08327061699541369	-0.8393206381927187	3483.733333333333	3624.908424908425	0.4046172539489671	0.5413625304136254	0.06340819022457067
1485.382080078125	-15.46153846153846	-32.01100880704563	0.6273634292049024	1.772817220348672	0.3996978969877401	-0.8300577238458541	3479.364102564102	3621.978021978022	0.3973268529769137	0.5389294403892945	0.06472919418758256
1504.913330078125	-14.96153846153846	-32.55980938597031	0.6443154523618895	2.181829819867147	-1.037719001735059	-1.664848549440512	3482.276923076923	3616.117216117216	0.3997569866342648	0.5328467153284672	0.05416116248348745
1524.444580078125	-15.19230769230769	-33.46442538646301	-0.04796144607994091	2.194151286356665	-1.029926286173808	-1.256730571643672	3489.558974358974	3623.443223443223	0.416767922235723	0.5413625304136254	0.05416116248348745
1543.975830078125	-15.26923076923077	-32.83316653322658	1.158326661329063	1.755662059756257	-0.07752629538208272	-1.24282167946975	3491.015384615384	3623.443223443223	0.393681652490887	0.5364963503649636	0.05812417437252312
1563.507080078125	-14.84615384615385	-32.98705117940506	0.7371743548685102	1.290350284357639	-0.5412134505773234	-1.650968698573839	3496.841025641026	3624.908424908425	0.4082624544349939	0.5328467153284672	0.04623513870541612
1583.038330078125	-15	-32.05248814436164	0.3167149103898503	1.273195123765224	-1.018437642947146	-2.063732654197735	3489.558974358974	3617.582417582417	0.4070473876063183	0.5498783454987835	0.0607661822985469
1602.569580078125	-15.11538461538462	-32.17029777668288	2.4764272956827	0.3768818941528192	-0.9913635685979816	-2.05449878115812	3491.015384615384	3617.582417582417	0.4070473876063183	0.5401459854014599	0.05548216644649934
1622.100830078125	-14.69230769230769	-31.79683746997598	0.6880273449528854	2.20381867456246	-0.09106333255666496	-1.247438615989558	3470.625641025641	3620.51282051282	0.416767922235723	0.5340632603406327	0.0607661822985469
1641.632080078125	-14.96153846153846	-32.13408419042926	0.5119018291556321	1.731019126777222	-0.09311172650458524	-2.05905763506343	3496.841025641026	3617.582417582417	0.4070473876063183	0.5364963503649636	0.06208718626155878
1661.163330078125	-15.19230769230769	-31.97246258545298	0.3538985034181192	1.728839510958047	-1.493613441369049	-1.66487759074776	3483.733333333333	3621.978021978022	0.4058323207776428	0.5291970802919708	0.05019815059445178
1680.694580078125	-15.11538461538462	-31.70761994210753	0.4963817207612242	2.615485352364658	-2.459550469335356	-1.68340341944149	3480.820512820513	3624.908424908425	0.4034021871202916	0.5340632603406327	0.05416116248348745
1700.225830078125	-15.19230769230769	-32.36354468189936	0.6772340949682822	2.164674659274732	-1.514943194104882	-2.077612505064408	3499.753846153846	3620.51282051282	0.4058323207776428	0.5304136253041363	0.05548216644649934
1719.757080078125	-16.07692307692308	-32.78020878241054	1.241208351296422	2.625152740570452	-1.520687515718213	-1.674111463787376	3485.189743589744	3619.047619047619	0.4106925880923451	0.5364963503649636	0.05812417437252312
1739.288330078125	-15.26923076923077	-32.17417780378149	0.9011978813820287	1.748174287369637	0.3841124658652376	-1.646293679439534	3498.297435897436	3623.443223443223	0.4119076549210206	0.5304136253041363	0.05548216644649934
1758.819580078125	-15.03846153846154	-32.23879873129273	0.05532118002093966	1.290350284357639	-0.5412134505773234	-1.650968698573839	3498.297435897436	3623.443223443223	0.4070473876063183	0.5401459854014599	0.05284015852047556
1778.350830078125	-15	-31.99013056599126	1.044989838024266	1.295658440925085	-2.403353926689107	-0.8533166542883867	3483.733333333333	3623.443223443223	0.4070473876063183	0.5291970802919708	0.05284015852047556
1797.882080078125	-15.03846153846154	-32.25804489745643	1.017629488205949	0.8373599754485395	-0.9971078902113126	-1.650997739881088	3498.297435897436	3624.908424908425	0.4070473876063183	0.5352798053527981	0.06340819022457067
1817.413330078125	-15.53846153846154	-32.47447188520047	0.8005173369464804	1.75831613803998	-1.008596533437975	-0.8439956573270243	3474.994871794872	3621.978021978022	0.4191980558930741	0.537712895377129	0.05548216644649934
1836.944580078125	-15.88461538461539	-31.8209413684794	1.162453039354561	1.295183978460537	-0.07178197376875174	-1.646322720746783	3483.733333333333	3621.978021978022	0.4131227217496962	0.5328467153284672	0.07133421400264201
1856.475830078125	-15.46153846153846	-32.59455256512903	0.9583974872205457	1.29783805674426	-1.002852211824644	-1.247496698604056	3489.558974358974	3620.51282051282	0.4070473876063183	0.5364963503649636	0.05019815059445178
1876.007080078125	-15.46153846153846	-32.0633583790109	1.321765104391205	1.280682896151845	-1.480076404194467	-1.660260654227953	3491.015384615384	3621.978021978022	0.4094775212636695	0.5304136253041363	0.07661822985468957
1895.538330078125	-15.03846153846154	-31.36733232740038	0.7127702161729383	1.285516590254742	-1.010644927385895	-1.655614676400896	3511.405128205128	3624.908424908425	0.4131227217496962	0.5364963503649636	0.06605019815059446
1915.069580078125	-15.26923076923077	-31.74152398842151	0.4223532672291679	1.733673205060945	-1.024181964560477	-1.660231612920704	3501.210256410256	3624.908424908425	0.4046172539489671	0.5328467153284672	0.04623513870541612
1934.600830078125	-15.26923076923077	-32.1710984171953	0.7472285520724271	2.21130644694908	-0.5527020938039853	-0.8439666160197754	3473.538461538461	3621.978021978022	0.4070473876063183	0.5413625304136254	0.05812417437252312
1954.132080078125	-15.69230769230769	-31.9671737389912	0.5894561803288786	1.760495753859155	0.3919051814264888	-1.238175701642694	3492.471794871794	3621.978021978022	0.3973268529769137	0.5401459854014599	0.06472919418758256
1973.663330078125	-16.07692307692308	-31.75400320256205	-0.06907064112828731	1.741160977447565	-1.485820725807797	-1.256759612950921	3479.364102564102	3623.443223443223	0.3985419198055893	0.5364963503649636	0.06340819022457067
1993.194580078125	-16.38461538461539	-32.96657325860689	1.251739853421198	-1.39328124791213	-2.322131703641613	-0.8256150351695396	3485.189743589744	3623.443223443223	0.402187120291616	0.5340632603406327	0.059445178335535
2012.725830078125	-16.23076923076923	-32.09045698096939	1.522849048469545	-0.0444521718551734	0.4382606145635665	-1.627825933360302	3499.753846153846	3623.443223443223	0.4009720534629404	0.5401459854014599	0.06340819022457067
2032.257080078125	-17.26923076923077	-32.3062219005974	1.81109502987005	0.3517644987092354	1.324622953199871	-3.663740803210195	3488.102564102564	3614.652014652014	0.4131227217496962	0.5401459854014599	0.047556142668428
2051.788330078125	-17.15384615384615	-32.47787460737821	2.586038061218206	1.711491653862065	11.08752384572737	-6.436851922979305	3489.558974358974	3611.721611721612	0.4046172539489671	0.5450121654501217	0.05151915455746367
2071.319580078125	-17.80769230769231	-31.69045236188951	4.253387325244811	2.937580527488393	11.43841705539968	-10.52723653268007	3476.451282051281	3598.534798534799	0.4143377885783718	0.5352798053527981	0.0607661822985469
2090.850830078125	-19.11538461538462	-31.6083405185687	5.301641313050441	6.499895666313605	15.04660899466534	-12.56759409120628	3534.707692307692	3698.168498168498	0.4155528554070473	0.5352798053527981	0.05548216644649934
2110.382080078125	-17.11538461538462	-32.79427388064298	4.906001724456488	9.610925649584342	21.93098016208183	-15.7951668018138	3555.097435897435	3692.307692307692	0.4058323207776428	0.5352798053527981	0.06340819022457067
2129.913330078125	-17.26923076923077	-33.09685440660221	4.804258791648704	15.78967506570331	18.41647772617142	-17.9329156468647	3539.076923076923	3686.446886446886	0.4179829890643985	0.5316301703163017	0.05416116248348745
2149.444580078125	-17.65384615384615	-32.8297946049147	5.297422553427357	21.08225310288021	13.53634036530696	-19.25913259676349	3530.338461538461	3680.58608058608	0.4106925880923451	0.5231143552311436	0.07133421400264201
2168.975830078125	-18.38461538461539	-31.92922029931638	5.230245735049579	24.61822015537176	13.3968732056653	-20.92854000010931	3546.358974358974	3679.120879120879	0.4058323207776428	0.524330900243309	0.07001321003963013
2188.507080078125	-19.73076923076923	-31.6477258730061	4.040139804151012	25.92572560032182	13.3328839474578	-22.16674474305925	3533.251282051282	3676.190476190476	0.4216281895504253	0.524330900243309	0.07793923381770146
2208.038330078125	-17.26923076923077	-32.06756944016752	5.263087392991316	28.56007126663351	15.08263133827709	-24.62457031765091	3540.533333333333	3673.260073260073	0.4155528554070473	0.5206812652068127	0.08586525759577279
2227.569580078125	-18.34615384615385	-31.98002247952208	5.808816283796269	30.28843631512701	15.92058984982839	-27.08245397485706	3525.969230769231	3665.934065934066	0.4289185905224787	0.5231143552311436	0.0845442536327609
2247.100830078125	-17.38461538461539	-32.18152983925602	5.307261193570241	33.39074783512105	17.20295415778702	-28.73330650820191	3514.317948717948	3663.003663003663	0.433778857837181	0.5231143552311436	0.09247027741083223
2266.632080078125	-16.57692307692308	-31.82877840734126	6.092766520909034	36.00623318748571	14.74340368845167	-30.4167099276434	3528.882051282051	3660.07326007326	0.4362089914945322	0.5182481751824818	0.1017173051519155
2286.163330078125	-18.5	-31.64670967543266	6.604714540863459	38.68114625647878	10.92231508205811	-29.66534341378502	3514.317948717948	3661.538461538461	0.4398541919805589	0.5145985401459854	0.1030383091149273
2305.694580078125	-18.53846153846154	-31.50583543758083	7.291771879041695	40.53973927978954	13.70813394089496	-28.43158135951139	3521.6	3661.538461538461	0.44228432563791	0.5206812652068127	0.107001321003963
2325.225830078125	-18.76923076923077	-31.04243394715773	7.429389665578617	43.31928846569172	16.48246415650515	-26.3908172226837	3505.579487179487	3667.399267399267	0.4386391251518833	0.5145985401459854	0.1149273447820343
2344.757080078125	-18.88461538461539	-30.33188858779331	6.632890928127117	44.23180793096744	21.59575818036652	-27.57329927301621	3534.707692307692	3667.399267399267	0.4532199270959902	0.5036496350364964	0.1268163804491413
2364.288330078125	-18.26923076923077	-30.5681083328201	8.213108948697419	47.34691537991555	20.55434325096605	-28.02302776210582	3530.338461538461	3664.468864468864	0.4434993924665856	0.5072992700729927	0.1347424042272127
2383.819580078125	-18.80769230769231	-30.53357301225596	7.024804458951777	49.55338813276173	19.53220968035349	-28.87164035595265	3515.774358974359	3661.538461538461	0.4495747266099635	0.4927007299270073	0.1532364597093791
2403.350830078125	-19.38461538461539	-29.33118802734495	7.097862905709183	50.86790688763385	21.33815361381903	-30.4993791653912	3507.035897435897	3657.142857142857	0.456865127582017	0.4987834549878346	0.1519154557463673
2422.882080078125	-20.73076923076923	-29.84494518691876	7.208797807476751	51.31340942415633	22.25568681470034	-30.90282212405374	3518.687179487179	3654.212454212454	0.4678007290400972	0.4866180048661801	0.1558784676354029
2442.413330078125	-19.11538461538462	-29.08478321118433	7.969929789985835	51.80071005425026	23.66602963907397	-30.0772651714987	3507.035897435897	3652.747252747252	0.4690157958687727	0.4866180048661801	0.1585204755614267
2461.944580078125	-17.92307692307692	-29.17307692307692	7.346153846153847	52.67285481334818	21.29179818068195	-30.10972893367359	3512.861538461538	3655.677655677655	0.4678007290400972	0.4732360097323601	0.178335535006605
2481.475830078125	-18.80769230769231	-28.74521925232494	7.991731847016075	53.97382141084071	17.02630377788106	-30.16539354367653	3491.015384615384	3651.282051282051	0.4714459295261239	0.4732360097323601	0.1915455746367239
2501.007080078125	-19.73076923076923	-27.86700899180883	9.235064975056968	54.34586961089063	15.5655087324745	-32.22453830266171	3524.51282051282	3657.142857142857	0.4544349939246658	0.4708029197080292	0.1915455746367239
2520.538330078125	-20.11538461538462	-27.40979706842397	9.836007267352343	52.52642060286762	14.20356973518587	-32.62812646786049	3525.969230769231	3654.212454212454	0.4726609963547995	0.4549878345498783	0.2100396301188904
2540.069580078125	-21.30769230769231	-27.37539262178974	11.23116955102544	53.09371441689163	22.19374595044076	-31.32940784792981	3528.882051282051	3655.677655677655	0.4775212636695018	0.4574209245742092	0.2034346103038309
2559.600830078125	-21.11538461538462	-26.8972793619511	12.13319886678574	54.94965336191865	25.9106350473335	-30.49447181579891	3504.123076923077	3658.608058608058	0.4823815309842041	0.4549878345498783	0.2153236459709379
2579.132080078125	-21.11538461538462	-26.55700714417688	12.42728028576708	55.39998959254403	27.29759972502339	-30.89326879663438	3530.338461538461	3658.608058608058	0.4775212636695018	0.4476885644768857	0.2311756935270806
2598.663330078125	-22.19230769230769	-27.08841688735604	13.15161359857117	57.18778235766594	26.77402009951648	-30.91638252054067	3507.035897435897	3655.677655677655	0.4872417982989064	0.4464720194647202	0.2443857331571995
2618.194580078125	-23	-27.55279608302026	14.10134261255158	59.41093580863999	28.56068267419411	-32.145237225222	3514.317948717948	3652.747252747252	0.4908869987849331	0.4294403892944039	0.2536327608982827
2637.725830078125	-22.38461538461539	-27.0745981400505	14.57606084867894	61.11731200243818	28.45198551656702	-35.02053081587911	3520.14358974359	3646.886446886447	0.4933171324422843	0.4330900243309003	0.2642007926023778
2657.257080078125	-23.53846153846154	-24.90463139742563	14.92387756358933	64.16863250311951	25.97110529449583	-37.11666914963725	3517.230769230769	3642.490842490842	0.488456865127582	0.4160583941605839	0.2840158520475561
2676.788330078125	-23.03846153846154	-25.09930251893823	16.46512594691138	65.93083341033331	30.09508414370714	-39.54203096205401	3523.05641025641	3638.095238095238	0.4981773997569866	0.4087591240875912	0.2774108322324967
2696.319580078125	-23	-25.1816684116524	16.69880519800456	68.59247608790776	30.92934672759303	-40.78479455890926	3496.841025641026	3633.699633699634	0.5066828675577156	0.4099756690997567	0.2813738441215324
2715.850830078125	-22.26923076923077	-24.78659081111043	17.36800209398288	72.63024485280192	33.60851682275072	-41.61470707621887	3482.276923076923	3627.838827838828	0.4945321992709599	0.3905109489051095	0.3064729194187583
2735.382080078125	-22.5	-24.48254757652276	17.78122497998399	75.72288898459017	33.95201817709221	-43.27485156521783	3502.666666666666	3626.373626373626	0.511543134872418	0.3929440389294404	0.3143989431968296
2754.913330078125	-22.5	-23.56950945371682	18.28316499353329	79.298474514834	32.90485892607841	-43.32107901303041	3488.102564102564	3624.908424908425	0.5018226002430133	0.3625304136253041	0.3315719947159841
2774.444580078125	-21.5	-22.33216573258607	16.95444047545729	81.55157905535454	32.84496645576675	-42.93604571783261	3492.471794871794	3629.304029304029	0.4993924665856622	0.3625304136253041	0.3381770145310436
2793.975830078125	-22.61538461538462	-20.85505327338794	17.2911252078586	81.99708159187701	33.76249965664805	-43.33948867649514	3482.276923076923	3624.908424908425	0.5066828675577156	0.3467153284671533	0.3619550858652576
2813.507080078125	-21.38461538461539	-20.69390897333251	17.61852558970253	82.93206437431259	37.49087739676747	-43.3115547269183	3492.471794871794	3629.304029304029	0.4957472660996354	0.3357664233576643	0.3606340819022457
2833.038330078125	-21.19230769230769	-20.56068701114738	18.4574274804459	80.68379352789498	38.02020134388769	-43.69194204428905	3492.471794871794	3626.373626373626	0.5018226002430133	0.3187347931873479	0.3619550858652576
2852.569580078125	-22.07692307692308	-18.83486789431546	17.66647163884954	79.86311425057428	41.82610537938919	-42.42118641524245	3505.579487179487	3629.304029304029	0.511543134872418	0.2956204379562044	0.3896961690885073
2872.100830078125	-20.65384615384615	-18.39346092258422	19.17304612921106	80.82586850673719	42.30742635965486	-40.38518442147082	3489.558974358974	3630.769230769231	0.511543134872418	0.3004866180048662	0.3910171730515192
2891.632080078125	-19.65384615384615	-16.94132998706657	18.64342243025189	80.84349812979416	40.45307859910432	-39.17941439938853	3512.861538461538	3638.095238095238	0.5103280680437423	0.2785888077858881	0.4174372523117569
2911.163330078125	-20.69230769230769	-16.58971792818871	19.40897333251216	80.41827929461235	36.75012739961659	-37.17137539650098	3507.035897435897	3643.956043956044	0.5078979343863912	0.2700729927007299	0.4332892998678996
2930.694580078125	-20.11538461538462	-16.12538492332327	20.61540001231755	81.40084278965138	36.77760233419618	-34.32378342496271	3501.210256410256	3643.956043956044	0.5091130012150668	0.2627737226277372	0.4227212681638045
2950.225830078125	-19.07692307692308	-15.0458520662684	19.44644946726612	81.40349686793509	35.84653209614029	-33.92495740281999	3520.14358974359	3651.282051282051	0.4933171324422843	0.2457420924574209	0.4464993394980185
2969.757080078125	-19.84615384615385	-13.51709059555336	20.70068362382213	81.85961571759248	33.03978434479803	-32.73309627291162	3512.861538461538	3648.351648351648	0.5054678007290401	0.2311435523114355	0.451783355350066
2989.288330078125	-18.80769230769231	-13.9787907248876	21.59338239822628	80.97296987618587	34.00572137276433	-32.71457044421788	3539.076923076923	3654.212454212454	0.5054678007290401	0.2128953771289538	0.4544253632760898
3008.819580078125	-18.80769230769231	-12.07726950791402	20.74809078031656	80.56926543323483	33.58099779537535	-31.08212757433777	3528.882051282051	3660.07326007326	0.4896719319562576	0.2128953771289538	0.4715984147952444
3028.350830078125	-18.76923076923077	-11.58532980230338	21.1126439613229	79.75389431248161	35.52476135476506	-29.01371990100573	3512.861538461538	3661.538461538461	0.5030376670716888	0.1897810218978102	0.4848084544253633
3047.882080078125	-18.80769230769231	-10.74081572950668	21.23309416764181	76.18845063290813	35.17921160647565	-28.16519443108065	3539.076923076923	3667.399267399267	0.4945321992709599	0.1812652068126521	0.4887714663143989
3067.413330078125	-18	-9.507359733941	20.29106362012687	76.70304827426482	35.6740696239159	-26.1245755007892	3523.05641025641	3671.794871794872	0.4921020656136087	0.1739659367396594	0.4834874504623514
3086.944580078125	-17.11538461538462	-9.481007883229662	20.01193262302149	75.81953097360648	33.37736446090595	-24.91421758349435	3525.969230769231	3665.934065934066	0.4763061968408262	0.1520681265206813	0.4980184940554822
3106.475830078125	-18.73076923076923	-8.398926833774711	21.36941861181253	74.51202552865642	33.44135371911346	-23.67601284054441	3531.794871794872	3670.32967032967	0.4823815309842041	0.1447688564476886	0.5019815059445179
3126.007080078125	-17.30769230769231	-8.382475210937981	21.04683746997598	72.37948157474735	34.51024358309352	-20.37869237991654	3531.794871794872	3679.120879120879	0.4750911300121506	0.1253041362530414	0.5178335535006605
3145.538330078125	-17.26923076923077	-6.690344583358995	21.01722916794975	70.12106887765935	36.43227652951697	-21.56137771939979	3547.815384615385	3679.120879120879	0.4726609963547995	0.1253041362530414	0.5191545574636725
3165.069580078125	-17.5	-5.912075814497752	20.79609841719529	68.40189675490713	38.86475292450315	-19.88720817299791	3552.184615384615	3682.051282051282	0.473876063183475	0.1021897810218978	0.5363276089828269
3184.600830078125	-15.42307692307692	-5.262679374268646	22.78781486727844	68.4463489267623	38.42649230993959	-18.25938223963761	3533.251282051282	3686.446886446886	0.465370595382746	0.1009732360097324	0.5376486129458389
3204.132080078125	-15.76923076923077	-4.60760916425448	23.07276590503172	68.40284567983622	34.20160901866245	-18.30119604008112	3552.184615384615	3684.981684981685	0.4617253948967193	0.08515815085158152	0.5482166446499339
3223.663330078125	-15.69230769230769	-3.532118002093983	23.06743856623761	66.16519114655347	31.00665201355911	-17.08627926888096	3541.989743589743	3684.981684981685	0.4374240583232077	0.07664233576642336	0.5389696169088507
3243.194580078125	-15.73076923076923	-3.796952946972963	22.88610888710969	65.78565517411691	32.92908582021298	-15.43060650986557	3536.164102564102	3686.446886446886	0.4483596597812879	0.06447688564476886	0.5468956406869221
3262.725830078125	-15.46153846153846	-2.502786844860504	25.21626531994827	63.58619573119282	35.82115258249858	-14.97152798250735	3559.466666666666	3693.772893772893	0.4556500607533414	0.05231143552311435	0.5455746367239102
3282.257080078125	-15.5	-1.642105992486297	24.52837654739176	63.16751574346855	36.31970652760423	-14.1460291125668	3552.184615384615	3692.307692307692	0.4313487241798298	0.03771289537712896	0.5587846763540291
3301.788330078125	-14.65384615384616	-0.9267490915809571	24.45283919443247	62.33716907794208	39.18674760948858	-12.88456543917433	3569.661538461538	3699.6336996337	0.4386391251518833	0.04744525547445256	0.5521796565389696
3321.319580078125	-15.11538461538462	-1.121612674755189	25.0421721992979	62.83461155870635	39.204381434559	-11.25671046450678	3480.820512820513	3595.604395604395	0.4204131227217496	0.0340632603406326	0.5693527080581242
3340.850830078125	-13.57692307692308	0.003441214510069568	24.94332388988114	65.11283349467045	36.82850244244949	-9.262435147256902	3460.430769230769	3600	0.4070473876063183	0.0170316301703163	0.5640686922060766
3360.382080078125	-13.88461538461539	-0.08361304428157912	25.75757529100203	64.61586547637074	34.47929666445871	-10.09728405546606	3486.646153846154	3602.930402930403	0.4179829890643985	0	0.570673712021136
3379.913330078125	-14.03846153846154	1.03263379934717	25.8683100326415	66.42081340208507	34.43294123132163	-9.707633823748449	3470.625641025641	3600	0.4131227217496962	-0.0024330900243309	0.5733157199471598
3399.444580078125	-13.07692307692308	1.277637494611073	26.11812526944633	66.90062625979238	36.30492281694259	-9.28554887116319	3470.625641025641	3604.395604395604	0.3973268529769137	-0.0121654501216545	0.5772787318361955
3418.975830078125	-12.96153846153846	1.73340980476689	26.29104822319394	66.91247326381736	38.64428748542419	-9.670436959824746	3483.733333333333	3602.930402930403	0.3961117861482381	-0.02554744525547445	0.5785997357992074
3438.507080078125	-12.5	2.250839132844738	26.88112028084006	67.8285957323059	38.16336736538896	-8.868080855097739	3473.538461538461	3597.069597069597	0.3839611178614824	-0.02554744525547445	0.5825627476882431
3458.038330078125	-11.65384615384616	3.216396193878179	25.83403645993718	68.70557418550671	36.25856738380551	-8.895898639445582	3482.276923076923	3601.465201465201	0.3754556500607533	-0.0340632603406326	0.5918097754293263
3477.569580078125	-11.73076923076923	4.070140727966989	25.53142514011209	70.48417402488737	32.46455285176111	-8.135298252547589	3467.71282051282	3605.860805860806	0.3851761846901579	-0.04987834549878346	0.5865257595772787
3497.100830078125	-12.34615384615385	4.216288415347663	24.60865615569379	70.45469739780545	31.97953594383004	-8.956180185968323	3466.25641025641	3600	0.3693803159173754	-0.06569343065693431	0.6036988110964333
3516.632080078125	-10.88461538461539	4.901744472501077	23.48969945186919	69.9867315441231	32.44691902669069	-9.763153227215138	3482.276923076923	3600	0.3742405832320777	-0.08029197080291971	0.5904887714663144
3536.163330078125	-10.88461538461539	6.020331649935333	23.32957134938721	69.06577538153165	32.45840766991735	-10.5701553097692	3470.625641025641	3597.069597069597	0.3608748481166464	-0.08394160583941607	0.5957727873183619
3555.694580078125	-10.65384615384616	6.255950914577817	24.77937734803227	68.61979838254463	33.87244642195639	-10.95971841756506	3470.625641025641	3601.465201465201	0.3547995139732685	-0.08759124087591241	0.5891677675033025
3575.225830078125	-9.307692307692308	7.608840918888957	23.09641559401367	66.84650669973142	35.80432047788901	-10.92266676017761	3470.625641025641	3597.069597069597	0.3511543134872417	-0.1034063260340633	0.5984147952443858
3594.757080078125	-9.576923076923077	8.378633676171708	23.33754696064544	66.02364780659156	38.20972279852604	-9.257731086815348	3464.8	3592.673992673992	0.3462940461725395	-0.1228710462287105	0.5957727873183619
3614.288330078125	-9.692307692307693	8.546437149719775	22.75506559093428	65.05918839707404	33.99632815047556	-10.10654696981292	3476.451282051281	3601.465201465201	0.3402187120291616	-0.1192214111922141	0.5931307793923382
3633.819580078125	-8.538461538461538	9.606746936010346	22.43188396871343	64.19718548864647	34.97785060956436	-9.271785185525513	3492.471794871794	3605.860805860806	0.3353584447144593	-0.1326034063260341	0.5852047556142669
3653.350830078125	-8.384615384615385	10.36122744349326	23.01555090226027	62.89716781608304	34.58020110652455	-7.630108442605788	3474.994871794872	3605.860805860806	0.3232077764277035	-0.1435523114355231	0.6023778071334214
3672.882080078125	-8.26923076923077	10.29658342058262	22.28621358625362	62.02549751944967	34.62286061199622	-6.804638613972493	3456.061538461538	3607.326007326007	0.3086269744835966	-0.1423357664233577	0.5878467635402906
3692.413330078125	-7.038461538461539	10.78876177865369	23.3696033750077	60.64671735384623	33.70902333878031	-7.616315715660862	3477.907692307692	3608.791208791209	0.3122721749696233	-0.1642335766423358	0.5944517833553501
3711.944580078125	-6.653846153846154	12.06601434994149	22.5838978875408	58.86375828282721	34.70203444109578	-7.588556013927517	3470.625641025641	3602.930402930403	0.3110571081409477	-0.1666666666666667	0.5918097754293263
3731.475830078125	-7.692307692307693	11.97265504711462	22.52109379811542	58.49388969859646	37.5633312013668	-5.92359129925801	3458.974358974359	3610.25641025641	0.2952612393681652	-0.1751824817518248	0.5970937912813739
3751.007080078125	-5.884615384615385	13.89147471823613	22.84934101127055	55.83878586847953	40.9305737620743	-5.863367835349766	3485.189743589744	3611.721611721612	0.2952612393681652	-0.1885644768856448	0.5891677675033025
3770.538330078125	-5.653846153846154	13.77142483217343	22.85183531440537	55.44740289201802	40.51364290024657	-3.822806987672816	3491.015384615384	3614.652014652014	0.2770352369380316	-0.2007299270072993	0.5997357992073976
3790.069580078125	-5.230769230769231	14.1764488513888	23.33140358440599	55.87186549877428	35.82137652610876	-3.057647746869512	3495.384615384615	3619.047619047619	0.2806804374240583	-0.2055961070559611	0.5957727873183619
3809.600830078125	-4.846153846153847	13.90246042988237	23.18467081357394	58.08459533311702	28.27395857354372	-1.5225961635141	3470.625641025641	3619.047619047619	0.2770352369380316	-0.2092457420924574	0.5785997357992074
3829.132080078125	-5.346153846153847	15.02556660713186	23.29859272033011	58.0164491532119	24.03348985114407	-2.38064591955129	3495.384615384615	3617.582417582417	0.2588092345078979	-0.2214111922141119	0.5785997357992074
3848.663330078125	-5.038461538461538	15.5776082404385	22.31189567038246	58.93304608416499	21.22099777818848	-0.7852837483658874	3482.276923076923	3623.443223443223	0.2636695018226002	-0.2214111922141119	0.583883751651255
3868.194580078125	-5.269230769230769	16.57374361027284	22.73589640943524	58.50469870823493	20.780688769677	0.03092316592054312	3491.015384615384	3629.304029304029	0.2539489671931956	-0.2311435523114355	0.5759577278731837
3887.725830078125	-4.269230769230769	15.740969698836	22.98997659666194	58.11066165348969	21.29482814590515	1.672657991454766	3493.928205128205	3627.838827838828	0.2551640340218712	-0.2481751824817518	0.5904887714663144
3907.257080078125	-4.846153846153847	17.5222793619511	22.96295497936811	57.65283765047769	20.36950222946259	1.667982972320461	3498.297435897436	3630.769230769231	0.244228432563791	-0.2615571776155718	0.571994715984148
3926.788330078125	-3.384615384615385	17.96908295867463	22.23815975857609	59.02943820026195	19.88283778781403	2.8738401183245	3505.579487179487	3633.699633699634	0.2454434993924666	-0.2639902676399027	0.5693527080581242
3946.319580078125	-3.346153846153846	17.3870865923508	22.45336269015212	59.48290297163561	18.00716027452766	3.666875226090144	3502.666666666666	3635.164835164835	0.2588092345078979	-0.2603406326034063	0.5733157199471598
3965.850830078125	-2.961538461538462	18.33869403214879	20.64222146948328	59.95352290360167	16.60870695361112	4.872674289479686	3483.733333333333	3633.699633699634	0.2430133657351154	-0.281021897810219	0.560105680317041
3985.382080078125	-4.038461538461538	20.04830787707089	20.8538369156864	59.06422298391134	18.50571421963332	4.492374096030688	3502.666666666666	3636.630036630037	0.2405832320777643	-0.2822384428223844	0.5508586525759578
4004.913330078125	-3.807692307692308	19.43016721069163	20.76087023464926	57.27643021878943	19.02929384514022	4.515487819936976	3499.753846153846	3635.164835164835	0.2381530984204131	-0.2895377128953772	0.560105680317041
4024.444580078125	-3.923076923076923	20.24464186734003	20.53713740222948	57.79756670760364	23.72565700717386	5.373566617281416	3498.297435897436	3636.630036630037	0.2454434993924666	-0.2931873479318735	0.5521796565389696
4043.975830078125	-2.884615384615385	20.04238005789247	19.99638172076122	58.24572332240984	23.71211996999928	5.368949680761608	3501.210256410256	3639.560439560439	0.2393681652490887	-0.3017031630170317	0.5468956406869221
4063.507080078125	-2.730769230769231	20.80609872513395	20.11814066637925	59.56071653974652	23.18649195054445	4.534216937781448	3508.492307692307	3636.630036630037	0.2320777642770352	-0.3126520681265207	0.5468956406869221
4083.038330078125	-2.692307692307693	21.26647471823613	20.13780254973209	59.99437207224403	21.76466048294416	4.51566206778047	3504.123076923077	3635.164835164835	0.2284325637910085	-0.3199513381995134	0.5429326287978864
4102.569580078125	-3.461538461538462	21.45955225719037	18.94546406355854	60.43286129884444	20.81226049215243	4.501753175606549	3504.123076923077	3633.699633699634	0.2187120291616039	-0.3369829683698297	0.5416116248348745
4122.100830078125	-4	22.23083081850096	19.38153599802919	61.79714038213918	20.31780333494262	5.299492343813748	3486.646153846154	3635.164835164835	0.2077764277035237	-0.3418491484184915	0.5323645970937913
4141.632080078125	-2.269230769230769	21.94864353020878	18.29859272033011	61.77733114326304	20.77164938062869	4.487902366047125	3505.579487179487	3633.699633699634	0.2089914945321993	-0.3454987834549879	0.5270805812417437
4161.163330078125	-2.5	22.99943801194802	17.91271478721439	61.29751828555573	18.89966779500773	4.065817413461866	3495.384615384615	3630.769230769231	0.2162818955042527	-0.3613138686131387	0.5376486129458389
4180.694580078125	-2.115384615384615	22.75393391636386	18.26484264334545	61.30235197965862	19.3690992718163	4.070463391288922	3485.189743589744	3629.304029304029	0.2053462940461725	-0.3637469586374696	0.5151915455746368
4200.225830078125	-2	23.86561556937858	16.4115292233787	59.51673883035589	21.29318061218767	3.699397070879541	3504.123076923077	3633.699633699634	0.2065613608748481	-0.3722627737226277	0.5165125495376486
4219.757080078125	-1.576923076923077	24.86419135308247	16.05966311510747	60.4082183658654	20.79667506102993	3.685517220012869	3491.015384615384	3629.304029304029	0.2187120291616039	-0.3746958637469586	0.512549537648613
4239.288330078125	-1.653846153846154	25.95812804089425	15.285905647595	59.02460450615905	19.41340631100546	2.869194140497443	3515.774358974359	3633.699633699634	0.2029161603888214	-0.3929440389294404	0.5085865257595773
4258.819580078125	-2.230769230769231	25.36215125946911	14.89243702654431	57.67312135181838	17.58408423085617	3.27257901654548	3505.579487179487	3632.234432234432	0.1992709599027946	-0.3978102189781022	0.5059445178335535
4278.350830078125	-1.576923076923077	26.80882398226273	14.98187780994026	56.39461807148572	20.4646623499151	4.538659626457762	3493.928205128205	3635.164835164835	0.1919805589307412	-0.4051094890510949	0.4980184940554822
4297.882080078125	-1.269230769230769	27.28311110426803	14.0367524789062	53.7470020137554	23.37026614937528	5.00235509033579	3512.861538461538	3629.304029304029	0.1968408262454435	-0.4051094890510949	0.4861294583883752
4317.413330078125	-1.153846153846154	26.96595738128965	14.39443862782534	53.31116686543872	23.39159590211111	5.415090004652438	3493.928205128205	3635.164835164835	0.1931956257594168	-0.413625304136253	0.4821664464993395
4336.944580078125	-1.961538461538462	27.4569578739915	13.72902937734803	53.35249049654562	26.21597747852378	5.851083849411618	3501.210256410256	3638.095238095238	0.1944106925880923	-0.4184914841849148	0.47556142668428
4356.475830078125	-1.230769230769231	27.69652645193078	12.55829278807662	52.42670063985128	25.75803464494188	5.039435789030497	3493.928205128205	3633.699633699634	0.1834750911300122	-0.4294403892944039	0.476882430647292
4376.007080078125	-1.038461538461539	27.50872236250539	14.06388187473056	52.87703687047665	27.14499932263176	4.640638808195019	3507.035897435897	3635.164835164835	0.1968408262454435	-0.4257907542579076	0.4702774108322325
4395.538330078125	-0.7692307692307693	28.95223871404816	12.7726796822073	52.87969094876038	26.21392908457587	5.039464830337746	3521.6	3636.630036630037	0.1773997569866342	-0.4294403892944039	0.4715984147952444
4415.069580078125	-0.5	28.64589363798731	12.43608733140358	51.96186332691721	22.96277553682629	5.424294836384804	3509.948717948718	3638.095238095238	0.1822600243013366	-0.4537712895377129	0.4676354029062087
4434.600830078125	-1.269230769230769	28.80894715772618	12.74494980599864	54.22245563982436	22.4412443052673	6.212800131552387	3488.102564102564	3636.630036630037	0.1786148238153098	-0.451338199513382	0.453104359313078
4454.132080078125	-0.2307692307692308	29.53358071072243	12.01327215618649	54.67279187044974	23.82820898295718	5.814003150716911	3499.753846153846	3635.164835164835	0.1701093560145808	-0.4537712895377129	0.4438573315719947
4473.663330078125	-1.038461538461539	29.5742209151937	10.78895424031533	54.23212302803015	23.38010725888444	6.222092087206502	3502.666666666666	3638.095238095238	0.1713244228432564	-0.4586374695863747	0.4359313077939234
4493.194580078125	-1.884615384615385	30.27615169058323	11.15395393237667	53.83277781671747	25.75638711122439	7.066174868455272	3501.210256410256	3641.025641025641	0.1616038882138517	-0.4720194647201947	0.4451783355350066
4512.725830078125	-1.461538461538462	30.48178542834267	10.06457473671245	52.97295452410907	28.13841128517766	7.506756608427011	3515.774358974359	3641.025641025641	0.1676792223572296	-0.4878345498783455	0.4319682959048877
4532.257080078125	-1.115384615384615	30.90527037014227	9.698019954425078	51.65047353438578	29.1256780658798	7.938017351437387	3508.492307692307	3655.677655677655	0.1640340218712029	-0.4781021897810219	0.429326287978864
4551.788330078125	-2.269230769230769	31.10596939089733	8.509222762825646	49.90883809447366	32.94307074460796	8.401770897929913	3508.492307692307	3641.025641025641	0.1628189550425273	-0.4841849148418492	0.4214002642007926
4571.319580078125	-0.576923076923077	31.44350095460984	9.171106115661761	49.50200511077436	35.78098935819521	8.8423816792089	3514.317948717948	3643.956043956044	0.157958687727825	-0.4951338199513382	0.4121532364597094
4590.850830078125	0.5384615384615386	31.04802303381166	8.598848309416765	50.45243790044773	36.25451762289963	10.4702656951837	3498.297435897436	3649.81684981685	0.157958687727825	-0.5012165450121655	0.4161162483487451
4610.382080078125	0.3846153846153846	31.40289154400444	8.316961261316745	49.5169806555476	34.85771183570058	9.649325679148467	3517.230769230769	3648.351648351648	0.149453219927096	-0.5036496350364964	0.4029062087186262
4629.913330078125	1.192307692307692	31.98351758329741	7.324120835129642	52.21388257923599	31.98327889848541	10.8181021264578	3511.405128205128	3649.81684981685	0.1482381530984204	-0.5145985401459854	0.3949801849405548
4649.444580078125	0.8846153846153847	31.72093828909281	7.299239391513211	52.16554563820701	27.28896413039969	10.77164234818723	3515.774358974359	3648.351648351648	0.1506682867557715	-0.5206812652068127	0.3751651254953765
4668.975830078125	0.6538461538461539	32.95033719283119	5.67544805074829	51.23056285577143	23.56058639028028	10.74370839861039	3512.861538461538	3645.421245421245	0.1543134872417983	-0.524330900243309	0.3910171730515192
4688.507080078125	-0.03846153846153846	33.12418396255466	5.367724949190121	50.38836918621999	24.08826280368303	12.39006016066442	3493.928205128205	3648.351648351648	0.1603888213851762	-0.5255474452554745	0.3844121532364597
4708.038330078125	0	33.24197819794296	5.208782410543819	46.79780811120293	26.05869957719147	11.62934360853743	3539.076923076923	3654.212454212454	0.1603888213851762	-0.5279805352798054	0.3685601056803171
4727.569580078125	0.4230769230769231	33.64007359733942	6.034781671491039	48.20388528806912	26.05705204347398	13.65608268796221	3518.687179487179	3655.677655677655	0.1603888213851762	-0.5340632603406327	0.3645970937912814
4747.100830078125	0.9230769230769231	34.06666871959106	5.358871712754819	49.5928073043429	25.57818031738666	15.27005781176309	3512.861538461538	3661.538461538461	0.1482381530984204	-0.5450121654501217	0.3619550858652576
4766.632080078125	0.8076923076923077	33.99351019276961	5.286028823058447	49.53480297510813	19.94500259568381	15.21430607783841	3527.425641025641	3663.003663003663	0.1567436208991495	-0.5437956204379563	0.3461030383091149
4786.163330078125	0.4230769230769231	34.17588686333683	4.244118371620373	50.37842003205321	12.42261032352	15.94697251515956	3525.969230769231	3665.934065934066	0.1433778857837181	-0.5620437956204379	0.3355350066050198
4805.694580078125	-0.3076923076923077	34.45750446511055	4.355545975241732	49.45263017535888	11.96466748993809	15.13532445477844	3523.05641025641	3660.07326007326	0.1421628189550425	-0.559610705596107	0.3249669749009247
4825.225830078125	-1.076923076923077	34.40654061710907	3.82681529839256	51.28487511233597	11.00282724986762	16.74003666423246	3501.210256410256	3661.538461538461	0.1543134872417983	-0.5656934306569343	0.3276089828269485
4844.757080078125	-0.6923076923076923	35.17877378826137	3.292079817700315	49.47243941423501	11.51082144425202	15.94691443254506	3533.251282051282	3664.468864468864	0.1518833535844471	-0.5632603406326034	0.3143989431968296
4864.288330078125	-0.7307692307692308	36.21267013610889	1.635723963786414	49.50191604131695	11.99583835218309	16.7677963659658	3528.882051282051	3664.468864468864	0.1543134872417983	-0.5608272506082725	0.3223249669749009
4883.819580078125	-0.6538461538461539	35.64915778776868	2.811341380796946	49.48476088072454	11.51861415981327	16.35503241034191	3534.707692307692	3665.934065934066	0.1628189550425273	-0.5888077858880779	0.3011889035667107
4903.350830078125	-0.8461538461538463	34.83308185009547	1.499753649073105	51.26554033592438	9.125101342633334	16.72145275292423	3514.317948717948	3664.468864468864	0.1688942891859052	-0.5888077858880779	0.2959048877146632
4922.882080078125	-0.3846153846153846	34.37819486358318	0.705641436225904	51.63322930433595	4.863302867497856	15.45066808257039	3518.687179487179	3655.677655677655	0.1591737545565006	-0.5851581508515815	0.2813738441215324
4942.413330078125	-1.346153846153846	35.32106454394285	0.6775420336269016	52.93950405839593	-1.264332011414819	16.19265551685291	3512.861538461538	3661.538461538461	0.1628189550425273	-0.5985401459854015	0.2840158520475561
4961.944580078125	0.7692307692307693	34.5270062203609	-0.1964648641990519	57.8283776526218	-6.56919294966826	16.49888143683424	3508.492307692307	3663.003663003663	0.1518833535844471	-0.6046228710462287	0.261558784676354
4981.475830078125	0.3076923076923077	36.49464186734003	-1.962862597770524	58.14071637008232	-17.39523938456249	15.57117105469845	3534.707692307692	3664.468864468864	0.1676792223572296	-0.6094890510948905	0.2509907529722589
5001.007080078125	-1.730769230769231	37.11011116585576	-1.851712138941923	55.83226157861074	-23.89959487400958	15.52921204771869	3533.251282051282	3665.934065934066	0.1737545565006075	-0.5985401459854015	0.2338177014531044
5020.538330078125	-3.153846153846154	37.96050686703209	-2.563804890065899	54.14692531457878	-18.18109814136339	17.23590343890996	3541.989743589743	3670.32967032967	0.1773997569866342	-0.6131386861313869	0.2285336856010568
5040.069580078125	-2.653846153846154	37.42633337439182	-3.278207181129519	51.13332544179152	-7.281622198982916	17.78319746236776	3534.707692307692	3668.864468864469	0.1883353584447144	-0.6119221411192214	0.2245706737120211
5059.600830078125	-3.730769230769231	38.1205194925171	-4.218282318162222	48.49585123473155	-5.768727398825954	19.0491909483583	3520.14358974359	3671.794871794872	0.1798298906439854	-0.6265206812652069	0.2087186261558785
5079.132080078125	-4.423076923076923	39.31287337562358	-3.528284165794174	45.40974595040083	-1.910723608574054	19.52679530441025	3507.035897435897	3668.864468864469	0.1944106925880923	-0.6228710462287105	0.1915455746367239
5098.663330078125	-5.038461538461538	39.60837131243456	-4.226257929420459	40.96997789591025	-1.282543613335907	20.8019645808259	3524.51282051282	3674.725274725275	0.18955042527339	-0.6301703163017032	0.1889035667107001
5118.194580078125	-6.76923076923077	38.27619018291556	-3.194124530393546	36.51305468082726	-1.131587810467582	21.66436990161766	3528.882051282051	3674.725274725275	0.2077764277035237	-0.6277372262773723	0.1862615587846764
5137.725830078125	-6.961538461538462	38.35313635523803	-4.926048531132599	35.21644731497307	5.934910022062236	20.93167442298925	3544.902564102564	3679.120879120879	0.1956257594167679	-0.635036496350365	0.1704095112285337
5157.257080078125	-7.461538461538462	39.05205703023957	-4.756697665824968	32.02959068290704	8.330070372959661	18.53851500098216	3534.707692307692	3667.399267399267	0.1992709599027946	-0.6301703163017032	0.1770145310435931
5176.788330078125	-6.5	37.93058292788076	-5.413761778653692	34.20563788374219	11.48606380025674	15.2830083407978	3502.666666666666	3658.608058608058	0.2004860267314702	-0.6362530413625305	0.1585204755614267
5196.319580078125	-7.346153846153847	37.1859718544066	-5.79859272033011	35.89390999201888	15.56328635610054	10.4089386616	3511.405128205128	3648.351648351648	0.2089914945321993	-0.6374695863746959	0.1479524438573316
5215.850830078125	-7.038461538461539	37.93740376916918	-5.216342304612921	35.72889723355225	14.9925495769957	5.098758972414026	3485.189743589744	3633.699633699634	0.2089914945321993	-0.6411192214111923	0.1360634081902246
5235.382080078125	-7.038461538461539	37.73955318100634	-6.862274434932561	37.48095629009568	20.50923742551022	1.871099137884757	3489.558974358974	3627.838827838828	0.2114216281895504	-0.6399026763990268	0.1281373844121533
5254.913330078125	-5.153846153846154	38.5490392313851	-6.913500030793865	37.00597712649127	19.10668731669784	1.453660163126555	3482.276923076923	3624.908424908425	0.2162818955042527	-0.6435523114355232	0.1254953764861295
5274.444580078125	-4.115384615384616	38.48919905154893	-6.883029500523496	37.4519541254783	17.69264856465879	1.843223270922417	3498.297435897436	3629.304029304029	0.2162818955042527	-0.6411192214111923	0.1175693527080581
5293.975830078125	-3.653846153846154	38.25448820594938	-7.147487220545667	38.20761576364213	6.38363361578141	0.9062499744397599	3488.102564102564	3620.51282051282	0.212636695018226	-0.648418491484185	0.1136063408190225
5313.507080078125	-4.576923076923078	37.83781640697173	-8.467743425509639	35.85082403114158	-4.815036641751397	0.8178311891894373	3496.841025641026	3623.443223443223	0.2065613608748481	-0.6472019464720195	0.107001321003963
5333.038330078125	-5.5	38.72680452053951	-9.686379873129273	35.82495040727246	-10.89426769357907	1.981787410828219	3456.061538461538	3619.047619047619	0.212636695018226	-0.648418491484185	0.1003963011889036
5352.569580078125	-6.807692307692308	38.96442538646301	-10.64434624622775	33.56435809436531	-10.37273646202009	1.193282115660636	3501.210256410256	3626.373626373626	0.2114216281895504	-0.6557177615571777	0.08190224570673713
5372.100830078125	-6.269230769230769	40.68591026667487	-12.64166717989777	31.40622228254811	-4.656288123321821	2.088354487778035	3476.451282051281	3627.838827838828	0.221142162818955	-0.6508515815085159	0.07133421400264201
5391.632080078125	-6.423076923076923	40.65431576030055	-12.83117263041202	25.99839181532719	-2.647288632237554	0.5298697261365973	3499.753846153846	3626.373626373626	0.2199270959902795	-0.6557177615571777	0.07926023778071334
5411.163330078125	-6.384615384615385	39.47337870296237	-13.43816591734926	21.01767803314627	-6.261625753346973	0.13537022744119	3489.558974358974	3627.838827838828	0.2247873633049818	-0.656934306569343	0.06472919418758256
5430.694580078125	-7.038461538461539	38.7619095276221	-13.74932253495104	16.93545709639692	-8.502535233941092	-0.6625431886095026	3485.189743589744	3623.443223443223	0.2174969623329283	-0.6593673965936739	0.07001321003963013
5450.225830078125	-8.076923076923077	40.71557245796637	-14.24016135985712	12.36280698880538	-8.8911453479326	-3.477845645816359	3495.384615384615	3619.047619047619	0.2114216281895504	-0.6630170316301703	0.05812417437252312
5469.757080078125	-7.76923076923077	40.58322042249185	-13.69948266305352	7.853469367016045	-5.508718216333033	-5.439744324813082	3480.820512820513	3607.326007326007	0.2235722964763062	-0.6630170316301703	0.06340819022457067
5489.288330078125	-7.730769230769231	39.54855422799778	-13.92771139988914	2.442035896582313	2.094495418647837	-8.983067241514037	3477.907692307692	3600	0.2296476306196841	-0.6545012165450121	0.05680317040951123
5508.819580078125	-6.307692307692308	38.97607316622529	-13.64981215741824	-0.2579945678543422	8.231570546839253	-11.34367577742449	3480.820512820513	3597.069597069597	0.2174969623329283	-0.6496350364963504	0.05284015852047556
5528.350830078125	-5.769230769230769	39.36264396132291	-12.36296729691445	-1.600284796453775	9.672683373227462	-11.72400501218074	3456.061538461538	3592.673992673992	0.221142162818955	-0.6678832116788321	0.05812417437252312
5547.882080078125	-3.230769230769231	37.98666625608179	-11.48715895793558	-1.666725823004261	9.164288318612634	-13.76924087899199	3562.379487179487	3695.238095238095	0.2174969623329283	-0.6581508515815085	0.05284015852047556
5567.413330078125	-2.923076923076923	38.34778592104453	-12.54314220607255	-0.9062304907375322	-1.675295153456178	-14.70156819764759	3552.184615384615	3696.703296703297	0.221142162818955	-0.6545012165450121	0.07001321003963013
5586.944580078125	-2.884615384615385	39.02371897518015	-11.76287183593028	-3.63649381068165	-4.418454506821365	-15.10986042328793	3553.641025641025	3689.377289377289	0.2065613608748481	-0.6618004866180048	0.04491413474240423
5606.475830078125	-4.115384615384616	40.07277360349819	-11.06175709798608	-4.48882933090343	-2.498069094115412	-14.2658066833464	3553.641025641025	3695.238095238095	0.2138517618469016	-0.6605839416058394	0.06869220607661823
5626.007080078125	-3.538461538461539	39.46855946295498	-10.27412699390281	-6.668005072486855	-2.391420330436244	-12.20213211176317	3560.923076923077	3695.238095238095	0.2041312272174969	-0.6605839416058394	0.059445178335535
5645.538330078125	-2.384615384615385	40.19629549793682	-11.27631335837901	-6.654260218603691	-9.378343473636058	-9.414995934591138	3472.082051282051	3595.604395604395	0.1968408262454435	-0.6472019464720195	0.06737120211360634
5665.069580078125	-2.115384615384615	39.45652675986943	-11.09556876270247	-10.34537994485251	-21.92911161894833	-8.687265888169527	3482.276923076923	3600	0.1968408262454435	-0.6557177615571777	0.06737120211360634
5684.600830078125	-5.769230769230769	39.30567530947835	-9.514534704686826	-13.01185631652986	-23.2328056796428	-7.449148269141332	3466.25641025641	3602.930402930403	0.1992709599027946	-0.6642335766423357	0.05812417437252312
5704.132080078125	-6	39.16551702900782	-9.968159142698776	-15.63795798202941	-17.04897425808387	-7.361048938270748	3451.692307692307	3602.930402930403	0.2065613608748481	-0.6630170316301703	0.07133421400264201
5723.663330078125	-6.076923076923078	38.93608733140358	-9.958212724025374	-16.46271472502745	-5.317284125765426	-8.868137530742072	3464.8	3600	0.1980558930741191	-0.6545012165450121	0.07793923381770146
5743.194580078125	-4.884615384615385	39.72233940998953	-10.07850896101497	-16.85334147306343	2.66100258603237	-9.600774926755978	3470.625641025641	3601.465201465201	0.1992709599027946	-0.6581508515815085	0.08982826948480846
5762.725830078125	-3.730769230769231	38.97350957689228	-8.406248075383383	-18.68558641004052	3.622842826102837	-11.20548713620999	3480.820512820513	3597.069597069597	0.1834750911300122	-0.6496350364963504	0.09114927344782034
5782.257080078125	-3	38.26308739299132	-8.231292726488883	-20.16151492016645	-4.348052030364138	-12.90308986089789	3559.466666666666	3696.703296703297	0.1859052247873633	-0.6581508515815085	0.09775429326287979
5801.788330078125	-3.807692307692308	38.90882706164932	-8.941353082465973	-20.59422152773486	-7.589364468604551	-11.29852285798012	3440.041025641025	3591.208791208791	0.1919805589307412	-0.6459854014598541	0.08982826948480846
5821.319580078125	-3.76923076923077	39.51701361088871	-8.619911313666318	-22.38997652770795	-4.272574128929976	-12.47188720050201	3560.923076923077	3698.168498168498	0.1871202916160389	-0.6496350364963504	0.1122853368560106
5840.850830078125	-3.307692307692308	38.84964894992917	-8.405524419535629	-22.81566982535429	-5.643953375497354	-11.25685426407286	3456.061538461538	3595.604395604395	0.1798298906439854	-0.6447688564476886	0.107001321003963
5860.382080078125	-3.038461538461539	38.80120250046191	-8.175509638480015	-22.84467198997167	-8.460542236348783	-11.2847301310352	3477.907692307692	3595.604395604395	0.1859052247873633	-0.6435523114355232	0.11889035667107
5879.913330078125	-3.115384615384615	37.72340179836176	-8.054705302703702	-24.72430494304864	-16.85616067020474	-11.34988998584299	3470.625641025641	3597.069597069597	0.1883353584447144	-0.6472019464720195	0.1149273447820343
5899.444580078125	-3.538461538461539	38.01970807415163	-8.985403707581449	-26.59256535456518	-20.58084248265874	-12.59294399577073	3566.748717948718	3699.6336996337	0.1871202916160389	-0.648418491484185	0.1268163804491413
5918.975830078125	-4.153846153846154	37.92104452793004	-7.282995627271048	-26.20118237810367	-20.16391162083101	-14.63350484344768	3560.923076923077	3695.238095238095	0.1749696233292831	-0.6435523114355232	0.130779392338177
5938.507080078125	-2.538461538461539	37.96524912237482	-7.262456118741147	-24.50883280414963	-24.01247516180417	-16.72973030112756	3514.317948717948	3674.725274725275	0.1859052247873633	-0.6447688564476886	0.1281373844121533
5958.038330078125	-4.576923076923078	37.76468097554968	-6.734048777483526	-29.88548149093398	-17.786385095004	-18.65451924012233	3563.835897435898	3684.981684981685	0.1640340218712029	-0.6338199513381996	0.1466314398943197
5977.569580078125	-2.384615384615385	37.00605099464187	-5.610242039785675	-29.73999620538251	-6.035012743667212	-17.72213383885223	3544.902564102564	3684.981684981685	0.1616038882138517	-0.6496350364963504	0.1505944517833553
5997.100830078125	-0.6153846153846154	36.65304551333374	-5.113814128225657	-28.38102527865521	-4.667329424765244	-17.72204671493049	3528.882051282051	3684.981684981685	0.1688942891859052	-0.6399026763990268	0.1690885072655218
6016.632080078125	0	38.10432961754019	-7.139557800086223	-28.93116393208681	-12.18028144765031	-18.60800137923727	3547.815384615385	3683.516483516483	0.1749696233292831	-0.635036496350365	0.1598414795244386
6036.163330078125	0.4230769230769231	38.90351511978814	-5.214217527868449	-32.9341479133316	-16.23657511098871	-16.15955488422146	3547.815384615385	3690.84249084249	0.1688942891859052	-0.6338199513381996	0.1677675033025099
6055.694580078125	-1.269230769230769	38.76306429759192	-4.191676418057523	-36.41163617412384	-12.79550218256454	-13.64138968049257	3569.661538461538	3699.6336996337	0.157958687727825	-0.6386861313868614	0.1611624834874505
6075.225830078125	-0.1153846153846154	37.64778746073782	-3.42783457535259	-37.21468582838755	-10.84394590761358	-11.16486402936369	3470.625641025641	3595.604395604395	0.1688942891859052	-0.6386861313868614	0.1862615587846764
6094.757080078125	0.4615384615384616	36.67173738991193	-3.279177187904169	-39.02351852327568	-15.93016585712578	-9.973148105991561	3472.082051282051	3598.534798534799	0.1603888213851762	-0.6277372262773723	0.1889035667107001
6114.288330078125	-0.6153846153846154	36.28659850957689	-4.099156248075383	-37.60246580163623	-16.85509091333791	-7.13946502662722	3489.558974358974	3607.326007326007	0.1530984204131227	-0.6180048661800487	0.202113606340819
6133.819580078125	0.3846153846153846	35.05966311510747	-3.367771139988914	-35.41968705683999	-22.55595382091369	-7.21830144315094	3477.907692307692	3600	0.1543134872417983	-0.624087591240876	0.202113606340819
6153.350830078125	-0.5	36.83244287737882	-2.660605407402845	-33.64108721745932	-26.34996835295808	-6.457701056252946	3466.25641025641	3610.25641025641	0.1555285540704739	-0.6131386861313869	0.2060766182298547
6172.882080078125	-1.153846153846154	37.76613598571164	-2.537568516351543	-38.9445633337321	-28.47233956641595	-3.160583884775817	3461.887179487179	3617.582417582417	0.1518833535844471	-0.6119221411192214	0.2126816380449141
6192.413330078125	-2.269230769230769	37.18929759191969	-1.426418057522941	-42.78367617794293	-14.23639106534256	-1.347180210098486	3486.646153846154	3621.978021978022	0.1676792223572296	-0.6143552311435523	0.225891677675033
6211.944580078125	0.3846153846153846	36.54007821641929	-2.388526205579849	-44.48398798674814	-7.594616810201721	-0.4474328188467806	3488.102564102564	3624.908424908425	0.1603888213851762	-0.6046228710462287	0.23778071334214
6231.475830078125	0.1923076923076923	35.26363398411036	-1.835545359364415	-47.30125780054441	-18.7875427461212	-0.939352645374135	3499.753846153846	3624.908424908425	0.1676792223572296	-0.6058394160583942	0.2523117569352708
6251.007080078125	-0.3076923076923077	35.43213031964033	-0.1449775204779207	-47.77092880758138	-22.05223333104537	-0.5591395758468847	3477.907692307692	3619.047619047619	0.1725394896719319	-0.6046228710462287	0.2562747688243065
6270.538330078125	-1.538461538461539	35.75983864014288	0.08499106977890003	-52.76396405625182	-25.67436316771603	-1.361757052339132	3511.405128205128	3623.443223443223	0.1652490886998785	-0.5948905109489051	0.2589167767503303
6290.069580078125	-0.9615384615384616	34.99934563035043	-0.9288199790601712	-55.38475756518392	-21.35267222226889	-0.4760056771830945	3499.753846153846	3624.908424908425	0.1652490886998785	-0.5851581508515815	0.2681638044914135
6309.600830078125	-2.115384615384615	34.45637279054012	0.4505912422245491	-57.53540560461451	-16.09786264481794	0.822538694904088	3477.907692307692	3624.908424908425	0.1773997569866342	-0.5912408759124088	0.2760898282694848
6329.132080078125	-1.769230769230769	34.52033934840179	0.7522633491408513	-62.39745665004218	-9.376914560577536	0.9383686862007687	3496.841025641026	3627.838827838828	0.1786148238153098	-0.5754257907542579	0.2879788639365918
6348.663330078125	-1.192307692307692	35.52202531255773	2.014118987497691	-63.18695414692629	-1.353919949360153	1.842820137894028	3469.169230769231	3621.978021978022	0.1701093560145808	-0.5681265206812652	0.3064729194187583
6368.194580078125	-1.769230769230769	34.94760423723594	2.465941984356716	-69.0006686729174	-1.170145750529332	2.310958290448371	3504.123076923077	3632.234432234432	0.1713244228432564	-0.559610705596107	0.3183619550858652
6387.725830078125	-1.038461538461539	32.89072026852251	4.579371189259099	-67.48341653168457	9.625130682350322	4.444554859895451	3505.579487179487	3630.769230769231	0.1773997569866342	-0.5656934306569343	0.3276089828269485
6407.257080078125	-0.1153846153846154	32.81315052041633	5.611704748414116	-66.16699992695425	2.104786804134437	5.988840316290478	3498.297435897436	3632.234432234432	0.1871202916160389	-0.5486618004866181	0.3474240422721268
6426.788330078125	-0.5	32.18179928558231	6.794651105499783	-63.65956099820796	-14.41432982277432	5.390411495427805	3509.948717948718	3636.630036630037	0.1883353584447144	-0.5425790754257908	0.3342140026420079
6446.319580078125	-0.8461538461538463	31.2063342982078	5.91405432037938	-62.44342127874841	-25.72908909326502	4.85693924022218	3498.297435897436	3630.769230769231	0.1834750911300122	-0.5437956204379563	0.3725231175693527
6465.850830078125	-0.9230769230769231	30.93302334175032	4.271909835560756	-61.26642557457659	-38.46772822530396	3.493293095941705	3489.558974358974	3630.769230769231	0.1798298906439854	-0.5328467153284672	0.3698811096433289
6485.382080078125	-2.384615384615385	31.16830387386833	5.507883229660651	-64.0534625328654	-40.78041967966684	1.049056959144231	3491.015384615384	3627.838827838828	0.1992709599027946	-0.5304136253041363	0.3751651254953765
6504.913330078125	-6.269230769230769	32.79729167949745	6.789262178973949	-69.3921978952521	-39.19409537202363	1.934634086456774	3495.384615384615	3627.838827838828	0.1992709599027946	-0.5158150851581509	0.3896961690885073
6524.444580078125	-4.730769230769231	31.13627055490546	7.532626100880703	-71.83054171916417	-23.09765392855594	4.977124796273428	3508.492307692307	3633.699633699634	0.1980558930741191	-0.5109489051094891	0.3870541611624835
6543.975830078125	-4.384615384615385	30.06317361581573	8.918242286136602	-71.36352479041092	-18.90189310557588	4.198085704603452	3505.579487179487	3632.234432234432	0.2150668286755771	-0.5036496350364964	0.3949801849405548
6563.507080078125	-4.846153846153847	31.81756174170105	12.04498983802427	-70.99583582199936	-23.16369158071137	2.927301034249614	3498.297435897436	3629.304029304029	0.2138517618469016	-0.4914841849148419	0.4147952443857332
6583.038330078125	-5.653846153846154	28.85656987128164	10.9022756666872	-70.02919679666267	-17.54979521779642	3.381936872931519	3491.015384615384	3627.838827838828	0.2162818955042527	-0.4805352798053528	0.4147952443857332
6602.569580078125	-4.653846153846154	29.06693816591735	12.84539939644023	-66.90319126861868	-11.58870157287457	0.9613081622635635	3498.297435897436	3627.838827838828	0.2174969623329283	-0.4683698296836983	0.4372523117569353
6622.100830078125	-3.653846153846154	29.87547730492086	13.72613475395701	-63.86276884703322	-21.07209036926808	0.8360700500837739	3473.538461538461	3623.443223443223	0.2199270959902795	-0.4562043795620438	0.4332892998678996
6641.632080078125	-3.961538461538462	27.91076707519862	14.19241547083821	-62.57582886938484	-29.07745115541504	1.559473573058065	3463.343589743589	3619.047619047619	0.2320777642770352	-0.4574209245742092	0.4425363276089828
6661.163330078125	-4.153846153846154	27.90226026975427	14.81006343536368	-61.28282450674347	-30.54973484404826	0.3073308966269522	3499.753846153846	3630.769230769231	0.221142162818955	-0.451338199513382	0.4451783355350066
6680.694580078125	-4.576923076923078	28.04074798300178	14.07798546529531	-58.65236360960557	-33.93256283587825	-0.5691285228749716	3498.297435897436	3627.838827838828	0.2247873633049818	-0.4428223844282239	0.451783355350066
6700.225830078125	-5.615384615384616	26.9881597585761	13.89970437888773	-57.38134810165952	-36.35150219368986	-2.238681132757038	3498.297435897436	3623.443223443223	0.2430133657351154	-0.4245742092457421	0.4557463672391017
6719.757080078125	-5.769230769230769	27.39922707396687	14.65403091704133	-55.5618990936365	-34.98956319640123	-1.835092967558259	3474.994871794872	3614.652014652014	0.2369380315917375	-0.4306569343065694	0.4742404227212682
6739.288330078125	-6.423076923076923	26.93949775204779	15.21742008991809	-56.36324359454559	-29.30593325366545	-0.5457534272034434	3466.25641025641	3619.047619047619	0.2490886998784933	-0.4111922141119221	0.4610303830911493
6758.819580078125	-6.115384615384616	25.74706688427665	14.91588655539817	-55.81357940357853	-19.46140927786003	-0.4528048293550597	3491.015384615384	3624.908424908425	0.2430133657351154	-0.4087591240875912	0.4808454425363276
6778.350830078125	-4.807692307692308	26.24080033257375	15.84459875592782	-53.56094932552256	-17.18972979525133	-0.8607776006156548	3480.820512820513	3623.443223443223	0.2515188335358444	-0.4002433090024331	0.47556142668428
6797.882080078125	-5.346153846153847	26.27148641990516	16.7718328508961	-52.69847195463043	-20.5028242072605	-0.9025333184446678	3463.343589743589	3617.582417582417	0.2575941676792223	-0.3953771289537713	0.4914134742404227
6817.413330078125	-6.307692307692308	24.21811295189998	16.55589086653938	-54.01659371271538	-16.71455399682943	-1.25963266406563	3492.471794871794	3626.373626373626	0.2563791008505468	-0.3844282238442823	0.4861294583883752
6836.944580078125	-5.538461538461538	24.30525959228922	17.19855884707766	-53.08862424020187	-14.85610944838306	-0.842164648000179	3502.666666666666	3623.443223443223	0.267314702308627	-0.3795620437956205	0.4795244385733157
6856.475830078125	-5.307692307692308	24.30299624314837	17.08095707335099	-52.21818463445857	-20.9624145745599	0.3125577005989867	3482.276923076923	3626.373626373626	0.2600243013365735	-0.3710462287104623	0.4940554821664465
6876.007080078125	-5.653846153846154	23.16278407341257	16.74541171398657	-53.58464333357249	-21.86845913221455	-0.09100142329254285	3488.102564102564	3617.582417582417	0.2721749696233293	-0.3600973236009732	0.5085865257595773
6895.538330078125	-6.192307692307693	23.04258021802057	17.52483525281764	-55.76258838426583	-15.6981647478302	-0.007519028941765982	3495.384615384615	3621.978021978022	0.2624544349939246	-0.3613138686131387	0.5059445178335535
6915.069580078125	-6.115384615384616	23.61459167333867	15.77041633306646	-57.03360389221189	-13.27922539001859	1.6620335809403	3491.015384615384	3621.978021978022	0.2697448359659781	-0.3503649635036497	0.512549537648613
6934.600830078125	-5.346153846153847	22.38607039477736	16.8118648765166	-56.52431440742265	-10.92222689646656	2.905000466946295	3485.189743589744	3629.304029304029	0.2746051032806804	-0.3418491484184915	0.52443857331572
6954.132080078125	-6.076923076923078	22.55452053950853	16.81243456303504	-59.73391612260953	-17.86893978837306	2.867629355179099	3491.015384615384	3626.373626373626	0.2867557715674362	-0.3309002433090024	0.5165125495376486
6973.663330078125	-7.384615384615385	21.49571965264519	17.21401736774034	-64.16932494546175	-14.43975636340599	3.354438542963414	3499.753846153846	3626.373626373626	0.2818955042527339	-0.3236009732360097	0.5270805812417437
6993.194580078125	-7.692307692307693	20.70117632567592	16.86426063928066	-69.4162201198934	-3.934233996399922	4.328289248990036	3514.317948717948	3636.630036630037	0.2855407047387606	-0.3126520681265207	0.5284015852047557
7012.725830078125	-4.884615384615385	19.41378487405309	16.88767937426865	-65.35067988127193	-4.502120661095981	5.506444775875228	3511.405128205128	3636.630036630037	0.2940461725394897	-0.3041362530413626	0.5482166446499339
7032.257080078125	-4.076923076923078	20.67726488883415	18.29060171213894	-68.61297776912613	-18.94415175081712	6.210973974468804	3498.297435897436	3629.304029304029	0.2867557715674362	-0.3017031630170317	0.5402906208718626
7051.788330078125	-5.961538461538462	19.2796160004927	20.82689228305722	-69.47621136844379	-24.02627491243349	9.025927935988673	3518.687179487179	3643.956043956044	0.2879708383961118	-0.281021897810219	0.5310435931307794
7071.319580078125	-7.038461538461539	19.19702685225103	20.26404200283304	-71.15263647269548	-25.76413279979568	13.51510952652492	3504.123076923077	3657.142857142857	0.3025516403402187	-0.2725060827250608	0.5614266842800528
7090.850830078125	-6.538461538461539	18.21403276467328	20.83682330479768	-69.73518675426888	-21.09484371211121	14.36395445082974	3502.666666666666	3654.212454212454	0.3013365735115431	-0.2652068126520681	0.5667107001321005
7110.382080078125	-7.923076923076923	17.20910574613537	22.46778961630843	-68.89469823807204	-25.35459379329877	13.90478879954977	3530.338461538461	3658.608058608058	0.31591737545565	-0.2469586374695864	0.5574636723910171
7129.913330078125	-8.653846153846155	16.95644977520478	22.36981893206873	-68.43639977259551	-26.76083982977656	14.70246988514247	3531.794871794872	3658.608058608058	0.3086269744835966	-0.2445255474452555	0.5561426684280053
7149.444580078125	-8.538461538461538	15.27512779454333	21.70514873437211	-67.57657647998711	-29.14286400372983	14.26188814517074	3536.164102564102	3660.07326007326	0.3207776427703524	-0.2360097323600973	0.5627476882430648
7168.975830078125	-9.115384615384617	14.60139650181684	21.35325183223502	-66.81920968846866	-36.7198052848224	12.13772873791401	3531.794871794872	3655.677655677655	0.3256379100850547	-0.2177615571776156	0.560105680317041
7188.507080078125	-8.961538461538462	14.45823581942477	20.66513210568455	-65.32068234109505	-57.01405594521806	9.062658100693461	3495.384615384615	3635.164835164835	0.3317132442284325	-0.2055961070559611	0.5574636723910171
7208.038330078125	-10.19230769230769	12.68118340826507	22.28698343290017	-69.13814527298732	-66.3801090551666	4.517376280545554	3505.579487179487	3629.304029304029	0.3426488456865127	-0.1897810218978102	0.5653896961690885
7227.569580078125	-15.11538461538462	14.90890404631397	21.59325922276283	-69.46669022611117	-60.69443071848291	6.618334839974241	3504.123076923077	3639.560439560439	0.3560145808019441	-0.1873479318734793	0.5680317040951123
7247.100830078125	-16.19230769230769	13.14650951530455	22.32837038861859	-71.69453112531492	-25.34350601030253	10.25942861849706	3502.666666666666	3648.351648351648	0.3511543134872417	-0.1788321167883212	0.5508586525759578
7266.632080078125	-13.61538461538462	13.28328816899674	22.5278992424709	-71.03805120161958	-7.503061497628895	11.24759479499909	3521.6	3649.81684981685	0.3718104495747266	-0.159367396593674	0.5693527080581242
7286.163330078125	-11.19230769230769	10.85567684917165	24.17769600295621	-73.29911797699128	-4.649958313149559	9.66608343337311	3521.6	3646.886446886447	0.3718104495747266	-0.1423357664233577	0.5759577278731837
7305.694580078125	-11.07692307692308	10.24675124715157	23.73936071934471	-71.16344548233394	-8.981490368105872	7.560595061346361	3521.6	3641.025641025641	0.3754556500607533	-0.1386861313868613	0.5733157199471598
7325.225830078125	-10.92307692307692	9.210568454763811	25.39465418488637	-69.90209736259369	-12.33929267953462	5.881750495810182	3496.841025641026	3633.699633699634	0.3657351154313487	-0.1301703163017032	0.570673712021136
7344.757080078125	-11.61538461538462	9.526836854098663	23.7350803719899	-67.24869868583139	-19.43860890802694	7.008713142676003	3504.123076923077	3639.560439560439	0.3778857837181044	-0.1131386861313869	0.5759577278731837
7364.288330078125	-12.5	8.44040617109072	25.09507606084868	-67.65287759124696	-17.53176053249556	7.848149946097717	3518.687179487179	3642.490842490842	0.3730255164034022	-0.1143552311435523	0.5653896961690885
7383.819580078125	-12.26923076923077	8.283403645993717	25.02212539262179	-67.59657841536682	-15.63065647857752	9.091087790796463	3517.230769230769	3643.956043956044	0.3815309842041312	-0.08880778588807786	0.5733157199471598
7403.350830078125	-12.15384615384616	8.545944447865987	25.24123914516228	-68.44047723827288	-18.8350537329596	11.92462566362456	3502.666666666666	3649.81684981685	0.3851761846901579	-0.08637469586374696	0.5772787318361955
7422.882080078125	-14.34615384615385	7.848794420151505	25.7525866847324	-71.05548812817298	-18.7070752165446	14.40103514952445	3515.774358974359	3657.142857142857	0.3924665856622114	-0.07420924574209246	0.5640686922060766
7442.413330078125	-13.30769230769231	6.320856685348279	26.11101188643222	-70.09974718193217	-20.09568742795198	16.8265712097847	3539.076923076923	3664.468864468864	0.3863912515188335	-0.06082725060827251	0.570673712021136
7461.944580078125	-13.03846153846154	4.571049147009915	26.79369649565807	-66.88123430696503	-20.60532915605386	19.64643252089687	3528.882051282051	3667.399267399267	0.3973268529769137	-0.05352798053527981	0.5746367239101717
7481.475830078125	-14.42307692307692	5.177411159696988	24.78328816899673	-63.80963010494299	-25.87162737673148	19.15489023136374	3533.251282051282	3668.864468864469	0.402187120291616	-0.03527980535279805	0.571994715984148
7501.007080078125	-14.65384615384616	4.456788507729261	26.42980538276775	-65.18841027054644	-26.78546464994738	18.34321312967537	3523.05641025641	3663.003663003663	0.4119076549210206	-0.03284671532846716	0.5680317040951123
7520.538330078125	-15.42307692307692	3.242586376793743	26.37068116031287	-67.2902469064835	-19.16791225733106	20.48122334649152	3540.533333333333	3670.32967032967	0.4240583232077764	-0.0145985401459854	0.5812417437252312
7540.069580078125	-16.26923076923077	1.287776374946111	24.95733509884831	-65.81526732128667	-6.533873495023378	20.59281393826263	3539.076923076923	3671.794871794872	0.4191980558930741	-0.00121654501216545	0.5746367239101717
7559.600830078125	-14.57692307692308	1.803912360657757	24.38130504403523	-62.73447019352339	-8.529736809163492	19.31755753792523	3511.405128205128	3665.934065934066	0.4119076549210206	0.008515815085158151	0.5653896961690885
7579.132080078125	-14.46153846153846	1.255804643714972	24.74822935271294	-64.65902978092008	-14.15552267553553	16.83156568329874	3531.794871794872	3664.468864468864	0.416767922235723	0.02554744525547445	0.560105680317041
7598.663330078125	-14.57692307692308	-0.620334729321919	24.43981338917288	-64.28385304012188	-18.87895991191833	15.96425301291469	3525.969230769231	3658.608058608058	0.4143377885783718	0.03041362530413625	0.571994715984148
7618.194580078125	-15.26923076923077	-0.9799916856562173	23.88419966742625	-62.06989251488908	-20.36273224377821	15.51911241903764	3531.794871794872	3661.538461538461	0.4228432563791008	0.04014598540145985	0.5640686922060766
7637.725830078125	-16	-0.7753587485372914	22.07562973455688	-61.6560462212677	-21.33071766569244	14.68896757127004	3527.425641025641	3654.212454212454	0.4240583232077764	0.05231143552311435	0.5693527080581242
7657.257080078125	-16.76923076923077	-1.402167888156679	21.49300979244934	-63.00487529732467	-24.09110998389762	15.4911784694608	3505.579487179487	3657.142857142857	0.4362089914945322	0.06204379562043796	0.560105680317041
7676.788330078125	-16.65384615384615	-2.521501816838086	23.49816776498122	-66.51013503184421	-17.4029802956197	16.0012756289949	3530.338461538461	3661.538461538461	0.4240583232077764	0.06812652068126521	0.5561426684280053
7696.319580078125	-16.80769230769231	-1.901806060232802	23.43645685779393	-69.61074139848361	-14.95327093579352	16.46494205156568	3520.14358974359	3655.677655677655	0.4434993924665856	0.08394160583941607	0.5495376486129459
7715.850830078125	-15.92307692307692	-4.024866046683501	22.93561002648272	-72.27816669509006	-11.59382109064728	16.11704753767708	3514.317948717948	3660.07326007326	0.4398541919805589	0.1021897810218978	0.5521796565389696
7735.382080078125	-15.96153846153846	-4.561456857793928	22.88053519738868	-73.11912967375142	-5.002499056539362	15.78320712249865	3521.6	3658.608058608058	0.4398541919805589	0.1058394160583942	0.5521796565389696
7754.913330078125	-15.88461538461539	-5.7192908172692	24.92607932499846	-71.29797551237377	0.0915136085340939	14.99960917692336	3520.14358974359	3651.282051282051	0.4349939246658566	0.1313868613138686	0.5350066050198151
7774.444580078125	-14.84615384615385	-7.150227874607378	24.28062449959968	-71.31029697886329	0.08372089297284263	14.59149119912652	3544.902564102564	3658.608058608058	0.4434993924665856	0.1423357664233577	0.5363276089828269
7793.975830078125	-14.92307692307692	-7.278037814867278	24.978813820287	-71.8775907928873	-7.906455322282046	13.29277257919585	3524.51282051282	3652.747252747252	0.433778857837181	0.1532846715328467	0.5323645970937913
7813.507080078125	-15.96153846153846	-8.01498891420829	24.40329186426064	-72.43208867795725	-18.22041077489604	13.19517800352041	3504.123076923077	3652.747252747252	0.4507897934386391	0.1605839416058394	0.5336856010568032
7833.038330078125	-17.07692307692308	-8.430159512225165	23.20028330356593	-74.14908118489032	-14.38743266504538	14.47516750560661	3528.882051282051	3658.608058608058	0.4434993924665856	0.1666666666666667	0.5284015852047557
7852.569580078125	-15.76923076923077	-9.475349510377532	22.2290139804151	-72.71182222758759	-10.17198962304698	16.13560240767806	3511.405128205128	3658.608058608058	0.4544349939246658	0.1824817518248175	0.52443857331572
7872.100830078125	-15.23076923076923	-10.92871220052965	19.35868694955965	-73.66007540144177	-9.245016172886929	14.11353834738759	3509.948717948718	3655.677655677655	0.44228432563791	0.1897810218978102	0.5270805812417437
7891.632080078125	-17.15384615384615	-11.28322658126501	17.85363675555829	-79.66031707813028	-12.9102063752597	9.647092943763397	3517.230769230769	3646.886446886447	0.4410692588092345	0.2116788321167883	0.5138705416116248
7911.163330078125	-16.88461538461539	-13.0045497936811	20.95825891482417	-82.77248868283368	-2.073072157369233	6.929443144846481	3502.666666666666	3633.699633699634	0.4544349939246658	0.2177615571776156	0.5085865257595773
7930.694580078125	-15.73076923076923	-11.32990238344522	20.68742686456858	-83.61733643066883	-0.614325505910601	8.176968884757786	3520.14358974359	3642.490842490842	0.4398541919805589	0.2287104622871046	0.5072655217965654
7950.225830078125	-14.65384615384616	-12.44673431052534	21.60594629549794	-83.54198424433808	-7.562285071304158	13.00469495091401	3524.51282051282	3654.212454212454	0.4410692588092345	0.2408759124087591	0.4966974900924703
7969.757080078125	-13.80769230769231	-14.11251308739299	23.27950052349572	-80.76271682439689	-15.51474438223985	18.61166339789095	3509.948717948718	3664.468864468864	0.4447144592952612	0.2506082725060828	0.4900924702774108
7989.288330078125	-14.96153846153846	-15.32294296976042	23.41637925725196	-78.09386814039678	-25.86891008614716	21.33857611115474	3533.251282051282	3668.864468864469	0.456865127582017	0.2579075425790754	0.4808454425363276
8008.819580078125	-16.53846153846154	-15.82904785366755	23.3754696064544	-75.86881683956455	-33.40853532315096	23.28174567230699	3537.620512820513	3679.120879120879	0.4544349939246658	0.2798053527980535	0.476882430647292
8028.350830078125	-17.07692307692308	-17.29186426063928	23.97782841657942	-74.8920359635575	-29.18734795953922	24.53867953310141	3528.882051282051	3679.120879120879	0.4580801944106925	0.2919708029197081	0.4557463672391017
8047.882080078125	-17.69230769230769	-17.97715095153045	24.24216296113814	-73.51685880116689	-22.67929654242673	23.36551847973026	3549.271794871795	3682.051282051282	0.4495747266099635	0.3138686131386861	0.4478203434610304
8067.413330078125	-17.15384615384615	-19.09486050378765	23.81994826630535	-71.21105808797904	-15.24387081492374	23.00865146456729	3534.707692307692	3673.260073260073	0.4434993924665856	0.3102189781021898	0.451783355350066
8086.944580078125	-16.57692307692308	-18.82683839379196	23.30345815113629	-66.72996640238156	-13.04766923374921	22.16947603291081	3540.533333333333	3674.725274725275	0.4617253948967193	0.3260340632603406	0.4346103038309115
8106.475830078125	-16.15384615384615	-19.96612674755189	22.15249122374823	-64.56216320235855	-17.82525461883034	21.28369561644752	3509.948717948718	3668.864468864469	0.4471445929526123	0.3369829683698297	0.4372523117569353
8126.007080078125	-16.65384615384615	-19.57745427110919	20.5265597093059	-63.70233990975016	-20.20727879278362	20.84311387647578	3521.6	3673.260073260073	0.4447144592952612	0.354014598540146	0.4108322324966975
8145.538330078125	-18.19230769230769	-19.74789831865492	19.04876208659235	-67.61225301214982	-9.280728776053977	21.3996417729732	3537.620512820513	3671.794871794872	0.4556500607533414	0.3613138686131387	0.4214002642007926
8165.069580078125	-17.96153846153846	-21.54621389419228	20.27223317115231	-68.33189917577418	6.714808225347873	21.97495686992959	3524.51282051282	3674.725274725275	0.4507897934386391	0.3625304136253041	0.4068692206076618
8184.600830078125	-15.5	-21.38174385662376	19.20257744657264	-63.36303239761825	7.989780677975687	22.75434445728655	3531.794871794872	3676.190476190476	0.4471445929526123	0.378345498783455	0.4002642007926024
8204.132080078125	-13.88461538461539	-21.34985680852374	17.91591734926403	-59.93340661539043	-2.477178971454551	20.98272554174548	3531.794871794872	3674.725274725275	0.4483596597812879	0.3746958637469586	0.3936591809775429
8223.663330078125	-13.76923076923077	-22.35371374022295	17.99337931883969	-58.31526760633447	-17.0992883323411	20.00399652743381	3534.707692307692	3668.864468864469	0.4410692588092345	0.3868613138686132	0.3883751651254954
8243.194580078125	-16.96153846153846	-23.57225010777853	16.72789000431114	-59.67641814888096	-19.86747336610753	20.39808944782773	3544.902564102564	3673.260073260073	0.4447144592952612	0.3978102189781022	0.3844121532364597
8262.725830078125	-18.15384615384615	-23.61406047915255	16.1645624191661	-62.65570770048338	-8.013549038987414	21.77091138253332	3539.076923076923	3674.725274725275	0.4362089914945322	0.413625304136253	0.3738441215323646
8282.257080078125	-16.03846153846154	-24.03474317915871	15.8525435733202	-62.50586318329356	6.538826742078304	21.91493669517208	3520.14358974359	3673.260073260073	0.4349939246658566	0.4111922141119221	0.3698811096433289
8301.788330078125	-15.15384615384616	-23.73124653569009	15.17771139988914	-58.4949169671976	7.801909691249025	20.66296826658446	3533.251282051282	3673.260073260073	0.4362089914945322	0.4184914841849148	0.3540290620871863
8321.319580078125	-12.53846153846154	-24.48671244688058	15.72023772864445	-55.99231173255421	-9.186638412468296	20.05989346789473	3530.338461538461	3673.260073260073	0.4277035236938031	0.4343065693430657	0.3500660501981506
8340.850830078125	-15.19230769230769	-25.43877409620004	15.97716634846339	-55.16272129545327	-20.44889706797817	21.57162803819312	3520.14358974359	3674.725274725275	0.4313487241798298	0.4367396593673966	0.3394980184940555
8360.382080078125	-16.65384615384615	-25.51913068916672	15.68730368910513	-56.86739233589684	-16.60812624256626	23.25973551807616	3550.728205128205	3682.051282051282	0.4179829890643985	0.4464720194647202	0.3355350066050198
8379.913330078125	-15.92307692307692	-26.62833343597955	14.64744102974688	-56.76758991309061	-10.48213889737108	24.54448716321842	3546.358974358974	3679.120879120879	0.4191980558930741	0.4452554744525548	0.3196829590488772
8399.444580078125	-15.65384615384616	-27.07017152183285	13.39319147625793	-54.51230575675091	-9.14152965281828	24.53534041410055	3556.553846153846	3680.58608058608	0.4313487241798298	0.462287104622871	0.2959048877146632
8418.975830078125	-14.30769230769231	-26.76966188335284	14.32924801379565	-50.59319972861	-16.79764476301042	23.19509840679885	3544.902564102564	3679.120879120879	0.4216281895504253	0.4671532846715328	0.3038309114927345
8438.507080078125	-14.92307692307692	-27.58043357763134	13.17552503541295	-49.39904886384576	-29.05905970267953	22.24421621814227	3518.687179487179	3673.260073260073	0.4191980558930741	0.4695863746958638	0.3064729194187583
8458.038330078125	-15.5	-29.15950452669828	11.93676479645255	-49.49714613329735	-31.45297338008989	19.77227846222595	3540.533333333333	3673.260073260073	0.4191980558930741	0.475669099756691	0.2879788639365918
8477.569580078125	-16	-29.47601157849357	12.87750200160128	-50.05524702158012	-36.17271468880728	17.68984573149099	3520.14358974359	3661.538461538461	0.4179829890643985	0.4781021897810219	0.2892998678996037
8497.100830078125	-16	-28.31739237543881	12.6388495411714	-48.7723845096091	-36.25228937813728	15.63540503294737	3509.948717948718	3660.07326007326	0.4191980558930741	0.4793187347931874	0.2760898282694848
8516.632080078125	-17.42307692307692	-28.51706750015397	12.50722116154462	-47.94734600065008	-37.25718998390985	13.57628931526944	3524.51282051282	3655.677655677655	0.425273390036452	0.489051094890511	0.2642007926023778
8536.163330078125	-15.80769230769231	-27.40046652706781	12.75409558415963	-45.27120224076693	-35.01463296959825	12.34746365189536	3524.51282051282	3654.212454212454	0.4228432563791008	0.4963503649635037	0.2417437252311757
8555.694580078125	-15.38461538461539	-27.65212169735788	11.45223871404816	-43.89678130680184	-36.90179912611127	13.94750084221507	3540.533333333333	3660.07326007326	0.4240583232077764	0.5085158150851582	0.2430647291941876
8575.225830078125	-16	-28.82087208228121	10.88975796021433	-42.02586681700157	-34.10818755171317	15.58938087428554	3517.230769230769	3657.142857142857	0.4240583232077764	0.4987834549878346	0.2338177014531044
8594.757080078125	-16.57692307692308	-29.53540524727474	10.65487774835253	-39.71646310060089	-32.26697596810678	17.21735201418208	3507.035897435897	3657.142857142857	0.4204131227217496	0.5072992700729927	0.2285336856010568
8614.288330078125	-15.61538461538462	-29.68225349510377	9.343443985957997	-40.14746455481468	-31.77621473856237	17.63473290632579	3521.6	3660.07326007326	0.416767922235723	0.5097323600973236	0.2192866578599736
8633.819580078125	-16.5	-29.73016105191846	8.777283365153661	-42.3834139347428	-31.23909807588089	17.66246356675188	3527.425641025641	3663.003663003663	0.4240583232077764	0.5121654501216545	0.2087186261558785
8653.350830078125	-16.30769230769231	-30.48996119972901	8.113444601835314	-40.49098505271177	-25.16725887938404	18.92874746581491	3523.05641025641	3667.399267399267	0.4131227217496962	0.5109489051094891	0.1955085865257596
8672.882080078125	-16.19230769230769	-30.0503556691507	9.094706534458336	-40.33222937574169	-18.07123771832671	21.85526297779864	3504.123076923077	3668.864468864469	0.4119076549210206	0.51338199513382	0.2100396301188904
8692.413330078125	-15.88461538461539	-30.24506528299563	8.907110303627517	-41.13888203321822	-10.52546729947915	22.346950473868	3549.271794871795	3679.120879120879	0.4070473876063183	0.5158150851581509	0.1809775429326288
8711.944580078125	-15.69230769230769	-30.54295744287738	8.224795220792018	-39.27280123752085	-8.20128720188961	23.98418452811141	3530.338461538461	3680.58608058608	0.4070473876063183	0.5279805352798054	0.1796565389696169
8731.475830078125	-13.92307692307692	-31.14539323766706	7.731200344891297	-39.29213601393244	-10.0790131091239	23.96560061680318	3550.728205128205	3683.516483516483	0.4058323207776428	0.5340632603406327	0.1558784676354029
8751.007080078125	-13.69230769230769	-31.40632506004804	7.08548377163269	-36.18622149072557	-14.39086294506187	24.29958623851786	3524.51282051282	3676.190476190476	0.4094775212636695	0.5304136253041363	0.1638044914134743
8770.538330078125	-15.11538461538462	-31.69838178234896	5.803704502063189	-36.68584358730902	-15.80899848499675	23.06591130816598	3562.379487179487	3682.051282051282	0.3973268529769137	0.524330900243309	0.1466314398943197
8790.069580078125	-13.84615384615385	-32.58191168319271	6.403276467327708	-35.37302998579153	-17.73512821931604	22.62535860950149	3537.620512820513	3674.725274725275	0.4070473876063183	0.5401459854014599	0.1413474240422721
8809.600830078125	-14.30769230769231	-32.63204409681592	5.525281763872637	-34.53036185377555	-20.59437658563913	21.77201291390585	3518.687179487179	3673.260073260073	0.3948967193195626	0.5328467153284672	0.1387054161162483
8829.132080078125	-14.92307692307692	-32.43816591734927	4.139065098232432	-34.18295658670465	-22.07075706216819	18.89663219932699	3531.794871794872	3668.864468864469	0.3924665856622114	0.5474452554744526	0.130779392338177
8848.663330078125	-15.11538461538462	-32.97555736897211	4.277868448605037	-32.87592560421914	-19.80317436745533	16.86542138991866	3528.882051282051	3664.468864468864	0.4009720534629404	0.5413625304136254	0.1241743725231176
8868.194580078125	-14.46153846153846	-32.9531009422923	4.424277883845538	-32.4705160079135	-15.64637712228153	14.04579240926448	3541.989743589743	3658.608058608058	0.3827460510328068	0.5291970802919708	0.1281373844121533
8887.725830078125	-13.92307692307692	-32.08614583974873	4.768830448974565	-30.28916065051089	-14.35252417109624	11.58793779336557	3528.882051282051	3654.212454212454	0.3839611178614824	0.551094890510949	0.1162483487450462
8907.257080078125	-13.88461538461539	-32.69970591858102	4.639142082897087	-28.96933373907132	-14.40872071374248	10.75785102821247	3501.210256410256	3646.886446886447	0.3791008505467801	0.551094890510949	0.09511228533685601
8926.788330078125	-12.84615384615385	-32.28763010408327	4.150735973394101	-29.00895221682359	-13.50102862237035	9.134671072679225	3521.6	3646.886446886447	0.3827460510328068	0.5474452554744526	0.09907529722589167
8946.319580078125	-13.15384615384616	-32.46629611381412	3.776344152244873	-28.10515121482457	-13.98974145796683	9.528909199609393	3501.210256410256	3643.956043956044	0.3778857837181044	0.5498783454987835	0.1017173051519155
8965.850830078125	-13.65384615384616	-32.19694986758637	4.270570302395763	-28.06117350543395	-12.09643011961004	10.3637290665113	3508.492307692307	3649.81684981685	0.370595382746051	0.5535279805352799	0.08322324966974901
8985.382080078125	-13.46153846153846	-33.00294081418981	3.993194555644516	-26.24172449741093	-10.73449112232141	10.76731723171008	3515.774358974359	3648.351648351648	0.3718104495747266	0.5535279805352799	0.08982826948480846
9004.913330078125	-14	-33.90145962924186	5.226827615938905	-23.07079233504723	-7.54323004488348	10.76752052086082	3524.51282051282	3652.747252747252	0.3839611178614824	0.5571776155717761	0.07529722589167767
9024.444580078125	-13.5	-34.42947434870974	4.204486666256082	-20.37701895210712	-7.155020791122401	10.74446487956903	3531.794871794872	3651.282051282051	0.3778857837181044	0.5547445255474452	0.07793923381770146
9043.975830078125	-13.23076923076923	-34.20231569871282	4.11578493564082	-17.31337698493626	-9.628108297632339	9.05644452360773	3514.317948717948	3645.421245421245	0.3730255164034022	0.5523114355231144	0.07397622192866579
9063.507080078125	-13.57692307692308	-33.83054905462831	3.181298885262056	-14.23788801374042	-9.761831135660671	6.983536078984878	3491.015384615384	3636.630036630037	0.3584447144592952	0.5535279805352799	0.05548216644649934
9083.038330078125	-13.53846153846154	-33.74431853174848	2.677465048962247	-12.4703789499592	-7.499992762561147	5.355826310853572	3472.082051282051	3632.234432234432	0.3657351154313487	0.559610705596107	0.0607661822985469
9102.569580078125	-14.69230769230769	-33.60905647595	2.837439182114923	-13.84574880885338	-0.9496827002074093	2.169776987617071	3498.297435897436	3626.373626373626	0.3681652490886999	0.5571776155717761	0.05284015852047556
9122.100830078125	-13.42307692307692	-32.97829802303382	2.722593459382891	-12.87209647359462	6.534146854380571	2.234878759810364	3480.820512820513	3624.908424908425	0.3657351154313487	0.5486618004866181	0.05548216644649934
9141.632080078125	-13.34615384615385	-32.35393699575045	2.196849787522325	-12.83655546151971	13.55224085982539	1.080214493825696	3499.753846153846	3627.838827838828	0.3645200486026731	0.5620437956204379	0.04491413474240423
9161.163330078125	-12.80769230769231	-32.52319547946049	2.429004742255343	-11.89408490669751	16.81897983869748	1.511620443372317	3498.297435897436	3624.908424908425	0.3693803159173754	0.5547445255474452	0.06605019815059446
9180.694580078125	-13.19230769230769	-32.4070256204964	2.774357947896779	-9.187515594803328	14.88340985509945	2.689688846335762	3492.471794871794	3627.838827838828	0.3693803159173754	0.5547445255474452	0.059445178335535
9200.225830078125	-11.15384615384616	-32.70531810063435	2.188981954794605	-6.512128063345708	8.730749295785534	4.234061426652536	3511.405128205128	3635.164835164835	0.3584447144592952	0.559610705596107	0.05548216644649934
9219.757080078125	-11.76923076923077	-33.20122251647472	2.59958736219745	-2.506771769778172	1.129183194522154	5.750645263928717	3488.102564102564	3635.164835164835	0.3547995139732685	0.5535279805352799	0.0488771466314399
9239.288330078125	-11.76923076923077	-33.95105315021248	1.629580587546961	0.06037664155751062	-6.024682042898918	4.020782066216659	3502.666666666666	3633.699633699634	0.3584447144592952	0.5535279805352799	0.0488771466314399
9258.819580078125	-13.11538461538462	-34.54564420767383	1.936056537537723	3.514170894299804	-14.1444843082863	2.272393039810873	3488.102564102564	3627.838827838828	0.3633049817739976	0.5669099756690997	0.0488771466314399
9278.350830078125	-13.42307692307692	-33.91597123852929	1.529331157233479	6.529001457977142	-18.98031462996159	-0.2550931608793874	3488.102564102564	3629.304029304029	0.3645200486026731	0.5669099756690997	0.05284015852047556
9297.882080078125	-14.42307692307692	-33.02853821518754	2.388449220915194	7.767411798092988	-18.62162870472804	-3.937359792783312	3489.558974358974	3614.652014652014	0.3718104495747266	0.559610705596107	0.05151915455746367
9317.413330078125	-13.34615384615385	-33.72657356654554	1.597909096507976	8.628940244056015	-17.27157921089649	-5.565127643529116	3480.820512820513	3608.791208791209	0.3596597812879708	0.5620437956204379	0.04095112285336856
9336.944580078125	-13.92307692307692	-32.83366693354684	1.76026975426495	9.059467235805252	-15.43076848752054	-6.775514602131216	3491.015384615384	3608.791208791209	0.3620899149453219	0.5632603406326034	0.0488771466314399
9356.475830078125	-13.42307692307692	-32.78968559462955	0.9842797314774896	9.945638614747317	-14.06513356256649	-7.587046497283342	3482.276923076923	3605.860805860806	0.3620899149453219	0.5669099756690997	0.04095112285336856
9376.007080078125	-13.69230769230769	-33.25549670505635	1.467142945125331	10.00364294398209	-8.431955840863632	-7.531294763358661	3470.625641025641	3605.860805860806	0.3645200486026731	0.5535279805352799	0.05284015852047556
9395.538330078125	-13.26923076923077	-33.57566822688921	-0.255050194001355	9.204003596427627	0.9837477696569652	-7.42914133377791	3489.558974358974	3607.326007326007	0.3608748481166464	0.5571776155717761	0.04623513870541612
9415.069580078125	-12.42307692307692	-33.05354283426742	1.638680174909158	8.736037742745287	1.451130852517616	-8.236114375024723	3483.733333333333	3608.791208791209	0.3754556500607533	0.5547445255474452	0.05019815059445178
9434.600830078125	-13.42307692307692	-33.14381505204163	1.383060294389358	8.726370354539492	0.5122678989004732	-8.245406330678838	3470.625641025641	3604.395604395604	0.3572296476306197	0.5693430656934306	0.05284015852047556
9454.132080078125	-12.5	-32.82106454394285	-0.292926649011517	7.797926419561432	0.9853953033744555	-9.455880413202685	3467.71282051282	3598.534798534799	0.370595382746051	0.551094890510949	0.05680317040951123
9473.663330078125	-12.92307692307692	-33.21223132352036	0.4577200221715836	6.472791351554414	2.903732322132488	-9.423445692335033	3482.276923076923	3600	0.3766707168894289	0.5583941605839417	0.05416116248348745
9493.194580078125	-12.23076923076923	-33.03194863583175	0.3666625608178851	6.487292433863106	4.312026752558203	-9.409507758853863	3483.733333333333	3601.465201465201	0.3693803159173754	0.5535279805352799	0.047556142668428
9512.725830078125	-12.69230769230769	-33.71104575968467	0.1676725996181563	4.717129291798156	2.981258617514571	-8.180624012865284	3489.558974358974	3605.860805860806	0.3742405832320777	0.5571776155717761	0.05812417437252312
9532.257080078125	-11.65384615384616	-32.50448820594938	0.3397949128533599	4.318258542950025	3.025966516934158	-6.543535165158117	3473.538461538461	3608.791208791209	0.3863912515188335	0.5547445255474452	0.06605019815059446
9551.788330078125	-12.07692307692308	-32.42296914454641	0.5330726119357023	2.52345246790604	1.679612950768024	-6.130887374763216	3482.276923076923	3610.25641025641	0.370595382746051	0.551094890510949	0.05151915455746367
9571.319580078125	-12.46153846153846	-32.37762517706473	0.5735665455441276	2.026484449606314	-0.6695928272227542	-6.965736282972372	3479.364102564102	3610.25641025641	0.3791008505467801	0.5559610705596108	0.06340819022457067
9590.850830078125	-12.57692307692308	-32.72176972347108	0.5884861735542281	1.615292234268665	-0.6326776433644182	-5.736765413062044	3460.430769230769	3610.25641025641	0.3839611178614824	0.5437956204379563	0.05019815059445178
9610.382080078125	-12.5	-32.34452946972963	0.8803196403276468	2.56525056147749	2.172422574260349	-4.90188746354564	3461.887179487179	3611.721611721612	0.3815309842041312	0.5474452554744526	0.05812417437252312
9629.913330078125	-12.76923076923077	-33.10288230584467	0.6056537537722487	0.784471106277649	4.565935391440284	-5.268307806127965	3483.733333333333	3610.25641025641	0.3839611178614824	0.5474452554744526	0.06340819022457067
9649.444580078125	-13.03846153846154	-32.87352189443863	0.9453254911621606	0.8064599609729617	5.512591060618679	-4.850897872677011	3501.210256410256	3616.117216117216	0.3791008505467801	0.551094890510949	0.05151915455746367
9668.975830078125	-12.07692307692308	-32.43990577077047	1.379903923138511	1.689221033205771	-0.5859213499969106	-3.288057546281006	3476.451282051281	3617.582417582417	0.3778857837181044	0.5450121654501217	0.05416116248348745
9688.507080078125	-12.65384615384616	-32.92733417503234	1.32824721315514	2.982699858311682	-4.389776991550481	-3.747194156253723	3456.061538461538	3610.25641025641	0.3730255164034022	0.5535279805352799	0.059445178335535
9708.038330078125	-12.5	-34.21448697419474	2.070502555890867	2.522221777015961	-4.384032669937151	-4.150695197530755	3486.646153846154	3616.117216117216	0.3876063183475091	0.537712895377129	0.06869220607661823
9727.569580078125	-12.46153846153846	-32.73329432776991	1.049331773110796	3.827547606146842	-5.848523643009114	-4.994719896165028	3476.451282051281	3613.186813186813	0.3754556500607533	0.5535279805352799	0.06208718626155878
9747.100830078125	-12.73076923076923	-33.50781394346247	1.583004865430806	3.397020614397603	-7.689334366385064	-3.784332937562928	3476.451282051281	3613.186813186813	0.3778857837181044	0.5535279805352799	0.05548216644649934
9766.632080078125	-13.19230769230769	-33.26001570487158	1.193092935887171	3.384699147908085	-7.697127081946316	-4.192450915359768	3491.015384615384	3614.652014652014	0.3803159173754556	0.5523114355231144	0.0607661822985469
9786.163330078125	-13.07692307692308	-33.29078647533411	0.6931699205518263	3.411521696706295	-6.28103993595935	-3.770395004081758	3488.102564102564	3614.652014652014	0.3766707168894289	0.5437956204379563	0.06605019815059446
9805.694580078125	-13.38461538461539	-33.1314898072304	0.7283365153661391	3.4480116337103	-3.92608983635524	-3.339047137149635	3507.035897435897	3620.51282051282	0.3924665856622114	0.5535279805352799	0.05680317040951123
9825.225830078125	-14.30769230769231	-32.60817885077293	0.4858656155693787	3.940145957907127	-2.046315535173034	-2.508844206767536	3488.102564102564	3620.51282051282	0.3791008505467801	0.5547445255474452	0.05548216644649934
9844.757080078125	-13.11538461538462	-33.72190829586747	1.133876331834699	3.496823037203822	-1.56334702118988	-2.499581292420671	3477.907692307692	3619.047619047619	0.3791008505467801	0.5486618004866181	0.05284015852047556
9864.288330078125	-13.84615384615385	-32.69584898688181	0.5616801133214264	3.065821582990035	-1.072585791645475	-2.082200400276967	3495.384615384615	3617.582417582417	0.3839611178614824	0.5498783454987835	0.0607661822985469
9883.819580078125	-14.07692307692308	-32.7359272033011	0.873283241978198	3.046486806578445	-2.950311698879762	-2.100784311585194	3482.276923076923	3617.582417582417	0.3754556500607533	0.5474452554744526	0.06605019815059446
9903.350830078125	-13.57692307692308	-32.93290786475334	0.6069316992055182	3.027152030166855	-4.828037606114047	-2.119368222893421	3476.451282051281	3614.652014652014	0.3839611178614824	0.5450121654501217	0.05812417437252312
9922.882080078125	-12.96153846153846	-32.56017891236066	0.5858686949559649	2.118517334064932	-4.808756247326134	-2.518252327650645	3493.928205128205	3619.047619047619	0.3827460510328068	0.5547445255474452	0.04359313077939234
9942.413330078125	-14	-32.69741947404077	0.7940506251154771	1.667706640975007	-3.86414897209566	-2.912461413273563	3496.841025641026	3620.51282051282	0.3815309842041312	0.5450121654501217	0.05284015852047556
9961.944580078125	-14.03846153846154	-32.45492547884462	0.2462739422307079	2.588188341101899	-1.544065662401967	-2.898465397177895	3486.646153846154	3619.047619047619	0.3851761846901579	0.5389294403892945	0.05019815059445178
9981.475830078125	-14.26923076923077	-32.50655139496212	1.135262055798485	2.644487516982042	0.3570383915160731	-1.655527552479149	3479.364102564102	3623.443223443223	0.3754556500607533	0.5401459854014599	0.06472919418758256
10001.00708007813	-13.19230769230769	-32.87740192153723	1.293172999938412	2.639653822879144	-0.1123930852924985	-1.660173530306206	3472.082051282051	3620.51282051282	0.3803159173754556	0.5401459854014599	0.047556142668428
10020.53833007813	-13.80769230769231	-31.69196126131674	0.328832296606516	2.147519498682317	-1.992167386474705	-2.490376460688304	3492.471794871794	3619.047619047619	0.3863912515188335	0.5474452554744526	0.05284015852047556
10040.06958007813	-13.84615384615385	-32.59884830941676	1.480877009299748	2.140506188760245	-3.86210057814774	-2.100842394199692	3488.102564102564	3619.047619047619	0.3766707168894289	0.5523114355231144	0.06472919418758256
10059.60083007813	-13.80769230769231	-33.11540771078401	0.3473086161236683	2.162495043455558	-2.915444908969346	-1.683432460748739	3473.538461538461	3620.51282051282	0.3778857837181044	0.5535279805352799	0.06472919418758256
10079.13208007813	-15.11538461538462	-32.99942261501509	1.624976904600604	1.706850656262735	-2.440269110547443	-2.082287524198714	3472.082051282051	3616.117216117216	0.3876063183475091	0.5486618004866181	0.05019815059445178
10098.66333007813	-13.96153846153846	-32.42411621604976	0.5519646486419905	1.263527735559429	-1.957300596564289	-2.073024609851849	3488.102564102564	3617.582417582417	0.3912515188335358	0.5462287104622872	0.05548216644649934
10118.19458007813	-13.69230769230769	-32.96603436595431	0.4555644515612489	1.236230724296671	-1.0418157896309	-3.288086587588255	3507.035897435897	3620.51282051282	0.3827460510328068	0.5462287104622872	0.05284015852047556
10137.72583007813	-13.15384615384616	-33.23152368048284	1.653107101065468	1.662398484407561	-2.002008495983877	-3.710113457559016	3486.646153846154	3616.117216117216	0.3791008505467801	0.5450121654501217	0.05284015852047556
10157.25708007813	-13.92307692307692	-32.70587239021987	1.139773357147256	2.578520952896104	-2.48292861601911	-2.907757352832009	3479.364102564102	3617.582417582417	0.3791008505467801	0.551094890510949	0.05284015852047556
10176.78833007813	-13.92307692307692	-33.31867032087209	1.010439120527191	2.125056181522456	-0.6072511027327441	-3.700792460597654	3498.297435897436	3617.582417582417	0.3815309842041312	0.5364963503649636	0.05416116248348745
10196.31958007813	-13.61538461538462	-32.21079940875778	1.078431976350311	3.031511261805204	-2.027034176385121	-2.90772831152476	3480.820512820513	3617.582417582417	0.3827460510328068	0.5486618004866181	0.059445178335535
10215.85083007813	-13.53846153846154	-32.2869988298331	0.9653261070394776	2.118042871600384	-2.477184294405779	-3.311258394109041	3483.733333333333	3619.047619047619	0.3851761846901579	0.5523114355231144	0.059445178335535
10235.38208007813	-13.26923076923077	-32.5525420336269	0.5117170659604606	3.506964887874165	-2.956056020493092	-1.697283270308162	3460.430769230769	3619.047619047619	0.3778857837181044	0.5389294403892945	0.0607661822985469
10254.91333007813	-13.03846153846154	-33.57331249615077	1.319470961384492	2.602689423410591	-0.1357712319762522	-2.884527463696725	3493.928205128205	3617.582417582417	0.3766707168894289	0.5474452554744526	0.0607661822985469
10274.44458007813	-13.07692307692308	-33.15375377224856	1.533842458582251	1.716043582003981	0.8301657959900554	-2.866001635002996	3507.035897435897	3620.51282051282	0.3754556500607533	0.5425790754257908	0.05284015852047556
10293.97583007813	-13.23076923076923	-32.53559770893639	1.549116216049763	3.065821582990035	-1.072585791645475	-2.082200400276967	3473.538461538461	3617.582417582417	0.3900364520048603	0.5401459854014599	0.04623513870541612
10313.50708007813	-12.5	-32.38379164870358	0.9203516659481431	2.62998643467335	-1.051256038909642	-1.66946548596032	3473.538461538461	3621.978021978022	0.3863912515188335	0.5474452554744526	0.05548216644649934
10333.03833007813	-13.03846153846154	-32.49244780439737	1.122390219868203	2.651975289368662	-0.1046003697312472	-1.252055552509366	3485.189743589744	3621.978021978022	0.3912515188335358	0.5450121654501217	0.06472919418758256
10352.56958007813	-13.34615384615385	-33.05988637063497	0.9558569932869373	2.676618222347698	-0.08901493860874465	-0.4358195969156868	3489.558974358974	3617.582417582417	0.3803159173754556	0.5437956204379563	0.05812417437252312
10372.10083007813	-13.38461538461539	-32.4563342982078	1.58594567962062	2.246091230598458	-1.929825661984695	0.7745673616864133	3486.646153846154	3629.304029304029	0.3839611178614824	0.5450121654501217	0.06605019815059446
10391.63208007813	-13.88461538461539	-31.98374853729138	1.533580710722424	3.145058538494587	-2.887969974389752	1.164159510789524	3464.8	3620.51282051282	0.3912515188335358	0.551094890510949	0.059445178335535
10411.16333007813	-14.30769230769231	-32.28638295251587	1.703763010408327	1.802293847430605	0.8847148049188142	-0.009175790425117909	3505.579487179487	3629.304029304029	0.3863912515188335	0.5450121654501217	0.05548216644649934
10430.69458007813	-13.42307692307692	-33.05682238098171	0.8795805875469607	1.814615313920123	0.8925075204800654	0.3989421873717218	3483.733333333333	3621.978021978022	0.3863912515188335	0.5486618004866181	0.05284015852047556
10450.22583007813	-14.34615384615385	-32.30717651043912	0.8588255219560264	1.816794929739297	2.293009235344529	0.004762143056052316	3498.297435897436	3624.908424908425	0.3778857837181044	0.5547445255474452	0.05812417437252312
10469.75708007813	-13.46153846153846	-32.08759315144422	0.5335037260577693	2.721070394202871	-0.5272755531723111	1.192006336444615	3476.451282051281	3623.443223443223	0.3851761846901579	0.537712895377129	0.06605019815059446
10489.28833007813	-13.03846153846154	-32.92125238652461	1.408773172384061	1.780304992735293	-0.06194086425958019	-0.4265857238760711	3508.492307692307	3623.443223443223	0.393681652490887	0.5498783454987835	0.07133421400264201
10508.81958007813	-13.73076923076923	-32.21852097062265	1.579894684978752	3.120415605515551	-2.903555405512254	0.3479235551958443	3480.820512820513	3623.443223443223	0.3803159173754556	0.5474452554744526	0.06340819022457067
10528.35083007813	-13.69230769230769	-32.83054135616185	1.373221654246474	3.55094259726479	-1.062744682136304	-0.8624634034062557	3482.276923076923	3624.908424908425	0.3815309842041312	0.5450121654501217	0.05416116248348745
10547.88208007813	-13.80769230769231	-32.23701268707274	0.6583266613290633	3.122120758870178	0.828518262272565	-0.8392625555782209	3491.015384615384	3621.978021978022	0.370595382746051	0.5474452554744526	0.0607661822985469
10567.41333007813	-13.65384615384616	-32.79589055860073	1.525297160805567	3.122120758870178	0.828518262272565	-0.8392625555782209	3492.471794871794	3623.443223443223	0.3851761846901579	0.5498783454987835	0.0607661822985469
10586.94458007813	-12.65384615384616	-32.64403060910266	0.6246073782102606	2.651975289368662	-0.1046003697312472	-1.252055552509366	3509.948717948718	3623.443223443223	0.3754556500607533	0.5571776155717761	0.05019815059445178
10606.47583007813	-14.03846153846154	-33.11776344152244	0.6958643838147443	4.449909905160919	-2.02088899454136	-0.4728712543031451	3469.169230769231	3621.978021978022	0.3839611178614824	0.5547445255474452	0.07001321003963013
10626.00708007813	-14.38461538461539	-32.97310155816962	1.501231754634477	2.642307901162867	-1.04346332334839	-1.26134750816348	3476.451282051281	3621.978021978022	0.3791008505467801	0.5523114355231144	0.06737120211360634
10645.53833007813	-13.80769230769231	-32.73510346738929	0.5628656771571103	1.745520209085914	1.31518270392113	-2.04511970158226	3505.579487179487	3617.582417582417	0.393681652490887	0.5413625304136254	0.05151915455746367
10665.06958007813	-13.92307692307692	-33.23629672969145	0.7379134076491963	2.622498662286729	-0.5896172776623212	-2.072937485930102	3480.820512820513	3619.047619047619	0.3827460510328068	0.5523114355231144	0.05812417437252312
10684.60083007813	-13.46153846153846	-32.74735172753587	0.8291248383322042	2.615010889900109	-0.127978516415001	-2.476409485899886	3479.364102564102	3621.978021978022	0.3851761846901579	0.5608272506082725	0.07397622192866579
10704.13208007813	-13.46153846153846	-33.40095153045513	0.8168072919874361	1.696708805592391	-1.047560111244231	-2.884585546311223	3486.646153846154	3617.582417582417	0.3791008505467801	0.5413625304136254	0.06340819022457067
10723.66333007813	-13.23076923076923	-32.52866908911745	1.202685225103159	1.701542499695289	-0.5781286344356593	-2.879939568484166	3498.297435897436	3620.51282051282	0.3742405832320777	0.5413625304136254	0.06472919418758256
10743.19458007813	-13.23076923076923	-32.75808338978875	1.134938720206935	2.162020580991009	-0.5838729560489903	-2.476438527207134	3485.189743589744	3621.978021978022	0.3888213851761846	0.5425790754257908	0.0607661822985469
10762.72583007813	-13.46153846153846	-32.55181067931268	0.6674570425571227	2.617664968183832	-1.059048754470893	-2.077583463757159	3476.451282051281	3619.047619047619	0.3827460510328068	0.5486618004866181	0.05812417437252312
10782.25708007813	-12.26923076923077	-32.83795497936811	0.3208258914824167	1.755662059756257	-0.07752629538208272	-1.24282167946975	3477.907692307692	3620.51282051282	0.3900364520048603	0.5523114355231144	0.06472919418758256
10801.78833007813	-13.42307692307692	-32.05371220052965	0.7240715649442631	1.300017672563434	0.3976495030398198	-1.641676742919726	3492.471794871794	3619.047619047619	0.3827460510328068	0.5523114355231144	0.06208718626155878
10821.31958007813	-13.46153846153846	-32.23771324752109	0.3472008375931515	1.314993217336675	-0.5256280194548209	-0.8347327429801598	3492.471794871794	3619.047619047619	0.3730255164034022	0.5523114355231144	0.05812417437252312
10840.85083007813	-13.42307692307692	-32.67728798423354	1.133629980907803	2.2187942193357	-1.014340855051305	-0.4404946160499925	3472.082051282051	3620.51282051282	0.3863912515188335	0.5413625304136254	0.06472919418758256
10860.38208007813	-13.53846153846154	-32.65575537352959	2.095460984171953	2.235949379928115	-0.5371166626814827	-0.02773066042609598	3472.082051282051	3623.443223443223	0.3876063183475091	0.5462287104622872	0.06208718626155878
10879.91333007813	-13.15384615384616	-32.75575845291618	0.9417687996551089	1.767983526245775	-0.06973357982083145	-0.8347037016729109	3485.189743589744	3621.978021978022	0.3876063183475091	0.5523114355231144	0.05812417437252312
10899.44458007813	-12.96153846153846	-32.90968928989345	0.7536952639034305	2.189317592253767	-1.49935776298238	-1.261376549470729	3499.753846153846	3623.443223443223	0.3827460510328068	0.5437956204379563	0.05019815059445178
10918.97583007813	-13.07692307692308	-32.65566299193201	-0.2937734803227197	3.095298210071968	-0.587568883714401	-1.261318466856231	3496.841025641026	3623.443223443223	0.3900364520048603	0.5304136253041363	0.05284015852047556
10938.50708007813	-14	-32.98611196649628	1.767136786352159	3.117761527231828	-1.972485167456362	-0.0509024669468819	3474.994871794872	3624.908424908425	0.3863912515188335	0.5413625304136254	0.06208718626155878
10958.03833007813	-13.34615384615385	-32.03906971731231	1.838101250230954	1.767983526245775	-0.06973357982083145	-0.8347037016729109	3498.297435897436	3624.908424908425	0.3948967193195626	0.5462287104622872	0.07397622192866579
10977.56958007813	-12.61538461538462	-32.05970930590626	0.2162345260824046	3.083451206046998	-2.926933552196008	-0.8764303781946748	3476.451282051281	3621.978021978022	0.3778857837181044	0.5462287104622872	0.0607661822985469
10997.10083007813	-13.5	-32.90517798854469	1.066591734926403	3.511798581977063	-2.486624543684521	-1.692637292481106	3483.733333333333	3621.978021978022	0.3742405832320777	0.5413625304136254	0.05548216644649934
11016.63208007813	-13.73076923076923	-32.68812742501694	1.983294327769908	3.53596705249155	-0.1394671596416629	-1.669407403345822	3493.928205128205	3621.978021978022	0.3815309842041312	0.5425790754257908	0.06472919418758256
11036.16333007813	-13.5	-32.21616523988421	1.231338917287676	3.54345482487817	-0.6011059208889832	-1.265935403376039	3499.753846153846	3623.443223443223	0.3851761846901579	0.5425790754257908	0.07001321003963013
11055.69458007813	-13.57692307692308	-32.71042218390097	1.021109195048346	3.526299664285755	-1.078330113258806	-1.678699358999935	3498.297435897436	3624.908424908425	0.3742405832320777	0.5450121654501217	0.05151915455746367
11075.22583007813	-13.34615384615385	-33.01677495842828	0.7233633060294388	3.531607820853201	-2.94047058937059	-0.8810473147144827	3477.907692307692	3623.443223443223	0.3803159173754556	0.5425790754257908	0.05548216644649934
11094.75708007813	-13.96153846153846	-31.87675525035413	0.1069932869372423	3.519286354363683	-2.948263304931841	-1.289165292511322	3477.907692307692	3621.978021978022	0.3742405832320777	0.5486618004866181	0.059445178335535
11114.28833007813	-12.84615384615385	-33.24531933238899	0.112120465603252	3.078143049479552	-1.064793076084224	-1.674082422480127	3492.471794871794	3623.443223443223	0.3839611178614824	0.5401459854014599	0.0607661822985469
11133.81958007813	-13.38461538461539	-32.52408080310402	1.127117078278007	3.095298210071968	-0.587568883714401	-1.261318466856231	3485.189743589744	3620.51282051282	0.3791008505467801	0.5608272506082725	0.06340819022457067
11153.35083007813	-13.38461538461539	-32.81277329555952	0.1771263164377654	2.647141595265765	-0.5740318465398188	-1.256701530336423	3483.733333333333	3621.978021978022	0.3766707168894289	0.537712895377129	0.06208718626155878
11172.88208007813	-13.53846153846154	-32.26313358379011	1.695140727966989	2.652449751833211	-2.436172322651602	-0.4590494860509705	3466.25641025641	3619.047619047619	0.3778857837181044	0.5450121654501217	0.06472919418758256
11192.41333007813	-13.88461538461539	-32.4379580587547	1.167133706965573	0.8276925872427446	-1.935970843828456	-1.660289695535202	3499.753846153846	3623.443223443223	0.3888213851761846	0.5486618004866181	0.06472919418758256
11211.94458007813	-13.84615384615385	-32.56266551702901	1.594814312988853	1.275849202048947	-1.949507881003038	-1.664906632055009	3479.364102564102	3616.117216117216	0.3730255164034022	0.5498783454987835	0.06208718626155878
11231.47583007813	-14.07692307692308	-32.04845414793373	1.115015088994273	0.3913829764615114	0.416930861827733	-2.04056084767695	3498.297435897436	3620.51282051282	0.3839611178614824	0.5413625304136254	0.05548216644649934
11251.00708007813	-13.19230769230769	-33.86896440229106	0.8712970376301042	1.314993217336675	-0.5256280194548209	-0.8347327429801598	3474.994871794872	3620.51282051282	0.3827460510328068	0.5535279805352799	0.059445178335535
11270.53833007813	-13.34615384615385	-32.30620650366447	1.733402106300425	0.3672145059470244	-1.930226522215125	-2.063790736812234	3507.035897435897	3617.582417582417	0.3863912515188335	0.5486618004866181	0.0607661822985469
