Time Stamp	Accelerometer X	Accelerometer Y	Accelerometer Z	Gyroscope X	Gyroscope Y	Gyroscope Z	VSenseReg	VSenseBatt	Magnetometer X	Magnetometer Y	Magnetometer Z
460.968017578125	-15.46153846153846	-32.54759191968959	0.5334421383260455	-79.74824060386989	-6.733545799615587	-10.29026121522276	3457.517948717949	3595.604395604395	0.3948967193195626	0.5340632603406327	0.059445178335535
480.499267578125	-15.30769230769231	-32.74002278746074	0.3857547576522757	3.169227009009074	-0.5408125903468933	1.187389399924808	3486.646153846154	3621.978021978022	0.4034021871202916	0.5425790754257908	0.05680317040951123
500.030517578125	-14.88461538461539	-31.79610611566176	0.8437673215495474	4.836459187519532	-2.073389609522198	-2.518078079807152	3480.820512820513	3619.047619047619	0.4119076549210206	0.5364963503649636	0.059445178335535
519.561767578125	-14.46153846153846	-32.52968528669089	0.5611874114676358	3.94280003619085	-2.977385773228926	-2.110018184624809	3491.015384615384	3617.582417582417	0.3948967193195626	0.5316301703163017	0.05019815059445178
539.093017578125	-14.76923076923077	-32.38578555151814	1.366200652829956	3.518811891899135	-0.6166913520114856	-2.082171358969718	3507.035897435897	3617.582417582417	0.3912515188335358	0.5316301703163017	0.0607661822985469
558.624267578125	-14.76923076923077	-31.86844860503788	0.4993533288168996	3.54345482487817	-0.6011059208889832	-1.265935403376039	3486.646153846154	3620.51282051282	0.4058323207776428	0.5389294403892945	0.05019815059445178
578.155517578125	-15.11538461538462	-31.86851789123607	0.8489714848802119	3.132262609540521	-0.5641907370306472	-0.03696453346571167	3483.733333333333	3626.373626373626	0.4070473876063183	0.5486618004866181	0.06869220607661823
597.686767578125	-14.61538461538462	-31.74755188766398	0.06990207550655914	2.24561676813391	0.4017462909356604	-0.0184387047719825	3488.102564102564	3624.908424908425	0.4034021871202916	0.5328467153284672	0.06208718626155878
617.218017578125	-14.73076923076923	-32.14327615938905	0.7407310463755619	1.809781619817225	0.4230760436714939	0.3942962095446651	3492.471794871794	3627.838827838828	0.402187120291616	0.5462287104622872	0.05680317040951123
636.749267578125	-15.34615384615385	-32.58914054320379	0.5724117755743057	1.797460153327708	0.4152833281102426	-0.01382176825217465	3489.558974358974	3627.838827838828	0.4155528554070473	0.537712895377129	0.0607661822985469
656.280517578125	-15.07692307692308	-33.46671183100327	1.874053088624746	1.772817220348672	0.3996978969877401	-0.8300577238458541	3496.841025641026	3624.908424908425	0.3961117861482381	0.537712895377129	0.059445178335535
675.811767578125	-15.42307692307692	-33.06569101434994	1.39993533288169	0.8395395912677141	0.4033938246531508	-2.045177784196758	3492.471794871794	3617.582417582417	0.4058323207776428	0.5450121654501217	0.0607661822985469
695.343017578125	-15.07692307692308	-32.30886247459507	1.673892960522264	3.54345482487817	-0.6011059208889832	-1.265935403376039	3453.148717948718	3611.721611721612	0.4009720534629404	0.5425790754257908	0.05548216644649934
714.874267578125	-14.42307692307692	-32.04621389419227	1.349156248075384	2.176521663299702	0.8244214743767244	-2.462500593725964	3499.753846153846	3620.51282051282	0.3997569866342648	0.5352798053527981	0.047556142668428
734.405517578125	-14.57692307692308	-32.34032610703948	0.8239976596661945	3.518811891899135	-0.6166913520114856	-2.082171358969718	3466.25641025641	3614.652014652014	0.393681652490887	0.5291970802919708	0.05680317040951123
753.936767578125	-15.19230769230769	-32.44668811972655	0.9882521401736775	4.42261289389816	-1.105404187607971	-1.687933232039551	3464.8	3617.582417582417	0.3961117861482381	0.5304136253041363	0.06208718626155878
773.468017578125	-15.23076923076923	-33.64149781363552	1.151813758699267	3.95464704021582	-0.6380211047473192	-2.494906273286366	3482.276923076923	3621.978021978022	0.4058323207776428	0.537712895377129	0.05548216644649934
792.999267578125	-14.11538461538462	-31.8914131305044	0.9937334482970994	3.979289973194855	-0.6224356736248168	-1.678670317692686	3489.558974358974	3623.443223443223	0.3948967193195626	0.5413625304136254	0.05812417437252312
812.530517578125	-14.61538461538462	-32.2995319332389	0.7458274311757098	3.949813346112922	-1.107452581555891	-2.499552251113423	3492.471794871794	3617.582417582417	0.3973268529769137	0.5425790754257908	0.05416116248348745
832.061767578125	-15.38461538461539	-32.98023033811665	0.9345938289092812	3.959955196783265	-2.500161580859103	-1.697254229000913	3485.189743589744	3617.582417582417	0.3961117861482381	0.5316301703163017	0.05812417437252312
851.593017578125	-15.57692307692308	-32.81783118802734	0.6992517090595554	4.81447033282422	-3.020045278700593	-2.935488013258105	3491.015384615384	3620.51282051282	0.4046172539489671	0.5437956204379563	0.06472919418758256
871.124267578125	-14.34615384615385	-32.84452946972963	0.8033965634045699	4.400624039202848	-2.052059856786365	-2.105343165490504	3488.102564102564	3617.582417582417	0.4009720534629404	0.5437956204379563	0.05151915455746367
890.655517578125	-15.30769230769231	-32.03561310586931	-0.2193447065344583	4.420433278078986	-2.505905902472434	-1.293753187723881	3473.538461538461	3619.047619047619	0.3985419198055893	0.5328467153284672	0.059445178335535
910.186767578125	-14.57692307692308	-32.42192985157357	1.058031040216789	3.528953742569478	-2.009400351314698	-1.279873336857209	3493.928205128205	3619.047619047619	0.3948967193195626	0.5304136253041363	0.05680317040951123
929.718017578125	-14.65384615384616	-32.7491300732894	0.1872728952392684	3.103260444923136	-3.380779597882077	-0.06484040042805213	3476.451282051281	3624.908424908425	0.4094775212636695	0.5231143552311436	0.06208718626155878
949.249267578125	-14.15384615384616	-31.685101927696	0.3320194617232248	2.224102375903146	-2.87648133116309	0.35715742823546	3489.558974358974	3627.838827838828	0.4034021871202916	0.5291970802919708	0.05812417437252312
968.780517578125	-14.5	-32.32953285705488	0.2074120835129643	1.763624294607426	-2.870737009549758	-0.04634361304157184	3488.102564102564	3626.373626373626	0.402187120291616	0.5304136253041363	0.06208718626155878
988.311767578125	-15.46153846153846	-32.35974933793189	0.7566976658249676	1.768457988710323	-2.401305532741187	-0.0416976352145151	3488.102564102564	3629.304029304029	0.3948967193195626	0.5316301703163017	0.059445178335535
1007.843017578125	-15.84615384615385	-32.58539139003511	0.8849541171398658	0.8646569867112978	-1.912592697144702	-0.4359357621446824	3511.405128205128	3623.443223443223	0.4046172539489671	0.5340632603406327	0.059445178335535
1027.374267578125	-15.11538461538462	-32.52365738744842	0.9136386031902446	1.290824746822188	-2.872785403497679	-0.8579626321154434	3499.753846153846	3623.443223443223	0.4094775212636695	0.5340632603406327	0.05416116248348745
1046.905517578125	-15	-32.60754757652275	1.146609595368603	1.746469134015011	-3.347961201919581	-0.4591075686654683	3474.994871794872	3621.978021978022	0.4082624544349939	0.537712895377129	0.05416116248348745
1066.436767578125	-15.19230769230769	-31.79462801010039	1.077554351173246	1.756136522220805	-2.409098248302438	-0.4498156130113548	3480.820512820513	3621.978021978022	0.4058323207776428	0.5340632603406327	0.05416116248348745
1085.968017578125	-14.46153846153846	-32.39804151013119	1.671306275789863	1.753482443937083	-1.478028010246546	-0.8486416351540811	3488.102564102564	3621.978021978022	0.3985419198055893	0.524330900243309	0.05812417437252312
1105.499267578125	-15.19230769230769	-31.75536583112644	1.03752232555275	2.187137976434593	-2.899859477846843	-0.8671965051550592	3488.102564102564	3623.443223443223	0.4058323207776428	0.5413625304136254	0.05019815059445178
1125.030517578125	-15.92307692307692	-32.85639280655294	1.050409558415964	3.066296045454583	-3.40415774456583	-1.289194333818571	3491.015384615384	3621.978021978022	0.4070473876063183	0.5413625304136254	0.06208718626155878
1144.561767578125	-15.38461538461539	-32.71540309170413	1.154769969822012	3.066296045454583	-3.40415774456583	-1.289194333818571	3492.471794871794	3619.047619047619	0.3973268529769137	0.537712895377129	0.05284015852047556
1164.093017578125	-14.88461538461539	-32.5728813820287	1.220992178358071	3.012176485393615	-3.904760083619407	-2.926312222832987	3493.928205128205	3617.582417582417	0.4058323207776428	0.5401459854014599	0.059445178335535
1183.624267578125	-15.38461538461539	-32.05487466896594	0.8206565252201762	3.457679021916094	-2.987226882738097	-3.329755181495521	3489.558974358974	3616.117216117216	0.4094775212636695	0.5340632603406327	0.07001321003963013
1203.155517578125	-15.26923076923077	-31.98787491531687	1.201438073535752	5.284615802325734	-2.086926646696781	-2.52269501632696	3470.625641025641	3617.582417582417	0.4106925880923451	0.5328467153284672	0.059445178335535
1222.686767578125	-14.73076923076923	-31.90770308554536	0.5005388926525836	4.846126575725327	-1.134526655905055	-2.508786124153038	3495.384615384615	3620.51282051282	0.4094775212636695	0.5389294403892945	0.0488771466314399
1242.218017578125	-14.65384615384616	-32.03317269199975	0.9278653692184519	4.876077665271808	-2.981081700894336	-0.8948981242739063	3486.646153846154	3623.443223443223	0.4046172539489671	0.5352798053527981	0.059445178335535
1261.749267578125	-14.92307692307692	-32.09096507975611	0.2405616801133215	3.970097047453609	-3.892870580162315	-0.8949562068884041	3486.646153846154	3620.51282051282	0.4034021871202916	0.5316301703163017	0.06208718626155878
1281.280517578125	-15.30769230769231	-32.55371989899611	0.6859949498059987	3.959955196783265	-2.500161580859103	-1.697254229000913	3491.015384615384	3621.978021978022	0.4034021871202916	0.5328467153284672	0.04359313077939234
1300.811767578125	-16.19230769230769	-31.87181283488329	0.1675648210876395	4.427446588001057	-0.635972710799399	-1.683287254212494	3488.102564102564	3617.582417582417	0.4046172539489671	0.5316301703163017	0.047556142668428
1320.343017578125	-15.46153846153846	-31.93710352897703	0.778253371928312	3.085156359401625	0.8051401155888112	-2.06361648896874	3493.928205128205	3620.51282051282	0.4046172539489671	0.5316301703163017	0.0607661822985469
1339.874267578125	-15.42307692307692	-31.43592566360781	0.6808985650058509	3.095298210071968	-0.587568883714401	-1.261318466856231	3482.276923076923	3620.51282051282	0.4119076549210206	0.5316301703163017	0.05680317040951123
1359.405517578125	-14.23076923076923	-31.75055428958552	-0.1645932130319641	2.194151286356665	-1.029926286173808	-1.256730571643672	3482.276923076923	3620.51282051282	0.3948967193195626	0.5304136253041363	0.0488771466314399
1378.936767578125	-15.61538461538462	-31.99949190121328	0.2053642914331466	3.083451206046998	-2.926933552196008	-0.8764303781946748	3463.343589743589	3619.047619047619	0.4034021871202916	0.5304136253041363	0.05416116248348745
1398.468017578125	-16.34615384615385	-32.1035674693601	0.3706811603128659	0.8421936695514368	-0.5276764134027411	-1.646351762054031	3488.102564102564	3621.978021978022	0.3985419198055893	0.5304136253041363	0.05416116248348745
1417.999267578125	-15.5	-31.75003849233233	1.078847693539447	0.8272181247781963	0.3956011090918995	-2.453295761993597	3486.646153846154	3619.047619047619	0.4034021871202916	0.5474452554744526	0.06208718626155878
1437.530517578125	-15.30769230769231	-32.3674170105315	0.9862351419597215	0.3838952040748912	0.8785696230750534	-2.444032847646733	3488.102564102564	3619.047619047619	0.4058323207776428	0.5304136253041363	0.05548216644649934
1457.061767578125	-15.57692307692308	-31.9686903368849	0.549901459629242	0.3838952040748912	0.8785696230750534	-2.444032847646733	3485.189743589744	3616.117216117216	0.3985419198055893	0.5352798053527981	0.059445178335535
1476.593017578125	-16.15384615384615	-31.57541417749584	0.6937857978690646	1.285516590254742	-1.010644927385895	-1.655614676400896	3467.71282051282	3608.791208791209	0.4094775212636695	0.5413625304136254	0.05284015852047556
1496.124267578125	-15.80769230769231	-32.06496735850219	1.748367925109318	0.3742278158690964	-0.0602933305420898	-2.453324803300846	3493.928205128205	3619.047619047619	0.3961117861482381	0.5401459854014599	0.05812417437252312
1515.655517578125	-15.46153846153846	-32.52449652029316	1.301749091580957	0.8175507365724014	-0.5432618445252436	-2.462587717647711	3473.538461538461	3616.117216117216	0.4070473876063183	0.5364963503649636	0.04623513870541612
1535.186767578125	-14.76923076923077	-31.54357332019462	1.563281394346247	0.8030496542637092	-1.951556274950958	-2.476525651128881	3476.451282051281	3610.25641025641	0.3948967193195626	0.5316301703163017	0.05284015852047556
1554.718017578125	-16.19230769230769	-31.17048253987806	1.63951160928743	1.229217414374599	-2.911748981303935	-2.898552521099642	3470.625641025641	3614.652014652014	0.3985419198055893	0.5304136253041363	0.05680317040951123
1574.249267578125	-16.23076923076923	-31.62008067992856	1.080957073350989	0.7784067212846738	-1.967141706073461	-3.292761606722561	3480.820512820513	3617.582417582417	0.3997569866342648	0.5304136253041363	0.05548216644649934
1593.780517578125	-15.92307692307692	-31.74088501570487	1.044250785243579	0.3420971105034406	0.385759999582728	-3.673032758864309	3486.646153846154	3613.186813186813	0.4009720534629404	0.5340632603406327	0.059445178335535
1613.311767578125	-15.69230769230769	-31.48832912483833	1.647225472685841	0.3640859651987531	1.332415668761122	-3.255622825413355	3461.887179487179	3610.25641025641	0.4094775212636695	0.5304136253041363	0.05812417437252312
1632.843017578125	-15.42307692307692	-32.04872359426002	0.5515643283857856	-1.000193118095992	1.826872825970938	-4.053361993620555	3486.646153846154	3616.117216117216	0.402187120291616	0.5291970802919708	0.059445178335535
1652.374267578125	-15.80769230769231	-31.73701268707274	0.7352497382521401	-1.007680890482613	2.288511587218258	-4.456833993590338	3488.102564102564	3616.117216117216	0.4070473876063183	0.5328467153284672	0.06208718626155878
1671.905517578125	-15.30769230769231	-33.06027899242471	1.01394962123545	-0.1135472766893822	0.8609357980046305	-4.071887822314284	3472.082051282051	3613.186813186813	0.3997569866342648	0.5413625304136254	0.05151915455746367
1691.436767578125	-14.96153846153846	-32.98861396809756	0.9306984048777482	-0.5643579697793076	1.805543073235105	-4.466096907937202	3489.558974358974	3614.652014652014	0.3997569866342648	0.5316301703163017	0.05019815059445178
1710.968017578125	-15.38461538461539	-32.35511486111967	0.4480507482909404	-0.1183809707922796	0.3915043211960589	-4.07653380014134	3477.907692307692	3614.652014652014	0.4009720534629404	0.524330900243309	0.05284015852047556
1730.499267578125	-15.34615384615385	-32.1403199482663	1.20830510562296	-0.1258687431788999	0.8531430824433792	-4.480005800111123	3482.276923076923	3616.117216117216	0.402187120291616	0.5352798053527981	0.04491413474240423
1750.030517578125	-15.65384615384616	-33.27975457288908	0.7954209521463325	0.3394430322197177	1.31683023763862	-4.071858781007035	3482.276923076923	3613.186813186813	0.4070473876063183	0.5279805352798054	0.05019815059445178
1769.561767578125	-15.07692307692308	-32.69455564451562	1.727782225780624	1.221255179523431	-0.1185382671362593	-4.095030587527821	3480.820512820513	3613.186813186813	0.4034021871202916	0.5340632603406327	0.04623513870541612
1789.093017578125	-15.73076923076923	-32.56689197511856	1.767675679004742	2.169508353377629	-1.04551171729631	-2.072966527237351	3456.061538461538	3614.652014652014	0.4058323207776428	0.5364963503649636	0.03963011889035667
1808.624267578125	-15.76923076923077	-31.78088624745951	0.9673892960522263	1.716043582003981	0.8301657959900554	-2.866001635002996	3480.820512820513	3616.117216117216	0.4143377885783718	0.5291970802919708	0.0488771466314399
1828.155517578125	-15.84615384615385	-32.35135800948451	0.7217466280716881	1.723056891926053	2.700098987663091	-3.255535701491609	3474.994871794872	3617.582417582417	0.4070473876063183	0.5255474452554745	0.05151915455746367
1847.686767578125	-16.11538461538462	-32.83718513272157	2.205410482231939	3.515683351150863	2.645950838964762	-3.27400344757084	3456.061538461538	3611.721611721612	0.4131227217496962	0.5328467153284672	0.0488771466314399
1867.218017578125	-16.38461538461539	-32.54777668288477	1.465757221161545	3.963365503492518	4.963985754710534	-4.071626450549044	3483.733333333333	3614.652014652014	0.402187120291616	0.5218978102189781	0.0488771466314399
1886.749267578125	-17.57692307692308	-32.54416610211246	2.47753587485373	3.52487627689211	5.91638574550226	-4.057717558375122	3496.841025641026	3619.047619047619	0.416767922235723	0.5158150851581509	0.05416116248348745
1906.280517578125	-17.5	-31.85821734310526	2.71855946295498	4.868397196381621	10.53891853981922	-5.657580500851338	3483.733333333333	3610.25641025641	0.4106925880923451	0.5182481751824818	0.0488771466314399
1925.811767578125	-19.19230769230769	-31.37740192153723	3.447019153784567	4.815982789675279	13.77038986855047	-8.481884500639819	3476.451282051281	3601.465201465201	0.4119076549210206	0.5267639902676399	0.0607661822985469
1945.343017578125	-19.26923076923077	-31.93555613721747	2.585499168565622	6.621686943815137	22.11925200903892	-10.86543251261307	3470.625641025641	3595.604395604395	0.4155528554070473	0.524330900243309	0.0607661822985469
1964.874267578125	-18.15384615384615	-32.24327154030917	5.317423169304675	10.61234945857041	26.16775295681606	-13.7219969854257	3550.728205128205	3687.912087912088	0.3985419198055893	0.5267639902676399	0.06737120211360634
1984.405517578125	-16.42307692307692	-32.44308523742071	5.885031101804521	18.5182332322928	17.42756341175179	-16.33743731045031	3537.620512820513	3687.912087912088	0.4131227217496962	0.5328467153284672	0.0607661822985469
2003.936767578125	-15.57692307692308	-33.0480153353452	6.4392283057215	26.77995897040179	2.086210723070424	-19.83877421716719	3550.728205128205	3682.051282051282	0.4131227217496962	0.5158150851581509	0.06869220607661823
2023.468017578125	-17.34615384615385	-33.15999722855207	6.115246042988237	34.65684057950679	-9.47056768284528	-22.48209040915413	3540.533333333333	3677.655677655677	0.4143377885783718	0.5182481751824818	0.06472919418758256
2042.999267578125	-18.19230769230769	-32.92690306091026	6.845153045513334	39.03812984229804	-13.40035344686593	-24.60601748595286	3544.902564102564	3670.32967032967	0.4228432563791008	0.5231143552311436	0.07001321003963013
2062.530517578125	-20.15384615384615	-32.7556198805198	6.011763256759253	41.2467822109634	-13.02198530261403	-25.84881012411536	3511.405128205128	3667.399267399267	0.4301336573511543	0.5182481751824818	0.08058124174372523
2082.061767578125	-21.19230769230769	-31.6210737821026	6.092150643591797	39.96372700248882	0.1159508661822172	-28.15357980217939	3520.14358974359	3668.864468864469	0.4264884568651275	0.5231143552311436	0.08586525759577279
2101.593017578125	-21.57692307692308	-31.50567376978506	6.475996181560634	38.75630574630597	17.03271699613078	-29.19682772423644	3541.989743589743	3661.538461538461	0.4325637910085055	0.5194647201946472	0.07529722589167767
2121.124267578125	-19.88461538461539	-31.38600880704563	6.492748044589518	40.15612584167563	23.55635384436579	-29.55375282201391	3505.579487179487	3657.142857142857	0.4374240583232077	0.5072992700729927	0.1003963011889036
2140.655517578125	-20.5	-31.3414808770093	6.804813081234219	42.43027031196236	29.10626094907324	-30.33732172628195	3507.035897435897	3654.212454212454	0.433778857837181	0.5072992700729927	0.1030383091149273
2160.186767578125	-19.30769230769231	-31.22114614768738	7.288076615138264	45.09674668363972	30.4099550097677	-31.57543934531014	3517.230769230769	3651.282051282051	0.4483596597812879	0.5072992700729927	0.1241743725231176
2179.718017578125	-19.65384615384615	-30.8609272033011	6.930975549670506	47.7148861142881	27.01933430237646	-32.86001674260891	3520.14358974359	3652.747252747252	0.4495747266099635	0.5060827250608273	0.1334214002642008
2199.249267578125	-19.07692307692308	-29.36807907864753	6.711646240068979	48.99073531633704	25.06982642137342	-34.52492337466391	3525.969230769231	3651.282051282051	0.4556500607533414	0.4939172749391728	0.1281373844121533
2218.780517578125	-19.69230769230769	-29.74465726427296	6.925170905955534	48.95907907343594	23.18430779857788	-34.95162526376898	3501.210256410256	3639.560439560439	0.4690157958687727	0.4975669099756691	0.1347424042272127
2238.311767578125	-20.11538461538462	-29.01184793989037	7.246243148364846	49.37775906116021	22.68575385347222	-35.77712413370953	3511.405128205128	3646.886446886447	0.4605103280680437	0.4866180048661801	0.1505944517833553
2257.843017578125	-19.96153846153846	-29.63000400320256	7.230969390897333	51.16555182628213	22.16217422796532	-35.80023785761582	3502.666666666666	3642.490842490842	0.4507897934386391	0.4902676399026764	0.1571994715984148
2277.374267578125	-19.30769230769231	-29.05479768430129	8.586038061218206	53.90064884032914	25.37476505813908	-35.38729965414843	3496.841025641026	3642.490842490842	0.4641555285540704	0.4720194647201947	0.1743725231175693
2296.905517578125	-19.38461538461539	-29.22109995688859	9.285767075198621	56.11726344384567	22.95992248822331	-35.43361422588275	3498.297435897436	3641.025641025641	0.4775212636695018	0.4732360097323601	0.1717305151915456
2316.436767578125	-19.73076923076923	-29.02408850157049	9.396732770832051	57.94685430253902	22.92915248620874	-34.22772803857146	3480.820512820513	3641.025641025641	0.4678007290400972	0.4659367396593674	0.1796565389696169
2335.968017578125	-21.07692307692308	-28.13595491778038	10.56697665824968	56.55840674872979	21.0764522593757	-35.04869709591394	3515.774358974359	3643.956043956044	0.4787363304981774	0.4671532846715328	0.1968295904887715
2355.499267578125	-20.88461538461539	-28.63554689905771	10.35426802980846	57.03992475979173	26.68050751278147	-35.81379825410276	3520.14358974359	3649.81684981685	0.4860267314702308	0.4549878345498783	0.2100396301188904
2375.030517578125	-20.84615384615385	-28.27063189012749	11.3008252756051	58.3645853653342	27.09374244694379	-36.6392390414288	3507.035897435897	3639.560439560439	0.4799513973268529	0.4574209245742092	0.2311756935270806
2394.561767578125	-20.80769230769231	-27.39530855453594	11.72696618833528	61.00736772896161	23.71870717067505	-37.10758048313388	3502.666666666666	3638.095238095238	0.4799513973268529	0.4440389294403893	0.2364597093791281
2414.093017578125	-20.88461538461539	-26.93649535012626	11.94015212169736	62.72170615761097	20.81679929888028	-38.78639600736281	3523.05641025641	3638.095238095238	0.4908869987849331	0.4355231143552312	0.249669749009247
2433.624267578125	-22.03846153846154	-26.84203516659482	12.21714294512533	64.03669937494765	20.29117127942546	-39.62112875034297	3512.861538461538	3635.164835164835	0.4860267314702308	0.4355231143552312	0.249669749009247
2453.155517578125	-21.84615384615385	-26.56254234156556	13.43480938597032	66.74279422437729	20.68717324874779	-39.23606641383793	3482.276923076923	3633.699633699634	0.496962332928311	0.4306569343065694	0.2523117569352708
2472.686767578125	-21.38461538461539	-26.56398965326107	13.04563650920737	68.51826552300967	20.15580090767964	-39.66729811554105	3477.907692307692	3632.234432234432	0.5054678007290401	0.4184914841849148	0.2681638044914135
2492.218017578125	-21.84615384615385	-25.21300117016691	13.26544312372975	68.45182449645918	19.64740585306481	-41.71253398235231	3496.841025641026	3629.304029304029	0.5030376670716888	0.4075425790754258	0.2826948480845443
2511.749267578125	-21.57692307692308	-25.08284319763503	14.18062142021309	68.42452748519644	20.5628906599982	-42.92759596008871	3505.579487179487	3629.304029304029	0.5006075334143377	0.3941605839416059	0.2985468956406869
2531.280517578125	-21.73076923076923	-23.73102328016259	14.05116400812958	68.42936117929932	21.03232213680677	-42.92294998226166	3493.928205128205	3627.838827838828	0.511543134872418	0.3856447688564477	0.3011889035667107
2550.811767578125	-22.57692307692308	-22.60028792264581	16.05285767075199	69.80814134490277	21.94615941002267	-42.11127288057329	3489.558974358974	3620.51282051282	0.5151883353584447	0.3710462287104623	0.3051519154557464
2570.343017578125	-22.03846153846154	-22.79957042557123	15.8631366631767	70.73563635495172	26.1361759113894	-42.48681093096623	3509.948717948718	3626.373626373626	0.5176184690157958	0.3722627737226277	0.309114927344782
2589.874267578125	-20.88461538461539	-22.3797730492086	16.79634476812219	72.94741726436536	23.25190186466506	-42.5377714805276	3492.471794871794	3626.373626373626	0.5176184690157958	0.3527980535279806	0.3236459709379128
2609.405517578125	-22.19230769230769	-20.60322873683562	15.81528299562727	74.70402824905071	18.51123166344227	-42.19458102708057	3480.820512820513	3627.838827838828	0.511543134872418	0.3467153284671533	0.3355350066050198
2628.936767578125	-21.42307692307692	-20.51916148303258	16.61192030547515	74.2752064106561	20.40249460785114	-42.17138017925254	3489.558974358974	3627.838827838828	0.5151883353584447	0.329683698296837	0.3421400264200793
2648.468017578125	-22.15384615384615	-19.36530763071996	17.34230461292111	72.48959326135335	22.3265759482225	-42.54244649966191	3501.210256410256	3626.373626373626	0.5273390036452005	0.3187347931873479	0.3527080581241744
2667.999267578125	-22.65384615384616	-19.32922491839626	17.96124591981277	71.22028290676192	28.47758897381893	-42.06008000055392	3507.035897435897	3629.304029304029	0.5224787363304981	0.3175182481751825	0.357992073976222
2687.530517578125	-21.11538461538462	-17.71531840857301	18.41976658249677	71.7322264698349	29.90351722931506	-40.41828709240519	3501.210256410256	3632.234432234432	0.5224787363304981	0.3017031630170317	0.3791281373844121
2707.061767578125	-21.73076923076923	-16.95021401736774	19.24147009915625	74.01746171572108	29.39757142887859	-38.81354584164393	3485.189743589744	3636.630036630037	0.5321992709599027	0.294403892944039	0.3751651254953765
2726.593017578125	-21.46153846153846	-16.75461907987929	18.80787707088748	74.06191388757625	28.95931081431502	-37.18571990828363	3502.666666666666	3636.630036630037	0.5212636695018226	0.2761557177615572	0.3963011889035667
2746.124267578125	-22.5	-15.70706565252202	19.39174416456242	75.03698961022866	29.44842451014194	-34.74159993671515	3498.297435897436	3645.421245421245	0.5358444714459295	0.2627737226277372	0.404227212681638
2765.655517578125	-21.5	-15.07174200899181	19.31786968035967	74.62361777907185	28.08483797913581	-33.11844902248915	3508.492307692307	3651.282051282051	0.5261239368165249	0.24330900243309	0.40554821664465
2785.186767578125	-21.30769230769231	-14.69601835314405	19.57014842643346	73.28881532285904	29.0643120442767	-33.09530625727561	3525.969230769231	3652.747252747252	0.520048602673147	0.2384428223844282	0.4253632760898283
2804.718017578125	-21.76923076923077	-14.31888587793312	20.40583235819425	73.75678117654137	28.59692896141605	-32.2883332160288	3512.861538461538	3651.282051282051	0.5236938031591737	0.2201946472019465	0.4214002642007926
2824.249267578125	-20.80769230769231	-13.04767660282072	19.34536860257437	74.19043670903889	27.17509749381575	-32.30688808602978	3528.882051282051	3655.677655677655	0.5151883353584447	0.2141119221411192	0.4438573315719947
2843.780517578125	-20.65384615384615	-12.72508006405124	20.36938781794666	73.3161123341218	28.14882723734331	-31.88024427953921	3528.882051282051	3652.747252747252	0.528554070473876	0.2043795620437956	0.4438573315719947
2863.311767578125	-20.34615384615385	-11.75116246843629	21.36581572950668	74.69536696218977	26.73109255763885	-30.27556111139244	3504.123076923077	3654.212454212454	0.520048602673147	0.194647201946472	0.4398943196829591
2882.843017578125	-20.65384615384615	-10.45557215002772	20.3555305783088	73.3803737448531	27.25672057709367	-29.44082836841228	3543.446153846154	3661.538461538461	0.5164034021871202	0.1800486618004866	0.4610303830911493
2902.374267578125	-20.80769230769231	-9.080656833158834	20.9943801194802	73.43496776737861	25.42575096322689	-27.01070441293947	3517.230769230769	3665.934065934066	0.5164034021871202	0.1630170316301703	0.4623513870541612
2921.905517578125	-20.11538461538462	-8.413831064851882	21.57616862720946	72.59760779193009	26.42285885343821	-25.35970667305839	3514.317948717948	3661.538461538461	0.5103280680437423	0.1399026763990268	0.47556142668428
2941.436767578125	-21.07692307692308	-8.394777360349819	21.58502186364476	73.07306141799903	25.49383700933024	-24.14926163184179	3507.035897435897	3665.934065934066	0.5188335358444715	0.1362530413625304	0.4702774108322325
2960.968017578125	-19.11538461538462	-7.306591426987744	20.98341750323336	72.16224710607794	24.11261665325368	-24.15396569228334	3530.338461538461	3670.32967032967	0.4993924665856622	0.135036496350365	0.4848084544253633
2980.499267578125	-20.46153846153846	-7.450052349571966	21.81030978629057	72.59106894447255	22.22135370884482	-24.17716654011138	3539.076923076923	3668.864468864469	0.5018226002430133	0.1131386861313869	0.4927344782034346
3000.030517578125	-19.80769230769231	-6.722416394654186	21.31312742501694	73.96283580015391	21.26525779038768	-22.9759553719344	3520.14358974359	3671.794871794872	0.4993924665856622	0.1058394160583942	0.4834874504623514
3019.561767578125	-19.76923076923077	-4.760839440783396	21.27274126993903	73.4610340877513	18.44662053558833	-23.81545025797061	3521.6	3663.003663003663	0.5054678007290401	0.09124087591240876	0.5006605019815059
3039.093017578125	-18.80769230769231	-4.693670320872082	22.72197758206565	72.56254124231973	17.07319289507303	-23.41203634061532	3521.6	3671.794871794872	0.5030376670716888	0.07299270072992702	0.5006605019815059
3058.624267578125	-19.03846153846154	-2.926918457843198	21.15361519985219	71.2422398684156	19.46096139063964	-23.37495564192061	3530.338461538461	3665.934065934066	0.4921020656136087	0.06690997566909976	0.5046235138705416
3078.155517578125	-19.65384615384615	-2.596007575291003	22.53114799531933	69.48875742447852	20.93898940088618	-22.52631400676653	3521.6	3670.32967032967	0.4860267314702308	0.05717761557177616	0.5085865257595773
3097.686767578125	-19.03846153846154	-1.788315267598694	21.91576337993472	69.10438775793907	22.39199173073148	-20.87528722557819	3507.035897435897	3671.794871794872	0.4908869987849331	0.0462287104622871	0.5099075297225891
3117.218017578125	-18.80769230769231	-0.9984064174416456	22.57416702592844	66.84644952331564	21.98245272423457	-21.26496649860306	3549.271794871795	3676.190476190476	0.488456865127582	0.0340632603406326	0.5059445178335535
3136.749267578125	-18.23076923076923	-0.3808739299131613	21.88985034181191	65.53193076844352	20.17650879076904	-19.6372276891645	3546.358974358974	3682.051282051282	0.4799513973268529	0.03284671532846716	0.5165125495376486
3156.280517578125	-18.30769230769231	0.643006713062758	22.69581819301595	64.67741563240257	20.69639248861053	-18.3989939049073	3552.184615384615	3684.981684981685	0.4799513973268529	0.0218978102189781	0.5165125495376486
3175.811767578125	-17.53846153846154	1.552349571965265	22.613290632506	64.69504525545952	18.84204472805999	-17.19322388282501	3540.533333333333	3684.981684981685	0.4811664641555285	0.00121654501216545	0.5257595772787318
3195.343017578125	-17.03846153846154	1.537822565744904	22.83964094352405	64.72499634500601	16.99548968307071	-15.57933588294588	3547.815384615385	3687.912087912088	0.4763061968408262	0.00364963503649635	0.5217965653896962
3214.874267578125	-17.42307692307692	2.332227320317792	21.96555706103344	63.82166980547153	15.15263056574684	-15.18056794341765	3560.923076923077	3693.772893772893	0.4678007290400972	-0.0121654501216545	0.523117569352708
3234.405517578125	-17.88461538461539	2.981885508406725	22.63649381043296	63.83228611860642	11.42834961352328	-13.58526385484675	3541.989743589743	3696.703296703297	0.4617253948967193	-0.0170316301703163	0.5204755614266843
3253.936767578125	-17.23076923076923	3.861181252694463	22.24862967296915	61.57387342151845	13.35038255994672	-14.76794919433	3553.641025641025	3692.307692307692	0.4641555285540704	-0.03163017031630171	0.5323645970937913
3273.468017578125	-18	4.279054012440722	21.35499168565622	61.12306272842852	14.29498983517719	-15.16215827995292	3563.835897435898	3695.238095238095	0.4641555285540704	-0.02798053527980535	0.5284015852047557
3292.999267578125	-17.53846153846154	4.615569378579787	23.29845414793373	60.2192617264295	14.78370267077368	-15.55639640688309	3558.010256410256	3687.912087912088	0.4471445929526123	-0.0583941605839416	0.5416116248348745
3312.530517578125	-17.11538461538462	5.158395947527253	22.65712570056045	59.78560619393199	16.20553413837397	-15.53784153688211	3556.553846153846	3687.912087912088	0.4544349939246658	-0.05596107055961071	0.5310435931307794
3332.061767578125	-17.73076923076923	5.669450945371682	22.71976042372359	59.7614377234175	13.85837675433112	-15.56107142601739	3540.533333333333	3689.377289377289	0.4592952612393682	-0.06569343065693431	0.5336856010568032
3351.593017578125	-15.46153846153846	5.178742994395517	21.90900412637803	58.3870167894524	15.74554291084415	-17.1611086163371	3552.184615384615	3683.516483516483	0.4410692588092345	-0.07785888077858881	0.5429326287978864
3371.124267578125	-17.03846153846154	5.323928373468005	21.99588901890743	58.40199233422565	14.82226538834951	-16.35416461639754	3534.707692307692	3687.912087912088	0.4410692588092345	-0.08515815085158152	0.5416116248348745
3390.655517578125	-16.73076923076923	8.729021678881569	22.5873775943832	57.08169096032153	17.21003388391611	-16.31708391770283	3539.076923076923	3687.912087912088	0.4325637910085055	-0.1034063260340633	0.5297225891677675
3410.186767578125	-16.34615384615385	8.633637679374269	23.12580833897887	58.44549558115173	19.04714867962665	-16.31235081595402	3524.51282051282	3686.446886446886	0.4410692588092345	-0.1082725060827251	0.5284015852047557
3429.718017578125	-16	9.060971854406603	22.5667918950545	57.95336125695489	17.16737437844444	-17.14255374633612	3558.010256410256	3684.981684981685	0.4398541919805589	-0.1131386861313869	0.5284015852047557
3449.249267578125	-16.42307692307692	9.056268091396195	23.22505696865185	57.04785510160125	13.92401354625611	-16.34960576249222	3556.553846153846	3690.84249084249	0.4325637910085055	-0.1204379562043796	0.5389696169088507
3468.780517578125	-16.15384615384615	9.514380735357516	23.12711707827801	57.53032203759229	14.86492489382117	-15.52869478776424	3549.271794871795	3689.377289377289	0.4325637910085055	-0.1265206812652068	0.5323645970937913
3488.311767578125	-15.73076923076923	10.81781579109441	22.91690275297161	57.57477420944746	14.42666427925761	-13.90086885440394	3539.076923076923	3689.377289377289	0.4277035236938031	-0.1326034063260341	0.5297225891677675
3507.843017578125	-14.84615384615385	11.06742316930467	23.01345691938166	56.6934365246083	13.53046083111213	-13.08469098142476	3559.466666666666	3699.6336996337	0.4289185905224787	-0.1484184914841849	0.5310435931307794
3527.374267578125	-14.11538461538462	12.0599017675679	22.65875777545113	56.25760137629161	13.55179058384796	-12.67195606710811	3559.466666666666	3696.703296703297	0.4119076549210206	-0.1496350364963504	0.5204755614266843
3546.905517578125	-14.88461538461539	11.83264303750693	21.32938658619203	56.23608698406084	10.27356296174921	-12.29635993410067	3456.061538461538	3588.278388278388	0.4179829890643985	-0.1690997566909976	0.5284015852047557
3566.436767578125	-14.65384615384616	13.80734587670136	22.36347539570118	54.88194975143644	9.375311119655818	-12.29180108019536	3461.887179487179	3586.813186813186	0.4131227217496962	-0.1776155717761557	0.5284015852047557
3585.968017578125	-15.19230769230769	13.79107131859334	21.79258791648703	54.45312791304183	11.26657406406469	-12.26860023236732	3476.451282051281	3592.673992673992	0.4119076549210206	-0.1873479318734793	0.5323645970937913
3605.499267578125	-14.96153846153846	13.6848786721685	21.10222023772865	52.2268459213195	12.74255368036331	-12.23157761628711	3469.169230769231	3591.208791208791	0.4179829890643985	-0.1885644768856448	0.5284015852047557
3625.030517578125	-14.73076923076923	14.64800301779886	20.79215680236497	50.92152009218862	14.20704465343527	-11.38755291765284	3473.538461538461	3598.534798534799	0.4058323207776428	-0.2031630170316302	0.5178335535006605
3644.561767578125	-14.34615384615385	13.90363829525159	21.08731600665147	51.84996402716669	13.73391724896129	-10.17707883512899	3450.235897435897	3598.534798534799	0.4119076549210206	-0.2055961070559611	0.5178335535006605
3664.093017578125	-13.30769230769231	15.08864014288354	20.41414670197696	50.01819355265415	12.36418553611141	-10.98878497812461	3477.907692307692	3597.069597069597	0.402187120291616	-0.2311435523114355	0.5099075297225891
3683.624267578125	-13.88461538461539	14.79367340025867	20.35479152552811	50.87100353534048	8.112228170485095	-11.03983265160774	3474.994871794872	3597.069597069597	0.393681652490887	-0.2177615571776156	0.5204755614266843
3703.155517578125	-12.96153846153846	16.07334329001663	20.83283549916857	53.08543852303783	4.296883885704863	-10.69196717902639	3458.974358974359	3594.139194139194	0.4009720534629404	-0.2287104622871046	0.5112285336856011
3722.686767578125	-13.26923076923077	16.76845322411776	21.00041571718914	53.44563971906278	0.4967241718167033	-12.36622384935001	3469.169230769231	3589.743589743589	0.3973268529769137	-0.2360097323600973	0.5085865257595773
3742.218017578125	-12.88461538461539	17.8155216480877	20.18545605715342	52.93900431255727	-2.791344559791218	-13.21036471321328	3553.641025641025	3696.703296703297	0.3973268529769137	-0.2360097323600973	0.5138705416116248
3761.749267578125	-13.34615384615385	18.56756944016752	19.58306645316253	52.50752839587893	0.03098862267354244	-13.58598988752797	3575.487179487179	3698.168498168498	0.3948967193195626	-0.2493917274939173	0.4953764861294584
3781.280517578125	-13.07692307692308	17.83703886185872	19.30190306091027	51.23869250375205	3.850429695349616	-12.31061732196157	3453.148717948718	3589.743589743589	0.4070473876063183	-0.25669099756691	0.5059445178335535
3800.811767578125	-12.84615384615385	18.83942538646302	18.95180759992609	50.45450316343538	10.01128383045522	-10.60851382598286	3453.148717948718	3591.208791208791	0.3961117861482381	-0.2591240875912409	0.4874504623513871
3820.343017578125	-12.34615384615385	20.3715202931576	18.7701391882737	46.88905948386191	9.665734082165805	-9.759988356057775	3480.820512820513	3600	0.3791008505467801	-0.267639902676399	0.5006605019815059
3839.874267578125	-12.73076923076923	18.98956857793927	19.02157110303628	45.97123186201873	6.414580534416219	-9.375158350010718	3473.538461538461	3602.930402930403	0.3839611178614824	-0.2749391727493917	0.4861294583883752
3859.405517578125	-12.73076923076923	19.21975272525713	19.0508252756051	45.06307162838136	4.102289940283778	-8.981036388309546	3464.8	3597.069597069597	0.3863912515188335	-0.2822384428223844	0.4821664464993395
3878.936767578125	-13.80769230769231	21.70537198989961	18.92370819732709	44.60088839373101	0.3759605941122891	-8.197351318812514	3447.323076923077	3600	0.3851761846901579	-0.2846715328467153	0.4821664464993395
3898.468017578125	-14.15384615384616	21.33577631335838	18.51887663977336	42.82446817016952	5.570476841021152	-9.352131750026176	3480.820512820513	3600	0.3766707168894289	-0.2931873479318735	0.47556142668428
3917.999267578125	-13.80769230769231	20.396632690768	18.97605776929236	43.70798547082786	7.867182004031091	-10.56248966732103	3474.994871794872	3595.604395604395	0.3803159173754556	-0.2858880778588808	0.4795244385733157
3937.530517578125	-14.23076923076923	22.19952885385231	17.71586499969206	43.66836699307558	8.774874095403229	-12.18566962285427	3470.625641025641	3591.208791208791	0.370595382746051	-0.3090024330900243	0.476882430647292
3957.061767578125	-12.92307692307692	21.90032025620496	17.90706411282872	43.21272260588275	9.25004989382513	-12.58452468630425	3541.989743589743	3696.703296703297	0.3681652490886999	-0.3102189781021898	0.4676354029062087
3976.593017578125	-13.65384615384616	22.90867309232001	18.22019153784566	42.7882599991265	13.94231626796293	-13.34968392710755	3543.446153846154	3695.238095238095	0.3633049817739976	-0.316301703163017	0.4729194187582563
3996.124267578125	-12.84615384615385	21.95961384492209	16.78853852312619	41.45563715873286	16.32229204796828	-13.72072120620969	3558.010256410256	3693.772893772893	0.3657351154313487	-0.3211678832116788	0.47556142668428
4015.655517578125	-12.11538461538462	23.17226858409805	16.96349387202069	43.2729065509367	16.28372933039245	-12.92295299669524	3539.076923076923	3696.703296703297	0.3669501822600243	-0.329683698296837	0.47556142668428
4035.186767578125	-12.5	23.71262394531009	17.25341811911067	41.47279231932527	16.7995162403381	-13.30795725058579	3559.466666666666	3698.168498168498	0.3523693803159174	-0.3345498783454988	0.4676354029062087
4054.718017578125	-10.80769230769231	23.5690013549301	16.97300917657203	41.48028009171189	16.33787747909078	-12.90448525061601	3558.010256410256	3696.703296703297	0.3560145808019441	-0.3357664233576643	0.4583883751651255
4074.249267578125	-11.26923076923077	23.89070487158958	16.7339871897518	41.45611162119741	13.99072009504793	-12.92771513975129	3563.835897435898	3696.703296703297	0.3657351154313487	-0.3357664233576643	0.4649933949801849
4093.780517578125	-10.61538461538462	24.42510931822381	16.28299562727105	41.88009976548912	11.63002567383049	-12.95556196540638	3569.661538461538	3699.6336996337	0.3596597812879708	-0.3491484184914842	0.4570673712021136
4113.311767578125	-10.30769230769231	25.47293219190737	15.50723655847755	42.79935077472593	7.886463362819004	-10.96137377207825	3448.779487179487	3588.278388278388	0.3462940461725395	-0.3613138686131387	0.4636723910171731
4132.843017578125	-9.923076923076923	26.48150828354992	14.69381659173493	39.70139848637025	9.405102484589296	-10.09888132736475	3479.364102564102	3601.465201465201	0.347509113001215	-0.3564476885644769	0.4557463672391017
4152.374267578125	-9.076923076923077	25.54246474102359	14.64599371805136	36.6135880486849	9.531032607056376	-8.434090860538733	3477.907692307692	3604.395604395604	0.3365735115431349	-0.3661800486618005	0.4491413474240423
4171.905517578125	-10.03846153846154	25.80171059924863	14.18370080679929	35.35053477559001	9.156761250700312	-5.568060184228488	3473.538461538461	3607.326007326007	0.3438639125151883	-0.378345498783455	0.4438573315719947
4191.436767578125	-9.961538461538462	25.51534304366571	13.04054012440722	32.7029187178597	12.06236505016049	-5.104364720350461	3489.558974358974	3614.652014652014	0.3365735115431349	-0.3637469586374696	0.4346103038309115
4210.968017578125	-9.615384615384617	26.96118433208105	13.47924493440907	30.94725665810345	12.13989134554257	-3.861543040880711	3458.974358974359	3610.25641025641	0.3292831105710814	-0.3807785888077859	0.4544253632760898
4230.499267578125	-9.846153846153847	25.64470037568516	14.14959660035721	27.858497295489	16.92896537385036	-3.782764706971488	3479.364102564102	3610.25641025641	0.3341433778857837	-0.3892944038929441	0.4451783355350066
4250.030517578125	-10.19230769230769	26.17120619572581	15.09353636755558	28.32864276499052	17.86208400585417	-3.369971710040343	3486.646153846154	3617.582417582417	0.339003645200486	-0.3832116788321168	0.4464993394980185
4269.561767578125	-9.076923076923077	26.25996181560633	13.38652460429882	29.16382312461988	15.4644744007784	-4.626789405605761	3464.8	3610.25641025641	0.3317132442284325	-0.3978102189781022	0.4227212681638045
4289.093017578125	-9.807692307692308	26.33680020939829	14.12152799162407	29.08022693747698	14.47885515379375	-7.084789228040913	3493.928205128205	3602.930402930403	0.3329283110571081	-0.4014598540145986	0.4438573315719947
4308.624267578125	-10.61538461538462	26.89015828047053	14.18439366878118	30.40005384891655	14.4226586111475	-7.914875993194016	3467.71282051282	3601.465201465201	0.3268529769137302	-0.4002433090024331	0.4359313077939234
4328.155517578125	-8.884615384615385	27.39090503171768	14.33936379873129	31.75902477564385	15.79034193004946	-7.91478886927227	3464.8	3604.395604395604	0.3341433778857837	-0.3978102189781022	0.4346103038309115
4347.686767578125	-8.26923076923077	27.13005019400136	13.30518260762456	31.68651936410039	8.74886977792089	-7.984478536678121	3444.410256410256	3598.534798534799	0.3183475091130012	-0.3978102189781022	0.4425363276089828
4367.218017578125	-7.538461538461539	27.54591365400012	12.93508653076307	30.18376830517624	-0.6381122245330506	-10.10413717264403	3477.907692307692	3600	0.3147023086269745	-0.4099756690997567	0.4214002642007926
4386.749267578125	-8.653846153846155	27.4971900597401	12.64049701299501	26.57700099449586	-3.808043549235143	-9.691605547478124	3482.276923076923	3600	0.3134872417982989	-0.402676399026764	0.429326287978864
4406.280517578125	-9.26923076923077	28.27692153722978	10.80776929235696	24.88465142054182	0.04051999173801543	-7.595380089798241	3482.276923076923	3604.395604395604	0.3098420413122722	-0.4099756690997567	0.4147952443857332
4425.811767578125	-10.34615384615385	28.54307291987436	10.11558477551272	20.91720845137193	3.002320333844438	-6.301597860767111	3467.71282051282	3607.326007326007	0.3147023086269745	-0.4124087591240876	0.4068692206076618
4445.343017578125	-8.846153846153847	27.73118494795837	10.74844490977397	17.3974476345437	8.282155591696634	-5.805438634714184	3488.102564102564	3608.791208791209	0.3122721749696233	-0.4197080291970803	0.4134742404227213
4464.874267578125	-8.230769230769232	28.4703609041079	9.712724025374145	12.91152225484333	5.616522533713531	-4.970909180884767	3476.451282051281	3613.186813186813	0.3098420413122722	-0.4209245742092457	0.4161162483487451
4484.405517578125	-7.384615384615385	27.2126008499107	10.21611135061896	11.54553801819396	2.378906023138528	-4.581462238317901	3469.169230769231	3608.791208791209	0.3219927095990279	-0.4257907542579076	0.4068692206076618
4503.936767578125	-8.346153846153847	27.46491808831681	10.10024943031348	7.024827854844204	1.090396533336133	-5.365466762194671	3488.102564102564	3608.791208791209	0.3061968408262454	-0.4184914841849148	0.4253632760898283
4523.468017578125	-7.653846153846154	27.83766243764242	10.0014935024943	4.764710004401601	-0.7196441880252426	-5.36096599090386	3483.733333333333	3608.791208791209	0.3098420413122722	-0.4245742092457421	0.4108322324966975
4542.999267578125	-7.230769230769231	28.03867709552257	11.06614522387141	2.572263871399562	4.042355765933384	-5.291421530034253	3489.558974358974	3607.326007326007	0.3061968408262454	-0.4184914841849148	0.4121532364597094
4562.530517578125	-8.076923076923077	28.35029562111228	11.71598817515551	0.4071147496602816	7.888870912958621	-4.006815091428241	3491.015384615384	3613.186813186813	0.3037667071688943	-0.4209245742092457	0.4227212681638045
4582.061767578125	-5.884615384615385	28.6040139804151	12.22237790232186	0.4858772427002852	8.405058683134699	-1.553461246820145	3470.625641025641	3619.047619047619	0.3110571081409477	-0.4257907542579076	0.4108322324966975
4601.593017578125	-6.384615384615385	28.56850095460985	12.57495226950791	-0.8801069939490867	5.167442172559698	-1.164014304253279	3498.297435897436	3620.51282051282	0.3025516403402187	-0.4294403892944039	0.4015852047556143
4621.124267578125	-6.5	28.80097154646795	12.60526883044897	-0.4160259094405469	-0.4325162929502356	1.22432489208327	3472.082051282051	3620.51282051282	0.3049817739975698	-0.4233576642335767	0.4147952443857332
4640.655517578125	-7.076923076923078	29.32512163577016	11.9746874422615	-0.4472076898771059	-4.649606868666129	1.590629069436599	3483.733333333333	3626.373626373626	0.31591737545565	-0.4257907542579076	0.4227212681638045
4660.186767578125	-8.307692307692308	28.27172507236558	12.02913099710538	-2.739456245685364	-6.013594259902686	0.3754218851639492	3501.210256410256	3626.373626373626	0.3086269744835966	-0.4233576642335767	0.4174372523117569
4679.718017578125	-8.346153846153847	28.26324906078709	10.56831619141467	-5.009715946798309	-6.430925981960849	-0.4223753656577478	3492.471794871794	3621.978021978022	0.307411907654921	-0.4172749391727494	0.4174372523117569
4699.249267578125	-8.653846153846155	27.84439089733325	10.66507051795282	-7.148516982203929	1.16324826397171	0.4912809177678787	3488.102564102564	3623.443223443223	0.3025516403402187	-0.4184914841849148	0.4147952443857332
4718.780517578125	-7.384615384615385	27.59521463324506	10.3161914146702	-10.23945596063755	4.551820577415038	0.9642392959927706	3492.471794871794	3627.838827838828	0.3110571081409477	-0.4184914841849148	0.4214002642007926
4738.311767578125	-7.730769230769231	27.02006990207551	10.57342797314775	-11.58610542087533	3.191929974074321	1.372270149867864	3473.538461538461	3619.047619047619	0.3086269744835966	-0.413625304136253	0.4147952443857332
4757.843017578125	-7.423076923076923	28.2495765843444	10.32886309047238	-15.69732852224206	-1.865568367371228	0.5464808668548307	3501.210256410256	3626.373626373626	0.3183475091130012	-0.4233576642335767	0.4240422721268164
4777.374267578125	-8.192307692307693	28.46959875592782	11.63544681899366	-18.38844782689845	-3.184847859188199	0.9683625302893473	3496.841025641026	3624.908424908425	0.3049817739975698	-0.4197080291970803	0.4174372523117569
4796.905517578125	-7.846153846153847	28.18713432284289	11.95097616554782	-20.48450184380352	0.2389921043959751	4.697030857849341	3491.015384615384	3629.304029304029	0.3037667071688943	-0.4221411192214112	0.4214002642007926
4816.436767578125	-7.884615384615385	27.87995781240377	11.96364784135	-21.79200728875357	0.3029813626034755	5.935235600799284	3508.492307692307	3636.630036630037	0.3110571081409477	-0.402676399026764	0.4332892998678996
4835.968017578125	-7.846153846153847	26.99233232740038	13.99876824536552	-21.83551053567965	-3.921901928673669	5.893421800355773	3508.492307692307	3636.630036630037	0.3013365735115431	-0.4111922141119221	0.4332892998678996
4855.499267578125	-7.115384615384616	27.10179682207305	13.564005050194	-21.83020237911221	-5.784042404785453	6.691073844641226	3509.948717948718	3639.560439560439	0.31591737545565	-0.4002433090024331	0.4385733157199472
4875.030517578125	-8.730769230769232	27.23773634292049	14.15164439243703	-24.11230908425012	-8.540738795325222	6.278164682481084	3508.492307692307	3636.630036630037	0.31591737545565	-0.402676399026764	0.4438573315719947
4894.561767578125	-9.461538461538462	27.59710845599557	14.22150027714479	-24.97165791439398	-8.490286574292302	7.51175248891122	3489.558974358974	3638.095238095238	0.3147023086269745	-0.3978102189781022	0.4425363276089828
4914.093017578125	-9.884615384615385	25.73245519492517	13.64647102297222	-27.17642551388553	-3.736079335894928	7.173178971983987	3514.317948717948	3638.095238095238	0.3232077764277035	-0.3941605839416059	0.4451783355350066
4933.624267578125	-9.423076923076923	27.42851973886802	14.92016690275297	-27.59775957989352	-2.30645515273338	7.599851819781804	3488.102564102564	3639.560439560439	0.3341433778857837	-0.3953771289537713	0.4451783355350066
4953.155517578125	-9.192307692307693	26.70875931514442	14.13895731970192	-28.49407280950593	-2.279381078384215	7.60908569282142	3486.646153846154	3639.560439560439	0.3183475091130012	-0.3832116788321168	0.451783355350066
4972.686767578125	-9.307692307692308	26.00201699821396	14.97607316622529	-29.37806457262882	-2.2445142884738	8.026437543657876	3482.276923076923	3635.164835164835	0.3292831105710814	-0.3807785888077859	0.4451783355350066
4992.218017578125	-9.192307692307693	25.74568116031287	16.13901890743364	-30.30603404514233	-4.102958836920172	7.608969527592425	3505.579487179487	3642.490842490842	0.3377885783718104	-0.364963503649635	0.4544253632760898
5011.749267578125	-9.846153846153847	26.39530085606947	17.00418796575722	-29.84072226974371	-3.639271681724932	8.017116546696514	3511.405128205128	3636.630036630037	0.3317132442284325	-0.3698296836982968	0.4544253632760898
5031.280517578125	-10.38461538461539	26.02335714725627	16.90906571410975	-27.58496365093945	-4.630234390092484	8.800975864037039	3504.123076923077	3642.490842490842	0.3292831105710814	-0.3625304136253041	0.451783355350066
5050.811767578125	-9.5	24.30061741701053	17.5460522263965	-27.17329697313726	-6.998721526871175	8.365011060585108	3496.841025641026	3641.025641025641	0.3341433778857837	-0.3600973236009732	0.4610303830911493
5070.343017578125	-9.038461538461538	24.05050963848002	18.05144115292234	-26.30646037060679	-7.510812509151413	7.534895254124757	3514.317948717948	3641.025641025641	0.3353584447144593	-0.354014598540146	0.4676354029062087
5089.874267578125	-9.384615384615385	25.22984541479337	17.12311387571596	-25.47829332089949	-11.77835530590023	6.667611625047951	3499.753846153846	3636.630036630037	0.3256379100850547	-0.3491484184914842	0.4623513870541612
5109.405517578125	-11	23.79298823674324	17.50443431668412	-25.84598228931107	-7.516556830764745	7.938396295401788	3493.928205128205	3638.095238095238	0.3329283110571081	-0.3637469586374696	0.4636723910171731
5128.936767578125	-10.42307692307692	24.45055274989222	16.7415932746197	-26.76959253018623	-6.573997949482191	6.732568190704999	3501.210256410256	3639.560439560439	0.3462940461725395	-0.3442822384428224	0.4649933949801849
5148.468017578125	-10.96153846153846	24.17330017860443	15.75806799285583	-27.67121391636608	-4.684783399021243	5.944150019459162	3499.753846153846	3636.630036630037	0.3414337788578372	-0.3454987834549879	0.4808454425363276
5167.999267578125	-11.19230769230769	23.25020785859457	15.9896070702716	-30.86773793663791	-3.22848600174096	3.541698641797949	3518.687179487179	3632.234432234432	0.3450789793438639	-0.3467153284671533	0.4729194187582563
5187.530517578125	-10.19230769230769	23.12107378210261	15.67708012563897	-32.23467109821638	-1.802958606475253	2.345133451448023	3496.841025641026	3626.373626373626	0.3438639125151883	-0.3345498783454988	0.4887714663143989
5207.061767578125	-11.5	23.33790878856932	17.68148364845723	-33.56729393861002	0.577017173530101	1.974096172345891	3477.907692307692	3624.908424908425	0.3450789793438639	-0.3272506082725061	0.4715984147952444
5226.593017578125	-11.23076923076923	23.7921721992979	17.77600541972039	-35.76409930325041	2.538013697759801	2.832000721846836	3492.471794871794	3626.373626373626	0.3462940461725395	-0.329683698296837	0.47556142668428
5246.124267578125	-10.38461538461539	22.89316068239207	17.64965818808894	-34.38143436847317	8.584426353624982	2.062311668445471	3486.646153846154	3624.908424908425	0.3487241798298906	-0.3199513381995134	0.4887714663143989
5265.655517578125	-10.5	22.83462924185502	18.76853790724887	-33.95479214589773	5.29266169435165	2.433290864933106	3479.364102564102	3624.908424908425	0.3438639125151883	-0.316301703163017	0.4887714663143989
5285.186767578125	-10.23076923076923	21.95012933423662	18.493533288169	-33.50350699034326	2.016482466200821	3.62050601701442	3479.364102564102	3629.304029304029	0.3523693803159174	-0.3090024330900243	0.4861294583883752
5304.718017578125	-10.15384615384616	21.19646486419905	19.56137217466281	-33.04084929322836	3.411239859451953	3.629827013975782	3507.035897435897	3632.234432234432	0.3438639125151883	-0.305352798053528	0.4980184940554822
5324.249267578125	-10.46153846153846	22.2672599618156	20.17546344768122	-33.5078662219816	-0.7845209635281062	4.408866105645759	3504.123076923077	3630.769230769231	0.3365735115431349	-0.2968369829683699	0.4966974900924703
5343.780517578125	-12.96153846153846	22.16436995750447	20.12765597093059	-35.741161523626	-1.178474538902515	4.835422788214581	3504.123076923077	3630.769230769231	0.3438639125151883	-0.2968369829683699	0.4966974900924703
5363.311767578125	-11.53846153846154	20.25158588409189	20.11301348771325	-34.28940148401455	4.445262933521602	6.509795623767197	3477.907692307692	3632.234432234432	0.3462940461725395	-0.2980535279805353	0.5099075297225891
5382.843017578125	-9	18.8856161852559	20.48842150643592	-33.88038888449607	3.007846034798802	5.67500479817254	3502.666666666666	3630.769230769231	0.3535844471445929	-0.2907542579075426	0.5033025099075297
5402.374267578125	-9.26923076923077	19.65002001601281	19.07592227628257	-31.32774155546909	-5.554313633047984	3.931203666979313	3493.928205128205	3633.699633699634	0.3523693803159174	-0.2834549878345499	0.512549537648613
5421.905517578125	-10.84615384615385	19.19780439736405	20.18670320872083	-32.70822687442715	-10.2002245740487	4.306712676065008	3491.015384615384	3632.234432234432	0.3547995139732685	-0.2834549878345499	0.5138705416116248
5441.436767578125	-11.26923076923077	20.82132629180267	20.20291617909712	-34.01355270355803	-8.735733600976738	5.150737374699282	3505.579487179487	3635.164835164835	0.3572296476306197	-0.267639902676399	0.512549537648613
5460.968017578125	-11.88461538461539	19.98591950483464	20.28094783519123	-35.74457183033525	-8.642621874472152	7.209795009762711	3496.841025641026	3638.095238095238	0.3584447144592952	-0.2652068126520681	0.5217965653896962
5480.499267578125	-11.23076923076923	17.64648641990516	21.21414054320379	-36.10742710464393	-3.911391922528101	8.485225657943605	3528.882051282051	3643.956043956044	0.3572296476306197	-0.2652068126520681	0.5151915455746368
5500.030517578125	-10.53846153846154	18.57275050809879	20.36247459506066	-35.65396233327028	-5.787069435814467	9.27826076570925	3509.948717948718	3641.025641025641	0.3633049817739976	-0.2469586374695864	0.5270805812417437
5519.561767578125	-11.03846153846154	17.91443154523619	21.08611504588286	-35.64382048259994	-7.179778435117679	10.08055878782176	3495.384615384615	3643.956043956044	0.3596597812879708	-0.2457420924574209	0.512549537648613
5539.093017578125	-12.07692307692308	18.30145654985527	22.00409558415964	-37.47559095711247	-8.549510147967567	9.268852644826142	3524.51282051282	3642.490842490842	0.3535844471445929	-0.2518248175182482	0.523117569352708
5558.624267578125	-11.53846153846154	17.63179774588902	22.2562665517029	-37.01027918171386	-8.085822992772327	9.67699966393023	3512.861538461538	3646.886446886447	0.3681652490886999	-0.2360097323600973	0.5178335535006605
5578.155517578125	-12.03846153846154	17.43076769107594	21.26930775389543	-36.08714340330324	-6.696809921134525	10.08982170216862	3505.579487179487	3646.886446886447	0.3669501822600243	-0.232360097323601	0.52443857331572
5597.686767578125	-11.84615384615385	16.65403091704133	21.45230030177989	-37.44658879249509	-5.732921287116138	9.296728511788482	3509.948717948718	3643.956043956044	0.3718104495747266	-0.2287104622871046	0.5257595772787318
5617.218017578125	-13.03846153846154	17.03486635462216	20.91052842273819	-38.31873355159301	-3.358689828724116	9.329192273963381	3515.774358974359	3641.025641025641	0.3803159173754556	-0.2177615571776156	0.5284015852047557
5636.749267578125	-12.57692307692308	15.85093459382891	21.95327030855453	-40.99317215812153	-1.869173175250908	9.370831826563398	3505.579487179487	3645.421245421245	0.3827460510328068	-0.2128953771289538	0.5416116248348745
5656.280517578125	-12.38461538461539	15.43294635708567	21.50652829956273	-41.90664054832635	-2.319323293271566	8.967301743979117	3505.579487179487	3639.560439560439	0.3827460510328068	-0.2092457420924574	0.5482166446499339
5675.811767578125	-11.5	15.33227351111659	21.80940136724765	-41.01952024445519	-5.616832274158229	9.741781981743785	3489.558974358974	3639.560439560439	0.3730255164034022	-0.194647201946472	0.5468956406869221
5695.343017578125	-12.11538461538462	14.75630504403523	22.37705549054628	-41.97914595986981	-9.360795445400138	8.897612076573266	3514.317948717948	3641.025641025641	0.3778857837181044	-0.1885644768856448	0.5416116248348745
5714.874267578125	-12.92307692307692	14.84929482047176	22.38141282256575	-41.49402494559506	-9.350954335890968	10.11734907344398	3515.774358974359	3649.81684981685	0.3876063183475091	-0.1885644768856448	0.5429326287978864
5734.405517578125	-13.03846153846154	13.4466111350619	23.40021247767445	-41.48919125149216	-8.881522859082397	10.12199505127103	3496.841025641026	3645.421245421245	0.3876063183475091	-0.1666666666666667	0.5508586525759578
5753.936767578125	-12.80769230769231	12.76765258360535	22.50198620434809	-41.50634641208458	-9.35874705145222	9.709231095647137	3520.14358974359	3643.956043956044	0.3839611178614824	-0.1642335766423358	0.5455746367239102
5773.468017578125	-12	11.58763934224302	23.00264827246413	-38.83408742137523	-12.24876541978989	10.06177158736279	3505.579487179487	3645.421245421245	0.3876063183475091	-0.1727493917274939	0.5574636723910171
5792.999267578125	-12.5	13.08951006959414	23.40911190490854	-39.32309320482378	-17.39118191194834	10.42340074558181	3488.102564102564	3642.490842490842	0.3912515188335358	-0.1618004866180049	0.5468956406869221
5812.530517578125	-12.96153846153846	12.29570579540556	23.1762486912607	-40.24404936741522	-17.37969326872168	9.61639866302775	3515.774358974359	3642.490842490842	0.3973268529769137	-0.145985401459854	0.5442536327608983
5832.061767578125	-13.65384615384616	11.05842366200653	22.27112459198128	-39.74442727083176	-15.9615577287868	10.85007359337963	3502.666666666666	3646.886446886447	0.3948967193195626	-0.145985401459854	0.5495376486129459
5851.593017578125	-13.42307692307692	11.57041787275974	23.36372174662807	-39.74973542739922	-14.09941725267501	10.05242154909418	3528.882051282051	3646.886446886447	0.3997569866342648	-0.1228710462287105	0.5416116248348745
5871.124267578125	-13.38461538461539	11.04462031163392	22.6920613413808	-40.59145463448611	-15.90331279219263	12.49177937760661	3507.035897435897	3646.886446886447	0.3973268529769137	-0.1289537712895377	0.5495376486129459
5890.655517578125	-13.23076923076923	9.849849110057278	22.66139065098233	-43.26589324101462	-14.41379613871942	12.53341893020662	3509.948717948718	3649.81684981685	0.4131227217496962	-0.1228710462287105	0.5442536327608983
5910.186767578125	-14.23076923076923	10.46321672722794	23.76224056168011	-44.09889398482482	-10.61568481877918	13.39605658145637	3520.14358974359	3655.677655677655	0.4094775212636695	-0.1058394160583942	0.5535006605019816
5929.718017578125	-14.26923076923077	9.788823366385415	22.90498552688305	-45.85285089122645	-6.806084855612277	13.45169215015206	3525.969230769231	3652.747252747252	0.4179829890643985	-0.1143552311435523	0.560105680317041
5949.249267578125	-13.80769230769231	8.771948327893083	23.2871989899612	-45.43417090350218	-7.304638800717934	12.62619328021151	3520.14358974359	3651.282051282051	0.4228432563791008	-0.09610705596107057	0.560105680317041
5968.780517578125	-13.73076923076923	8.419373960707027	23.53130196464865	-45.46317306811957	-10.12122766156936	12.59831741324917	3517.230769230769	3652.747252747252	0.4131227217496962	-0.09489051094890512	0.5614266842800528
5988.311767578125	-15.26923076923077	8.104198743610272	23.52083205025559	-45.89152044404963	-10.56153667008085	13.4145243275356	3508.492307692307	3655.677655677655	0.4216281895504253	-0.09124087591240876	0.5627476882430648
6007.843017578125	-15.19230769230769	6.911721685040339	23.45237728644454	-49.43327011557317	-6.228357081407048	13.49327362013758	3515.774358974359	3654.212454212454	0.4131227217496962	-0.07420924574209246	0.5535006605019816
6027.374267578125	-15.73076923076923	6.44508683870173	24.24565806491347	-48.93146840317055	-3.409719826607698	14.33276850617379	3517.230769230769	3649.81684981685	0.4277035236938031	-0.05961070559610706	0.5587846763540291
6046.905517578125	-13.57692307692308	6.037499230153353	25.16350003079387	-48.47099032187483	-3.415464148221029	14.73626954745082	3512.861538461538	3652.747252747252	0.4204131227217496	-0.05474452554744526	0.5402906208718626
6066.436767578125	-15.38461538461539	5.924739791833467	24.91685656217281	-46.66556793369596	-5.793391534278462	15.91892584562683	3524.51282051282	3657.142857142857	0.4398541919805589	-0.04257907542579076	0.5653896961690885
6085.968017578125	-14.03846153846154	4.803342674139311	25.79440475457289	-44.42165631891667	-9.12371891112762	17.08767325162891	3530.338461538461	3661.538461538461	0.4289185905224787	-0.04014598540145985	0.5785997357992074
6105.499267578125	-14.07692307692308	4.422260885631582	25.65618648765166	-40.82796670315133	-14.35679787561231	19.04022189235702	3518.687179487179	3665.934065934066	0.4228432563791008	-0.03041362530413625	0.5535006605019816
6125.030517578125	-15.15384615384616	3.998629672969144	24.83774712077354	-41.02008377637715	-27.07041132725	16.87419060204229	3528.882051282051	3661.538461538461	0.4264884568651275	-0.02676399026763991	0.5561426684280053
6144.561767578125	-16.07692307692308	1.42638726365708	23.60371374022295	-39.69978240247303	-29.4581798228166	16.83710990334758	3504.123076923077	3660.07326007326	0.4374240583232077	-0.01338199513381995	0.5587846763540291
6164.093017578125	-16.03846153846154	2.187773295559524	22.0344121451007	-39.33304235899055	-29.05683439211137	13.98031310007695	3525.969230769231	3658.608058608058	0.4507897934386391	0.00121654501216545	0.5521796565389696
6183.624267578125	-16.96153846153846	2.141397733571473	21.43011332142637	-42.07126791378584	-29.00678303130889	12.37554280800844	3514.317948717948	3646.886446886447	0.4313487241798298	0.00364963503649635	0.5548216644649934
6203.155517578125	-18.23076923076923	2.307430559832481	22.09001046991439	-44.68722772861505	-24.21566060905317	13.26594016099154	3517.230769230769	3655.677655677655	0.4520048602673147	0.006082725060827251	0.5350066050198151
6222.686767578125	-16.96153846153846	1.972801317977459	20.24454948574244	-48.15599752613058	-15.17258082117115	14.20738518745776	3525.969230769231	3655.677655677655	0.4459295261239368	0.0145985401459854	0.5455746367239102
6242.218017578125	-15.57692307692308	1.048492640266059	20.84459875592782	-50.81062689378297	-14.13691021338401	15.0606147178244	3517.230769230769	3655.677655677655	0.4580801944106925	0.0218978102189781	0.5363276089828269
6261.749267578125	-16.53846153846154	0.7034088809509145	21.75263287553119	-54.41739420446335	-17.3068415380861	15.4731463429903	3527.425641025641	3657.142857142857	0.4629404617253949	0.03284671532846716	0.5521796565389696
6281.280517578125	-17.88461538461539	-0.2645578000862228	21.49712077354191	-57.01354478041642	-12.96956516151646	17.17513367374002	3508.492307692307	3661.538461538461	0.456865127582017	0.03284671532846716	0.5284015852047557
6300.811767578125	-18.34615384615385	-0.7650505019400136	21.98329432776991	-62.2947502760329	-3.418491179250045	17.32345646851885	3514.317948717948	3661.538461538461	0.4629404617253949	0.05596107055961071	0.5310435931307794
6320.343017578125	-18.53846153846154	-0.6242070579540555	22.82573751308739	-68.95473593725282	5.218745529800475	16.66010216160931	3521.6	3657.142857142857	0.4617253948967193	0.06082725060827251	0.5376486129458389
6339.874267578125	-19.53846153846154	-0.42655662991932	21.63552380365831	-74.57149969591521	18.58556465707756	19.29891758230544	3507.035897435897	3661.538461538461	0.4617253948967193	0.08394160583941607	0.5270805812417437
6359.405517578125	-18.19230769230769	-4.088447681221901	22.61469175340272	-77.98539370494426	36.52446435763868	19.10428225409521	3521.6	3667.399267399267	0.4580801944106925	0.09610705596107057	0.5442536327608983
6378.936767578125	-15.61538461538462	-4.896270862844122	21.96738929605223	-76.70954450289531	34.57495647663564	17.4393756220402	3521.6	3661.538461538461	0.4507897934386391	0.09732360097323602	0.5429326287978864
6398.468017578125	-15.57692307692308	-5.064089733325122	22.627563589333	-82.69120763159776	24.39227460787163	15.7647123734151	3528.882051282051	3658.608058608058	0.4520048602673147	0.1228710462287105	0.5323645970937913
6417.999267578125	-16.69230769230769	-5.961954178727598	22.48232432099526	-83.49255213250683	30.07590455060741	17.05405191376992	3509.948717948718	3655.677655677655	0.4507897934386391	0.1289537712895377	0.52443857331572
6437.530517578125	-15.11538461538462	-7.379696064543943	22.56172630412022	-82.62183076080257	34.69638895097645	14.64256995221983	3525.969230769231	3654.212454212454	0.4434993924665856	0.1423357664233577	0.5336856010568032
6457.061767578125	-13.15384615384616	-8.670336269015213	23.59373652768369	-80.97250997131006	24.2913701658058	13.29753676055483	3499.753846153846	3651.282051282051	0.433778857837181	0.1545012165450122	0.5376486129458389
6476.593017578125	-13.5	-8.977574367186056	23.91717989776437	-79.25456853944789	15.79524815011443	13.60355939138542	3512.861538461538	3651.282051282051	0.4264884568651275	0.1642335766423358	0.5389696169088507
6496.124267578125	-14.07692307692308	-9.417272279361953	23.40207550655909	-77.50667601803923	5.452571089433783	15.52347002209514	3517.230769230769	3657.142857142857	0.4313487241798298	0.1812652068126521	0.5402906208718626
6515.655517578125	-14	-10.8345445587239	24.95799716696434	-75.80323566848574	-4.451845356683298	15.81555471944455	3508.492307692307	3655.677655677655	0.4301336573511543	0.1885644768856448	0.5310435931307794
6535.186767578125	-15.03846153846154	-11.15346892898935	24.63498491100573	-74.08529423662357	-12.94796737237466	16.12157735027514	3528.882051282051	3658.608058608058	0.4325637910085055	0.2055961070559611	0.5297225891677675
6554.718017578125	-15.92307692307692	-12.67563281394346	24.70471762025004	-70.48771985168443	-13.04847095421007	16.49275983591352	3530.338461538461	3655.677655677655	0.4313487241798298	0.2128953771289538	0.5138705416116248
6574.249267578125	-16.15384615384615	-12.34387510008006	23.73221654246474	-66.92928948203301	-14.57285439759369	16.03376843247704	3520.14358974359	3657.142857142857	0.4301336573511543	0.2396593673965937	0.5138705416116248
6593.780517578125	-15.11538461538462	-12.86793280778469	23.89664038923447	-66.55193312541564	-17.89578991911203	14.77227571777732	3515.774358974359	3651.282051282051	0.4264884568651275	0.2384428223844282	0.5099075297225891
6613.311767578125	-16.84615384615385	-14.58811664716389	23.17506312742502	-63.41749090005595	-17.05947894127822	14.34113113999594	3489.558974358974	3651.282051282051	0.44228432563791	0.2506082725060828	0.5085865257595773
6632.843017578125	-17.19230769230769	-15.56204194124531	24.14055860072674	-64.78755260238269	-12.37130935503626	11.95273386104489	3520.14358974359	3646.886446886447	0.4362089914945322	0.2615571776155718	0.4966974900924703
6652.374267578125	-16.76923076923077	-16.17013610888711	23.35295929050933	-62.09425368190713	-9.651528148354828	11.13667215329471	3507.035897435897	3648.351648351648	0.4410692588092345	0.267639902676399	0.4900924702774108
6671.905517578125	-16.03846153846154	-15.80662222085361	21.75418796575722	-59.49108979603199	-12.11887133325143	9.045150756056374	3504.123076923077	3641.025641025641	0.4398541919805589	0.2822384428223844	0.4874504623513871
6691.436767578125	-15.57692307692308	-16.69416302272587	21.43892036706288	-59.99554558671834	-14.00643834999489	7.806829847877438	3517.230769230769	3641.025641025641	0.4301336573511543	0.2956204379562044	0.4821664464993395
6710.968017578125	-15.34615384615385	-18.08445987559278	21.49222454886986	-59.9805700419451	-14.92971587248953	8.613773847817003	3509.948717948718	3642.490842490842	0.44228432563791	0.2980535279805353	0.4821664464993395
6730.499267578125	-15.84615384615385	-16.57797006836238	19.74465726427296	-60.44057366077627	-17.25554350379656	9.003278872998367	3528.882051282051	3643.956043956044	0.433778857837181	0.305352798053528	0.4623513870541612
6750.030517578125	-15.65384615384616	-17.44015982016382	18.43106793126809	-62.1887479481459	-17.63965596966179	10.6495725524379	3514.317948717948	3646.886446886447	0.4374240583232077	0.3150851581508516	0.4544253632760898
6769.561767578125	-15.76923076923077	-18.29548253987806	20.92797314774897	-61.25594478152949	-15.31177994440685	11.07168654633041	3502.666666666666	3649.81684981685	0.4398541919805589	0.3309002433090024	0.4478203434610304
6789.093017578125	-14.80769230769231	-18.34763965018168	18.72813635523804	-60.40313479884316	-19.56373731003316	11.02063887284728	3523.05641025641	3648.351648351648	0.44228432563791	0.3309002433090024	0.4425363276089828
6808.624267578125	-16	-20.36025743671861	18.6282564513149	-60.8384954846953	-21.87397951021768	12.22637985362233	3511.405128205128	3649.81684981685	0.4483596597812879	0.3381995133819952	0.4187582562747688
6828.155517578125	-17.57692307692308	-19.55146424832174	18.22705856993287	-63.00193945307996	-14.29539069540762	12.32380018145427	3512.861538461538	3649.81684981685	0.4532199270959902	0.3467153284671533	0.4227212681638045
6847.686767578125	-18.80769230769231	-20.14218297715095	18.22453347293219	-67.7496869933927	-0.04016083554631802	13.73831975137438	3521.6	3655.677655677655	0.4520048602673147	0.354014598540146	0.4346103038309115
6867.218017578125	-17.96153846153846	-21.67939736404508	17.31602204840796	-72.14955480417002	10.40711659486558	13.07046467317403	3527.425641025641	3652.747252747252	0.4471445929526123	0.3564476885644769	0.4134742404227213
6886.749267578125	-17.19230769230769	-23.30977859210445	15.37354498983802	-72.99582593939883	18.86057910508528	11.93897221371015	3514.317948717948	3645.421245421245	0.4459295261239368	0.3686131386861314	0.4108322324966975
6906.280517578125	-13.61538461538462	-24.07506004803843	15.44531009422923	-71.71779712153069	18.3115729389467	9.879885537339467	3520.14358974359	3643.956043956044	0.4447144592952612	0.3819951338199514	0.3976221928665786
6925.811767578125	-13.76923076923077	-22.46919073720515	16.07492147564205	-71.86375686954672	8.891772540530264	8.154494069610973	3491.015384615384	3639.560439560439	0.4495747266099635	0.3941605839416059	0.3976221928665786
6945.343017578125	-14.73076923076923	-23.6049070025251	16.12996551087024	-75.47365272097539	8.98448340680442	7.375193606175756	3509.948717948718	3636.630036630037	0.4313487241798298	0.4002433090024331	0.3963011889035667
6964.874267578125	-15.11538461538462	-23.56880119480199	16.63236743240747	-76.59918294336997	23.15479511595282	9.97713161732792	3499.753846153846	3641.025641025641	0.4313487241798298	0.3929440389294404	0.381770145310436
6984.405517578125	-12.26923076923077	-25.33656925540432	17.5592320009854	-74.72608883775052	27.34890840521539	11.22483160508272	3502.666666666666	3646.886446886447	0.4216281895504253	0.4160583941605839	0.3764861294583884
7003.936767578125	-10.38461538461539	-26.51713678635216	17.01068547145409	-69.39076378207308	18.29843676200255	12.71362669931831	3483.733333333333	3645.421245421245	0.4155528554070473	0.4172749391727494	0.3593130779392338
7023.468017578125	-11.34615384615385	-26.60663145901336	16.67772679682208	-67.21765242548264	11.65871090080963	12.62549832714047	3512.861538461538	3651.282051282051	0.425273390036452	0.4160583941605839	0.3685601056803171
7042.999267578125	-12.03846153846154	-26.86235911806368	16.69487898010716	-66.3590598237643	3.213041106151187	14.16510876440119	3524.51282051282	3657.142857142857	0.4179829890643985	0.4355231143552312	0.3434610303830912
7062.530517578125	-12.46153846153846	-28.72239329925479	15.88889573197019	-65.91042874649355	0.8679321160562499	14.95349789433978	3520.14358974359	3651.282051282051	0.4204131227217496	0.4355231143552312	0.35667107001321
7082.061767578125	-12.76923076923077	-28.72630412021925	14.46905216480877	-64.56548443961039	-1.504250948387852	15.73265315123875	3507.035897435897	3655.677655677655	0.416767922235723	0.4452554744525548	0.3434610303830912
7101.593017578125	-12.92307692307692	-28.78099402599002	13.5112397610396	-64.5096597261948	2.728425058450544	16.18258492947911	3521.6	3657.142857142857	0.4119076549210206	0.4501216545012166	0.3342140026420079
7121.124267578125	-11.5	-28.55052503541294	14.02625177064729	-63.99771616312184	4.154353313946681	17.82437783762783	3505.579487179487	3661.538461538461	0.4179829890643985	0.4476885644768857	0.3249669749009247
7140.655517578125	-11.42307692307692	-28.83612274434933	12.84459875592782	-63.12822548230763	2.711192093610551	17.3930880533102	3523.05641025641	3661.538461538461	0.4070473876063183	0.462287104622871	0.3170409511228534
7160.186767578125	-12.03846153846154	-30.20580310402168	12.71323212416087	-62.67210663265027	-0.09555565773170743	18.58494918321857	3495.384615384615	3663.003663003663	0.4094775212636695	0.4708029197080292	0.3130779392338177
7179.718017578125	-12.26923076923077	-29.80783857855515	12.27654431237298	-61.35711341531358	-0.6211836771865285	17.75021644023841	3534.707692307692	3661.538461538461	0.4094775212636695	0.4841849148418492	0.2826948480845443
7199.249267578125	-11.96153846153846	-30.48216265319948	12.99274804458952	-58.24636519800383	-4.463602036315925	18.08884803978014	3531.794871794872	3661.538461538461	0.4058323207776428	0.4805352798053528	0.2919418758256275
7218.780517578125	-10.73076923076923	-30.8268075999261	11.68653384245858	-53.81749522260913	-12.09429060587639	18.78457898494284	3537.620512820513	3667.399267399267	0.3900364520048603	0.489051094890511	0.2826948480845443
7238.311767578125	-11.88461538461539	-31.27277976227136	12.0620650366447	-50.72077362514352	-19.67657534835186	19.90227871746179	3514.317948717948	3668.864468864469	0.402187120291616	0.4914841849148419	0.2774108322324967
7257.843017578125	-13.34615384615385	-31.21841319209214	10.80527498922215	-49.33933938125636	-19.69380831319185	21.11278184129289	3534.707692307692	3667.399267399267	0.3973268529769137	0.4927007299270073	0.2642007926023778
7277.374267578125	-13.46153846153846	-31.02212539262179	8.798577323397179	-49.28834836194366	-15.93056378316203	21.55806764170618	3521.6	3674.725274725275	0.3888213851761846	0.5012165450121655	0.2470277410832233
7296.905517578125	-12.73076923076923	-31.19519461723225	9.028961630843135	-48.82569066482877	-14.5358063899109	21.56738863866754	3523.05641025641	3674.725274725275	0.3778857837181044	0.5097323600973236	0.2523117569352708
7316.436767578125	-13.46153846153846	-31.43707273511117	8.392098294019831	-49.31829945149014	-14.08400873817274	19.94417964182705	3528.882051282051	3670.32967032967	0.3888213851761846	0.51338199513382	0.2364597093791281
7335.968017578125	-12.42307692307692	-32.23211646240069	6.721207735419105	-49.3917537879627	-16.46233698446061	18.28847784150441	3536.164102564102	3667.399267399267	0.3839611178614824	0.51338199513382	0.2404227212681638
7355.499267578125	-12.69230769230769	-32.82880150274065	6.055459752417319	-48.61021852592976	-21.69212088151032	16.18754832338297	3523.05641025641	3657.142857142857	0.3948967193195626	0.5218978102189781	0.2285336856010568
7375.030517578125	-13.53846153846154	-32.16536305967851	4.498922214694833	-47.82820880143227	-29.25347673148038	14.87962487171992	3530.338461538461	3660.07326007326	0.3863912515188335	0.5291970802919708	0.2179656538969617
7394.561767578125	-13.65384615384616	-32.08609195048346	4.496905216480877	-47.8480180403084	-28.79963068579431	14.0680348939533	3495.384615384615	3651.282051282051	0.3718104495747266	0.5170316301703163	0.2073976221928666
7414.093017578125	-15.03846153846154	-31.53207950976166	3.180898565005851	-50.45090016022256	-15.60549797435182	12.59335198104238	3520.14358974359	3651.282051282051	0.393681652490887	0.5401459854014599	0.1928665785997358
7433.624267578125	-15.15384615384616	-32.22265504711461	3.209675432653815	-55.99781258562523	5.733863543109728	14.90303104700163	3509.948717948718	3652.747252747252	0.3693803159173754	0.537712895377129	0.1928665785997358
7453.155517578125	-13.61538461538462	-32.10225103159451	3.34332081049455	-57.6599293040718	18.46266156563949	15.0469401944114	3511.405128205128	3654.212454212454	0.3742405832320777	0.5267639902676399	0.1809775429326288
7472.686767578125	-11.42307692307692	-32.42283827061649	3.718836607747737	-57.77252765583209	14.66045345780341	12.5610645050139	3518.687179487179	3649.81684981685	0.3815309842041312	0.5389294403892945	0.1756935270805813
7492.218017578125	-9.730769230769232	-32.6981046375562	4.251385723963787	-55.77437821187505	-4.21566166265737	10.71966879814524	3512.861538461538	3646.886446886447	0.3766707168894289	0.5425790754257908	0.1611624834874505
7511.749267578125	-10.5	-33.8384014904231	4.343151444232309	-55.53454490595798	-22.08318024968017	9.722268748603593	3508.492307692307	3642.490842490842	0.3596597812879708	0.5474452554744526	0.1558784676354029
7531.280517578125	-12.07692307692308	-34.45690398472625	4.152891544004435	-51.55212639201486	-25.96825811428124	9.235430519512029	3508.492307692307	3643.956043956044	0.3657351154313487	0.5486618004866181	0.1453104359313078
7550.811767578125	-12.80769230769231	-34.46705826199421	3.468297715095153	-47.86489143493984	-18.55006535161825	10.08906662818015	3496.841025641026	3645.421245421245	0.3742405832320777	0.5486618004866181	0.1347424042272127
7570.343017578125	-11.11538461538462	-34.83316653322658	4.696788199790602	-45.15974551043931	-13.49091947645521	8.888116831768411	3511.405128205128	3642.490842490842	0.3778857837181044	0.5474452554744526	0.1241743725231176
7589.874267578125	-10.5	-35.02935425263288	4.275404939336085	-39.3776872273493	-15.56021229808157	7.993276790109003	3489.558974358974	3635.164835164835	0.3681652490886999	0.5547445255474452	0.1162483487450462
7609.405517578125	-9.615384615384617	-35.85137340641744	4.10713185933362	-36.75736818088174	-17.55033129060835	6.31451934849457	3491.015384615384	3633.699633699634	0.3730255164034022	0.5462287104622872	0.1136063408190225
7628.936767578125	-9.230769230769232	-36.3871096877502	3.586253618279239	-33.74907646466193	-26.58766675687704	4.969573280751318	3472.082051282051	3632.234432234432	0.3681652490886999	0.5474452554744526	0.11889035667107
7648.468017578125	-8.961538461538462	-37.25929204902383	2.695371681960953	-33.46716329921243	-33.23558619386164	1.634968832277997	3495.384615384615	3624.908424908425	0.3718104495747266	0.5486618004866181	0.1056803170409511
7667.999267578125	-10.5	-36.92856592966681	3.082142637186673	-31.1995576763832	-31.88718423374758	2.033940060956968	3489.558974358974	3623.443223443223	0.3742405832320777	0.5425790754257908	0.09379128137384413
7687.530517578125	-9.807692307692308	-35.3725672845969	1.512979614460799	-28.38617263176074	-25.82683368047738	4.107226042574057	3483.733333333333	3627.838827838828	0.3657351154313487	0.5413625304136254	0.08058124174372523
7707.061767578125	-9.961538461538462	-34.26863798731293	2.239591673338671	-27.35356704233811	-17.37297031002726	5.814091681608822	3488.102564102564	3633.699633699634	0.3657351154313487	0.5547445255474452	0.08718626155878467
7726.593017578125	-8.5	-34.29452023156987	2.07216542464741	-25.50464140723316	-15.52601440480755	7.038561780228337	3501.210256410256	3638.095238095238	0.3681652490886999	0.5413625304136254	0.07661822985468957
7746.124267578125	-9.192307692307693	-34.52869218451685	2.934609225842213	-22.87105196934699	-22.17148458761379	7.353934449327535	3496.841025641026	3639.560439560439	0.3718104495747266	0.5547445255474452	0.05284015852047556
7765.655517578125	-8.653846153846155	-34.74953039354561	1.899596600357209	-17.94303435983338	-26.05246566431901	8.490334258383713	3498.297435897436	3642.490842490842	0.3681652490886999	0.5413625304136254	0.05680317040951123
7785.186767578125	-9.807692307692308	-35.46494888218267	2.285905647594999	-13.51463884690323	-31.35158228095912	8.393059137088011	3514.317948717948	3641.025641025641	0.3633049817739976	0.5547445255474452	0.05284015852047556
7804.718017578125	-11.26923076923077	-35.01257159573813	2.282425940752602	-6.343658547539441	-33.89974682867279	9.112194219229481	3504.123076923077	3642.490842490842	0.3693803159173754	0.551094890510949	0.05416116248348745
7824.249267578125	-11.69230769230769	-35.29980907803166	1.682761593890497	-2.761059707373542	-33.07697288801356	8.676432704928292	3512.861538461538	3645.421245421245	0.3608748481166464	0.5498783454987835	0.04491413474240423
7843.780517578125	-11.61538461538462	-35.64468497875223	1.541941245303936	2.582509349116058	-34.19386571884819	7.795501555442804	3517.230769230769	3643.956043956044	0.3681652490886999	0.559610705596107	0.04491413474240423
7863.311767578125	-12.34615384615385	-34.91655632198066	0.4816622528792265	7.455932936104142	-36.24387718168664	6.501777409026173	3480.820512820513	3633.699633699634	0.3584447144592952	0.5535279805352799	0.0369881109643329
7882.843017578125	-12.38461538461539	-34.9273418734988	-0.8636755558292786	7.866176226512697	-31.61764845970426	3.686794406199054	3514.317948717948	3630.769230769231	0.3633049817739976	0.5401459854014599	0.04359313077939234
7902.374267578125	-12.5	-34.52165578616739	0.1212508468313112	10.97815513471253	-29.39642119812848	2.045233828508324	3482.276923076923	3626.373626373626	0.3633049817739976	0.5486618004866181	0.03963011889035667
7921.905517578125	-11.19230769230769	-33.42436256697666	-0.2818716511670876	12.25618395258065	-29.94542736426706	-0.01385284786235475	3483.733333333333	3624.908424908425	0.3523693803159174	0.551094890510949	0.03963011889035667
7941.436767578125	-12.57692307692308	-33.94274650489622	0.0988637063496951	13.56586901334988	-28.6089149076101	-1.646237635127967	3496.841025641026	3623.443223443223	0.3657351154313487	0.5535279805352799	0.04227212681638045
7960.968017578125	-11.5	-33.75776775266367	-0.6116123668165301	15.76485399380945	-29.16940971697533	-2.898322228944582	3488.102564102564	3613.186813186813	0.3572296476306197	0.5523114355231144	0.04491413474240423
7980.499267578125	-11.80769230769231	-33.94028299562727	-0.7935425263287554	17.51833643774653	-30.64743772722188	-3.746963864098663	3485.189743589744	3616.117216117216	0.3596597812879708	0.5523114355231144	0.04227212681638045
8000.06103515625	-13	-34.87665517029008	-0.8595491778037812	17.52752936348777	-27.37700282068438	-4.530677974902945	3477.907692307692	3611.721611721612	0.3523693803159174	0.5450121654501217	0.04491413474240423
8019.561767578125	-13	-34.22613475395701	-0.6932623021494115	17.56354483802723	-22.69048076815992	-4.892336174429217	3461.887179487179	3610.25641025641	0.3620899149453219	0.559610705596107	0.0369881109643329
8039.093017578125	-12.80769230769231	-33.86888741762641	-1.440244503294944	17.10429744762159	-16.62109082584141	-7.27602939293871	3480.820512820513	3601.465201465201	0.3596597812879708	0.5535279805352799	0.03830911492734478
8058.624267578125	-12.11538461538462	-33.26903830756913	-1.355776929235696	16.21717714375043	-13.32358184495475	-8.050509630703377	3480.820512820513	3601.465201465201	0.3584447144592952	0.5608272506082725	0.05151915455746367
8078.155517578125	-12.03846153846154	-34.04733787029624	-0.9792603313419968	15.76854606647968	-10.97847285485981	-8.838898760641964	3464.8	3597.069597069597	0.3669501822600243	0.5535279805352799	0.0369881109643329
8097.686767578125	-12.46153846153846	-33.71099956888588	-1.988483094167642	15.35157123211003	-6.747845241969337	-9.200586001475486	3473.538461538461	3598.534798534799	0.3645200486026731	0.5450121654501217	0.04095112285336856
8117.218017578125	-12.03846153846154	-34.13279084806306	-2.475842212231323	14.47677239472839	-3.442543545521422	-9.566948261443313	3473.538461538461	3598.534798534799	0.3572296476306197	0.5486618004866181	0.03963011889035667
8136.749267578125	-11.15384615384616	-33.92937426864569	-1.992825029254173	14.49610717113998	-1.564817638287136	-9.548364350135085	3469.169230769231	3598.534798534799	0.3584447144592952	0.551094890510949	0.047556142668428
8156.280517578125	-11.5	-33.71157695387079	-2.921152306460553	12.66651631244662	-1.534047636272561	-10.75425053744637	3476.451282051281	3594.139194139194	0.3681652490886999	0.5474452554744526	0.05416116248348745
8175.811767578125	-10.84615384615385	-33.1394500215557	-3.335191229907002	11.73636722411393	-4.792993899583396	-10.77753850919616	3457.517948717949	3594.139194139194	0.370595382746051	0.5547445255474452	0.04623513870541612
8195.343017578125	-10.30769230769231	-33.91072858286629	-1.848186241300733	9.912084521988014	-6.624364373680606	-11.18577265222199	3474.994871794872	3594.139194139194	0.3645200486026731	0.5498783454987835	0.05151915455746367
8214.874267578125	-10.42307692307692	-33.06622990700253	-1.650043111412207	8.989423206041948	-10.34494939823876	-10.80558862400199	3467.71282051282	3597.069597069597	0.3645200486026731	0.5450121654501217	0.0488771466314399
8234.405517578125	-11.38461538461539	-33.729260331342	-2.152368048284782	9.937201917431599	-8.940350895478458	-9.576530630169915	3458.974358974359	3598.534798534799	0.3791008505467801	0.5474452554744526	0.059445178335535
8253.936767578125	-11.88461538461539	-33.62081203424278	-1.305552134014904	8.264187119889145	-3.214061447271015	-7.461721261181805	3454.605128205128	3601.465201465201	0.3742405832320777	0.5425790754257908	0.05151915455746367
8273.468017578125	-11.26923076923077	-33.54447404077108	-1.891682576830695	6.590697859882145	4.843799953856784	-6.13991795865209	3479.364102564102	3605.860805860806	0.3912515188335358	0.5486618004866181	0.059445178335535
8292.999267578125	-10.69230769230769	-33.68831988667857	-1.04554412760978	5.22954731733567	2.075614920090353	-5.745825038258166	3492.471794871794	3610.25641025641	0.3693803159173754	0.537712895377129	0.0607661822985469
8312.530517578125	-10.96153846153846	-34.01247921414054	-1.87603929297284	5.223008469878146	-2.125890224503037	-4.563284905311158	3486.646153846154	3613.186813186813	0.3693803159173754	0.5486618004866181	0.05680317040951123
8332.061767578125	-10.57692307692308	-33.54125608178851	-0.8218112951899983	5.644816998350687	-5.887086360584942	-4.19695168665058	3472.082051282051	3613.186813186813	0.3791008505467801	0.551094890510949	0.05416116248348745
8351.593017578125	-10.34615384615385	-34.0316022048408	-1.53527437334483	5.538001265622396	-13.88300689745316	-5.092169265304224	3485.189743589744	3605.860805860806	0.3730255164034022	0.5535279805352799	0.05416116248348745
8371.124267578125	-10	-34.04846954486666	-1.038061218205334	6.352141695485545	-21.89041607754804	-5.180384761403804	3472.082051282051	3614.652014652014	0.370595382746051	0.5389294403892945	0.05151915455746367
8390.655517578125	-11.57692307692308	-32.97561895670383	-1.180590626347231	6.274328127374638	-27.06974775356483	-6.047726473095108	3470.625641025641	3610.25641025641	0.3754556500607533	0.5304136253041363	0.05151915455746367
8410.186767578125	-11.53846153846154	-33.97102297222394	-1.44885138880335	6.773950223958086	-25.65161221362995	-4.814051542743226	3460.430769230769	3608.791208791209	0.3742405832320777	0.551094890510949	0.05416116248348745
8429.718017578125	-11.92307692307692	-33.77478906201884	-1.260546899057708	5.450994771770242	-22.33277348000745	-5.175796866191245	3479.364102564102	3610.25641025641	0.3693803159173754	0.537712895377129	0.047556142668428
8449.249267578125	-12.42307692307692	-34.22063035043419	-1.545405555213401	6.39611940487617	-19.99710473919125	-4.345564894501898	3477.907692307692	3608.791208791209	0.370595382746051	0.5364963503649636	0.05284015852047556
8468.780517578125	-11.30769230769231	-33.37511547699698	-0.7057646116893512	5.114962046259777	-16.18545638207643	-3.478310306732341	3495.384615384615	3617.582417582417	0.3827460510328068	0.5462287104622872	0.05284015852047556
8488.311767578125	-12.88461538461539	-34.21610365215248	-1.310202007760054	5.200263386757304	-11.46776346730696	-2.207496595071254	3472.082051282051	3614.652014652014	0.3791008505467801	0.5352798053527981	0.047556142668428
8507.843017578125	-12.96153846153846	-33.64566268399334	-0.9091734926402657	3.477962723256781	-5.772644881344522	-1.725159137270503	3495.384615384615	3620.51282051282	0.3803159173754556	0.551094890510949	0.04623513870541612
8527.374267578125	-12.34615384615385	-33.16207581449775	-0.7039015828047051	3.539095593239821	-3.40210935061791	-0.4775753147446997	3483.733333333333	3620.51282051282	0.3815309842041312	0.5340632603406327	0.04623513870541612
8546.905517578125	-12.88461538461539	-33.52632105684548	-1.183947157726181	3.578239608527548	-1.978229489069693	0.35259857433015	3482.276923076923	3623.443223443223	0.3863912515188335	0.5450121654501217	0.03830911492734478
8566.436767578125	-13.19230769230769	-33.05677619018291	-1.276575106238837	2.64496197944659	-1.974533561404282	-0.8625214860207535	3495.384615384615	3620.51282051282	0.3718104495747266	0.551094890510949	0.047556142668428
8585.968017578125	-13.07692307692308	-33.50095460984172	-0.3368848925294081	2.622973124751278	-2.921189230582677	-1.279931419471707	3492.471794871794	3619.047619047619	0.3815309842041312	0.5535279805352799	0.0369881109643329
8605.499267578125	-12.53846153846154	-33.80647594999076	-0.9838948081542156	3.014830563677338	-4.835830321675299	-2.527486200690261	3505.579487179487	3619.047619047619	0.3827460510328068	0.5462287104622872	0.04623513870541612
8625.030517578125	-12.61538461538462	-33.47314774896841	-0.2656894746566485	3.443652402071951	-6.727093266084167	-2.550687048518296	3492.471794871794	3619.047619047619	0.3645200486026731	0.5498783454987835	0.04491413474240423
8644.561767578125	-12.69230769230769	-32.92811172014535	-0.5174909158095706	4.800443712980076	-6.759911662046663	-2.156419880280879	3464.8	3614.652014652014	0.3815309842041312	0.5450121654501217	0.04491413474240423
8664.093017578125	-12.96153846153846	-32.80268060602328	-0.7505850834513763	3.864512005615395	-5.82514549632536	-3.770365962774509	3499.753846153846	3614.652014652014	0.3876063183475091	0.5450121654501217	0.0488771466314399
8683.624267578125	-13.26923076923077	-33.54102512779454	-0.06412822565744891	4.778454858284763	-7.706567331225057	-2.573829813731833	3479.364102564102	3619.047619047619	0.3778857837181044	0.551094890510949	0.04491413474240423
8703.155517578125	-13.84615384615385	-32.13463078154831	-0.5761532302765289	4.788122246490558	-6.767704377607914	-2.564537858077719	3482.276923076923	3620.51282051282	0.3863912515188335	0.5364963503649636	0.05151915455746367
8722.686767578125	-12.96153846153846	-33.99363336823305	-0.8183315883476012	3.871999778002015	-6.28678425757268	-3.366893962804726	3493.928205128205	3617.582417582417	0.3730255164034022	0.5401459854014599	0.05284015852047556
8742.218017578125	-13.26923076923077	-33.71655016320749	-0.9032610703947772	3.869345699718292	-5.355714019516788	-3.765719984947452	3473.538461538461	3611.721611721612	0.3730255164034022	0.5413625304136254	0.04359313077939234
8761.749267578125	-13.07692307692308	-33.53559770893638	-0.527806860873314	2.531889165221756	-3.445169716320007	-4.141403241876641	3502.666666666666	3614.652014652014	0.3754556500607533	0.5352798053527981	0.04095112285336856
8781.280517578125	-12.84615384615385	-34.05288846461785	-1.817115230646055	3.4480116337103	-3.92608983635524	-3.339047137149635	3473.538461538461	3617.582417582417	0.3961117861482381	0.537712895377129	0.03434610303830912
8800.811767578125	-11.88461538461539	-33.66777267968221	-0.8805967851204042	3.857024233228775	-5.363506735078039	-4.173837962744292	3472.082051282051	3613.186813186813	0.3876063183475091	0.5291970802919708	0.03434610303830912
8820.343017578125	-12.42307692307692	-33.85880242655663	-0.4060325183223501	4.731348608145868	-6.337236478605599	-4.600481769234861	3482.276923076923	3610.25641025641	0.3803159173754556	0.5389294403892945	0.04491413474240423
8839.874267578125	-12.03846153846154	-33.39219837408388	0.8791494734248937	6.931282513534526	-11.56087519381155	-4.266554230134684	3477.907692307692	3614.652014652014	0.3863912515188335	0.5413625304136254	0.04095112285336856
8859.405517578125	-11.76923076923077	-34.14736404508223	-0.09333620742748061	8.705048658812295	-15.82432120266452	-3.510599821063747	3482.276923076923	3620.51282051282	0.3912515188335358	0.5352798053527981	0.04359313077939234
8878.936767578125	-12.34615384615385	-33.35915655601404	-0.465249122374823	9.151025657799321	-17.23835995470356	-3.121036713267885	3488.102564102564	3617.582417582417	0.3815309842041312	0.5328467153284672	0.04623513870541612
8898.468017578125	-12.73076923076923	-33.78649842951284	0.1326137833343599	8.731871207610505	-14.40823405667755	-3.088543909785737	3492.471794871794	3619.047619047619	0.3851761846901579	0.5474452554744526	0.05151915455746367
8917.999267578125	-13.46153846153846	-34.0884245858225	0.5750754449713615	10.09349621262153	-13.97162097583148	-2.689630763721264	3453.148717948718	3613.186813186813	0.3851761846901579	0.5401459854014599	0.04359313077939234
8937.530517578125	-13.84615384615385	-33.83368233047977	-0.2389603990885016	7.856597907764316	-8.771360407309279	-4.24791223621196	3489.558974358974	3613.186813186813	0.3985419198055893	0.5462287104622872	0.04095112285336856
8957.061767578125	-13.69230769230769	-33.17697234710845	-0.5359980291925848	7.912422621179911	-4.538684400470886	-3.797980457971609	3472.082051282051	3608.791208791209	0.3851761846901579	0.5340632603406327	0.04227212681638045
8976.593017578125	-13.88461538461539	-33.09925632813943	-0.3833374391821149	6.594300863094964	-0.7504141900398177	-4.155079803592572	3491.015384615384	3614.652014652014	0.3718104495747266	0.5364963503649636	0.04095112285336856
8996.124267578125	-13.26923076923077	-33.03138664777976	-0.5460522263965015	6.616289717790277	0.1962414791385767	-3.737669870141619	3470.625641025641	3613.186813186813	0.3863912515188335	0.5401459854014599	0.04491413474240423
9015.655517578125	-12.76923076923077	-33.38926525836053	-0.459814005050194	6.178274953654418	-1.182930482990053	-2.930754911509301	3466.25641025641	3616.117216117216	0.3863912515188335	0.5401459854014599	0.035667107001321
9035.186767578125	-13.61538461538462	-31.83203485865615	-0.5521032210383692	5.737606111234834	-1.631032207062791	-2.522665975019711	3493.928205128205	3619.047619047619	0.3900364520048603	0.5231143552311436	0.05416116248348745
9054.718017578125	-13.73076923076923	-32.33091858101866	-0.4925324875284844	6.205571964917175	-2.098415289923443	-1.715692933772896	3483.733333333333	3619.047619047619	0.3863912515188335	0.5389294403892945	0.05284015852047556
9074.249267578125	-13.61538461538462	-33.7104606762333	-0.8615815729506684	5.30925873530477	-2.071341215574278	-1.70645906073328	3495.384615384615	3619.047619047619	0.3863912515188335	0.5316301703163017	0.05019815059445178
9093.780517578125	-13.46153846153846	-33.4887140481616	-0.5642975919196898	4.865935814601465	-1.588372701591124	-1.697196146386415	3496.841025641026	3620.51282051282	0.3863912515188335	0.537712895377129	0.04491413474240423
9113.311767578125	-13.84615384615385	-33.0853913900351	-1.115045882860134	5.316746507691391	-2.532979976821598	-1.302987060763497	3470.625641025641	3617.582417582417	0.3778857837181044	0.5437956204379563	0.04491413474240423
9132.843017578125	-14.46153846153846	-33.15788015027407	-0.7213771016813448	3.491989343100924	-2.032778497998452	-2.504227270247728	3498.297435897436	3613.186813186813	0.3888213851761846	0.5498783454987835	0.04359313077939234
9152.374267578125	-13.46153846153846	-33.32627640573998	-0.9938720206934779	3.959955196783265	-2.500161580859103	-1.697254229000913	3473.538461538461	3619.047619047619	0.3851761846901579	0.5401459854014599	0.05548216644649934
9171.905517578125	-13.96153846153846	-32.94222300917657	-0.4657726180944757	3.964788890886163	-2.030730104050531	-1.692608251173857	3483.733333333333	3620.51282051282	0.3888213851761846	0.5413625304136254	0.0488771466314399
9191.436767578125	-13.73076923076923	-33.41871189259099	0.05097924493440909	3.073309355376655	-1.534224552892796	-1.678728400307184	3485.189743589744	3620.51282051282	0.3924665856622114	0.5474452554744526	0.05416116248348745
9210.968017578125	-14.07692307692308	-33.42032087208229	0.477582065652522	3.078143049479552	-1.064793076084224	-1.674082422480127	3477.907692307692	3616.117216117216	0.3900364520048603	0.537712895377129	0.05151915455746367
9230.499267578125	-13.76923076923077	-32.72123852928497	-0.1688427665209091	1.713863966184807	-0.570335918874408	-2.471821590687326	3508.492307692307	3620.51282051282	0.3803159173754556	0.5413625304136254	0.04491413474240423
9250.030517578125	-13.96153846153846	-33.10158126501201	-0.1901675186302887	1.709030272081909	-1.03976739568298	-2.476467568514383	3479.364102564102	3616.117216117216	0.3912515188335358	0.5389294403892945	0.05019815059445178
9269.561767578125	-13.80769230769231	-33.30478998583482	0.2010377532795467	2.164674659274732	-1.514943194104882	-2.077612505064408	3469.169230769231	3616.117216117216	0.3876063183475091	0.537712895377129	0.05019815059445178
9289.093017578125	-13.5	-32.8589871897518	0.6801287183593028	1.248552190786189	-1.034023074069649	-2.879968609791415	3492.471794871794	3619.047619047619	0.3888213851761846	0.5437956204379563	0.05151915455746367
9308.624267578125	-13.46153846153846	-32.84589209829402	-0.01308739299131623	1.265707351378604	-0.5567988816998258	-2.467204654167519	3482.276923076923	3617.582417582417	0.3900364520048603	0.5340632603406327	0.05680317040951123
9328.155517578125	-13.03846153846154	-33.70726581265012	0.3248290940444665	1.748174287369637	0.3841124658652376	-1.646293679439534	3480.820512820513	3621.978021978022	0.3863912515188335	0.5401459854014599	0.05019815059445178
9347.686767578125	-13.65384615384616	-33.49106208043358	-0.2545882860134263	1.275374739584399	0.3820640719173173	-2.457912698513405	3495.384615384615	3619.047619047619	0.3948967193195626	0.5401459854014599	0.04623513870541612
9367.218017578125	-12.96153846153846	-33.70417102913099	0.09316684116523999	2.181355357402599	1.293852951185296	-2.457854615898907	3486.646153846154	3616.117216117216	0.4034021871202916	0.5389294403892945	0.05019815059445178
9386.749267578125	-13.46153846153846	-32.50408018722671	0.2040093613352221	2.179175741583424	-0.1066487636791675	-2.063674571583238	3482.276923076923	3614.652014652014	0.393681652490887	0.5401459854014599	0.04623513870541612
9406.280517578125	-12.61538461538462	-33.79956272710476	0.670444047545729	1.718697660287704	-0.1009044420658365	-2.46717561286027	3486.646153846154	3616.117216117216	0.3827460510328068	0.5462287104622872	0.04491413474240423
9425.811767578125	-13.26923076923077	-33.0914346862105	0.5332727720638051	3.070655277092932	-0.6031543148369034	-2.07755442244991	3469.169230769231	3614.652014652014	0.3912515188335358	0.5340632603406327	0.05416116248348745
9445.343017578125	-14.19230769230769	-32.88145131489807	0.5725657449036152	3.072834892912107	0.79734740002756	-2.47173446676558	3493.928205128205	3620.51282051282	0.4009720534629404	0.5352798053527981	0.06208718626155878
9464.874267578125	-13.26923076923077	-32.9759576892283	0.5286536921845166	3.99644513378727	-0.1452114812549939	-1.26590636206879	3477.907692307692	3616.117216117216	0.3888213851761846	0.5450121654501217	0.047556142668428
9484.405517578125	-13.46153846153846	-32.95213093551764	-0.4703763010408328	4.45692321508299	-0.1509558028683249	-0.8624053207917579	3482.276923076923	3620.51282051282	0.3827460510328068	0.5389294403892945	0.04623513870541612
9503.936767578125	-13.11538461538462	-34.08296637309848	-0.04398903738375304	4.900246135786295	-0.6339243168514787	-0.8716682351386225	3469.169230769231	3620.51282051282	0.3900364520048603	0.5425790754257908	0.05548216644649934
9523.468017578125	-13.07692307692308	-33.00979244934409	0.1050070825891483	3.964788890886163	-2.030730104050531	-1.692608251173857	3485.189743589744	3620.51282051282	0.3815309842041312	0.5389294403892945	0.05019815059445178
9542.999267578125	-13.57692307692308	-33.44793527129396	-0.5647748968405495	2.615485352364658	-2.459550469335356	-1.68340341944149	3502.666666666666	3621.978021978022	0.3948967193195626	0.5437956204379563	0.05548216644649934
9562.530517578125	-13.57692307692308	-33.14307599926094	-0.4231231138757159	3.541275209058995	-2.001607635753447	-0.8717553590603692	3482.276923076923	3620.51282051282	0.3863912515188335	0.5413625304136254	0.04623513870541612
9582.061767578125	-14.26923076923077	-32.64204440475457	0.2176048531132599	2.21130644694908	-0.5527020938039853	-0.8439666160197754	3476.451282051281	3621.978021978022	0.3924665856622114	0.5401459854014599	0.047556142668428
9601.593017578125	-14	-33.25709798608117	-0.06817761901829145	1.755662059756257	-0.07752629538208272	-1.24282167946975	3498.297435897436	3623.443223443223	0.3912515188335358	0.5340632603406327	0.047556142668428
9621.124267578125	-13.53846153846154	-32.66268399334852	0.5188150520416333	2.216140141051977	-0.08327061699541369	-0.8393206381927187	3476.451282051281	3619.047619047619	0.3876063183475091	0.5328467153284672	0.04095112285336856
9640.655517578125	-13.26923076923077	-33.11145069902075	-0.3890035105007081	2.678797838166872	1.311486776255719	-0.8299996412313563	3493.928205128205	3623.443223443223	0.3718104495747266	0.5304136253041363	0.05548216644649934
9660.186767578125	-12.69230769230769	-33.51088563158219	-0.2249491901213279	2.669130449961077	0.3726238226385756	-0.8392915968854698	3482.276923076923	3621.978021978022	0.3778857837181044	0.5413625304136254	0.05284015852047556
9679.718017578125	-13.34615384615385	-32.65648672784381	0.01664408449836796	2.159840965171834	-1.984374670913454	-2.082258482891465	3488.102564102564	3614.652014652014	0.3912515188335358	0.5413625304136254	0.05019815059445178
9699.249267578125	-12.80769230769231	-33.08133429820779	-0.4332850896101494	2.162495043455558	-2.915444908969346	-1.683432460748739	3493.928205128205	3620.51282051282	0.3900364520048603	0.5340632603406327	0.05680317040951123
9718.780517578125	-13.34615384615385	-32.99906848555768	-0.1619603375007701	2.635294591240796	-2.913396515021425	-0.871813441674867	3488.102564102564	3620.51282051282	0.3961117861482381	0.5474452554744526	0.05416116248348745
9738.311767578125	-13.03846153846154	-32.99900689782596	-0.4727320317792696	2.649795673549487	-1.505102084595711	-0.8578755081936967	3476.451282051281	3621.978021978022	0.393681652490887	0.5364963503649636	0.05019815059445178
9757.843017578125	-13.46153846153846	-33.35630042495535	0.507328940075137	3.093118594252793	-1.988070598578865	-0.8671384225405614	3469.169230769231	3614.652014652014	0.3815309842041312	0.5340632603406327	0.04359313077939234
9777.374267578125	-13.46153846153846	-32.73580402783765	0.2517398534211985	2.198984980459562	-0.5604948093652366	-1.252084593816615	3482.276923076923	3619.047619047619	0.3888213851761846	0.5279805352798054	0.05548216644649934
9796.905517578125	-13.38461538461539	-33.1507359733941	-0.2324320995257745	1.741160977447565	-1.485820725807797	-1.256759612950921	3480.820512820513	3617.582417582417	0.3900364520048603	0.5389294403892945	0.05680317040951123
9816.436767578125	-13.73076923076923	-32.83439828786106	-0.3185471454086346	3.075963433660378	-2.465294790948687	-1.279902378164458	3469.169230769231	3620.51282051282	0.3851761846901579	0.5425790754257908	0.05548216644649934
9835.968017578125	-13.65384615384616	-33.14617078278007	-0.1914608609964894	2.586008725282725	-2.94456737726643	-2.504285352862226	3491.015384615384	3617.582417582417	0.3961117861482381	0.5352798053527981	0.047556142668428
9855.499267578125	-14.19230769230769	-32.66897364045082	-0.4359333620742747	3.4480116337103	-3.92608983635524	-3.339047137149635	3505.579487179487	3617.582417582417	0.3815309842041312	0.5340632603406327	0.05548216644649934
9875.030517578125	-14.5	-32.71907526020817	0.4537630104083268	3.888680476129882	-3.477988112282503	-3.747136073639226	3485.189743589744	3613.186813186813	0.3900364520048603	0.5498783454987835	0.0488771466314399
9894.561767578125	-13.80769230769231	-32.87983463694032	0.1071164624006897	4.339491169219808	-4.422595387512977	-3.352926988016307	3463.343589743589	3616.117216117216	0.3912515188335358	0.5328467153284672	0.05416116248348745
9914.093017578125	-13.65384615384616	-32.44176110118865	-0.7965603251832234	2.997200940620374	-2.981482561124767	-3.733256222772553	3486.646153846154	3613.186813186813	0.3973268529769137	0.5352798053527981	0.05416116248348745
9933.624267578125	-13.30769230769231	-32.57564513148981	-0.2177434255096384	3.930478569701332	-2.985178488790177	-2.518136162421649	3463.343589743589	3613.186813186813	0.3876063183475091	0.5340632603406327	0.05548216644649934
9953.155517578125	-14.19230769230769	-33.22711245919813	0.547930652214079	2.588188341101899	-1.544065662401967	-2.898465397177895	3472.082051282051	3616.117216117216	0.3924665856622114	0.5413625304136254	0.059445178335535
9972.686767578125	-13.53846153846154	-33.43176079324999	0.5111165855761531	1.684387339102874	-1.055352826805482	-3.292703524108063	3492.471794871794	3619.047619047619	0.3948967193195626	0.5389294403892945	0.05151915455746367
9992.218017578125	-14.07692307692308	-33.21246227751432	-0.2999630473609656	0.3399174946842661	-1.014741715281736	-3.278852714548639	3485.189743589744	3616.117216117216	0.3888213851761846	0.5352798053527981	0.05416116248348745
10011.74926757813	-13.61538461538462	-32.75508098786722	-0.5536429143314652	0.3887288981777886	1.348001099883625	-2.439386869819676	3496.841025641026	3616.117216117216	0.3961117861482381	0.5450121654501217	0.047556142668428
10031.28051757813	-13.96153846153846	-33.26324906078709	0.200914577816099	0.3913829764615114	0.416930861827733	-2.04056084767695	3480.820512820513	3614.652014652014	0.3948967193195626	0.5328467153284672	0.05416116248348745
10050.81176757813	-14.26923076923077	-33.00310248198559	0.9628164069717312	0.8470273636543343	-0.05824493659416952	-1.641705784226975	3480.820512820513	3620.51282051282	0.3985419198055893	0.5401459854014599	0.04623513870541612
10070.34301757813	-13.96153846153846	-33.28326507359734	1.201715218328509	0.386549282358614	-0.05250061498083854	-2.045206825504006	3485.189743589744	3616.117216117216	0.3985419198055893	0.5389294403892945	0.0488771466314399
10089.87426757813	-14.26923076923077	-32.71594968282318	0.06671491038985034	0.8738499124525443	1.357842209392797	-1.219649872948965	3486.646153846154	3620.51282051282	0.3827460510328068	0.5450121654501217	0.05151915455746367
10109.40551757813	-14.34615384615385	-33.56741547083821	0.40923508037199	1.309685060769229	1.336512456656963	-1.632384787265612	3491.015384615384	3626.373626373626	0.3851761846901579	0.5340632603406327	0.05151915455746367
10128.93676757813	-13.76923076923077	-32.82747736650859	-0.6261316745704257	1.304851366666332	0.8670809798483913	-1.637030765092669	3485.189743589744	3619.047619047619	0.3973268529769137	0.537712895377129	0.04623513870541612
10148.46801757813	-13.61538461538462	-33.19928250292542	0.5025866847324013	2.19633090217584	0.3705754286906554	-1.650910615959341	3473.538461538461	3619.047619047619	0.3912515188335358	0.537712895377129	0.05019815059445178
10167.99926757813	-14.11538461538462	-33.19861273634292	0.9690983556075631	1.723531354390602	0.368527034742735	-2.462529635033213	3493.928205128205	3619.047619047619	0.3900364520048603	0.5340632603406327	0.05416116248348745
10187.53051757813	-13.23076923076923	-32.81043296175402	-0.09373652768368546	2.162020580991009	-0.5838729560489903	-2.476438527207134	3491.015384615384	3617.582417582417	0.3851761846901579	0.5352798053527981	0.05416116248348745
10207.06176757813	-13.88461538461539	-32.71587269815853	-0.3217497074582743	2.191497208072942	-0.09885604811791622	-1.655556593786398	3474.994871794872	3619.047619047619	0.3863912515188335	0.5328467153284672	0.05019815059445178
10226.59301757813	-13.07692307692308	-33.29001662868756	0.6546775882244258	2.184009435686322	0.3627827131294041	-2.059028593756181	3488.102564102564	3614.652014652014	0.3973268529769137	0.537712895377129	0.03963011889035667
10246.12426757813	-13.65384615384616	-33.98838301410359	-0.3885416025127795	2.20381867456246	-0.09106333255666496	-1.247438615989558	3482.276923076923	3619.047619047619	0.3888213851761846	0.5364963503649636	0.04359313077939234
10265.65551757813	-13.73076923076923	-33.03455841596355	0.07407464433084932	2.23812899574729	0.8633850521829807	-0.4219107047417655	3477.907692307692	3621.978021978022	0.3924665856622114	0.5316301703163017	0.03434610303830912
10285.18676757813	-13.80769230769231	-34.15624037691692	0.4658649996920612	1.782484608554467	1.338560850604883	-0.8207657681917406	3491.015384615384	3621.978021978022	0.3900364520048603	0.5352798053527981	0.05416116248348745
10304.71801757813	-13.73076923076923	-32.2208305105623	-0.2277052411159697	1.75831613803998	-1.008596533437975	-0.8439956573270243	3485.189743589744	3620.51282051282	0.402187120291616	0.5437956204379563	0.04623513870541612
10324.24926757813	-14.07692307692308	-32.87911867955904	0.3405493625669767	1.709030272081909	-1.03976739568298	-2.476467568514383	3492.471794871794	3619.047619047619	0.3900364520048603	0.537712895377129	0.05284015852047556
10343.78051757813	-13.34615384615385	-32.59335930282687	0.7064266798053828	2.166854275093907	-0.1144414792404187	-2.471792549380078	3486.646153846154	3617.582417582417	0.3961117861482381	0.5413625304136254	0.04359313077939234
10363.31176757813	-13.42307692307692	-32.73425663607809	0.1359087269815853	3.065347120525487	1.25898616127488	-2.875206466735363	3473.538461538461	3616.117216117216	0.3924665856622114	0.5340632603406327	0.05284015852047556
10382.84301757813	-13.88461538461539	-33.83907895547207	0.06933238898811367	2.181355357402599	1.293852951185296	-2.457854615898907	3492.471794871794	3619.047619047619	0.3888213851761846	0.5316301703163017	0.06208718626155878
10402.37426757813	-13.92307692307692	-32.61887971915994	0.6362936503048593	2.179175741583424	-0.1066487636791675	-2.063674571583238	3477.907692307692	3614.652014652014	0.3912515188335358	0.5279805352798054	0.047556142668428
10421.90551757813	-13.57692307692308	-32.92059031840857	-0.008945618032887959	2.179175741583424	-0.1066487636791675	-2.063674571583238	3479.364102564102	3616.117216117216	0.3803159173754556	0.5316301703163017	0.04227212681638045
10441.43676757813	-13.69230769230769	-33.05379688366077	-0.9255404323458765	2.605343501694314	-1.066841470032144	-2.485701441553999	3485.189743589744	3619.047619047619	0.3973268529769137	0.5352798053527981	0.03963011889035667
10460.96801757813	-14.38461538461539	-32.51350311018046	-0.3248444909773971	2.605343501694314	-1.066841470032144	-2.485701441553999	3492.471794871794	3617.582417582417	0.3900364520048603	0.5352798053527981	0.047556142668428
10480.49926757813	-13.65384615384616	-33.64580125638972	-0.2099371805136416	2.166854275093907	-0.1144414792404187	-2.471792549380078	3505.579487179487	3619.047619047619	0.3924665856622114	0.5291970802919708	0.05416116248348745
10500.03051757813	-13.73076923076923	-32.49951499661268	0.2449805998645072	2.617664968183832	-1.059048754470893	-2.077583463757159	3483.733333333333	3611.721611721612	0.3948967193195626	0.5401459854014599	0.04623513870541612
10519.56176757813	-14	-32.55807723101558	-0.4038307569132229	2.179175741583424	-0.1066487636791675	-2.063674571583238	3473.538461538461	3616.117216117216	0.3948967193195626	0.5389294403892945	0.05416116248348745
10539.09301757813	-13.42307692307692	-32.32623791340765	-1.034258175771387	2.220973835154875	0.3861608598131578	-0.834674660365662	3458.974358974359	3616.117216117216	0.3876063183475091	0.5413625304136254	0.04623513870541612
10558.62426757813	-14.19230769230769	-32.0207627640574	-0.1541694894377039	1.314518754872126	1.805943933465535	-1.627738809438555	3489.558974358974	3619.047619047619	0.3803159173754556	0.5340632603406327	0.04227212681638045
10578.15551757813	-13.26923076923077	-33.58259684670814	0.09138079694524848	1.796985690863159	2.746855281030598	-0.8068278347105704	3480.820512820513	3620.51282051282	0.393681652490887	0.5304136253041363	0.05151915455746367
10597.68676757813	-13.34615384615385	-33.27467358502186	0.1567561741701053	1.733198742596396	1.307389988359878	-2.453237679379099	3488.102564102564	3616.117216117216	0.3924665856622114	0.5328467153284672	0.05284015852047556
10617.21801757813	-13.57692307692308	-32.96678111720146	0.377517398534212	2.171687969196804	0.3549899975681528	-2.467146571553021	3485.189743589744	3616.117216117216	0.3851761846901579	0.5340632603406327	0.05151915455746367
10636.74926757813	-14.5	-33.09937950360288	0.2382059493748847	3.526299664285755	-1.078330113258806	-1.678699358999935	3476.451282051281	3620.51282051282	0.402187120291616	0.5304136253041363	0.04491413474240423
10656.28051757813	-13.5	-32.89670967543265	0.6431760793249983	2.619844584003007	0.3414529603935706	-2.471763508072828	3495.384615384615	3619.047619047619	0.4046172539489671	0.537712895377129	0.05416116248348745
10675.81176757813	-13.5	-33.61343690336884	-0.05892406232678438	3.065821582990035	-1.072585791645475	-2.082200400276967	3467.71282051282	3613.186813186813	0.3997569866342648	0.5291970802919708	0.04491413474240423
10695.34301757813	-13.88461538461539	-33.92376208659236	0.4573350988483094	3.050846038216794	-0.1493082691508345	-2.889144400216533	3498.297435897436	3619.047619047619	0.3985419198055893	0.5401459854014599	0.05416116248348745
10714.87426757813	-13.34615384615385	-33.19229999384123	-0.1157695387078894	3.531133358388652	-0.6088986364502345	-1.674053381172878	3467.71282051282	3616.117216117216	0.3912515188335358	0.5352798053527981	0.06208718626155878
10734.40551757813	-13.38461538461539	-32.88205949374885	-0.2047176202500463	2.644487516982042	0.3570383915160731	-1.655527552479149	3488.102564102564	3620.51282051282	0.3912515188335358	0.5316301703163017	0.05680317040951123
10753.93676757813	-13.96153846153846	-31.78822288600111	-0.4734710845599557	2.641833438698319	1.288108629571965	-2.054353574621875	3491.015384615384	3614.652014652014	0.3839611178614824	0.5413625304136254	0.047556142668428
10773.46801757813	-13.07692307692308	-32.65797253187165	-0.1782964833405185	3.553122213083965	0.3377570327281599	-1.256643447721925	3466.25641025641	3614.652014652014	0.3900364520048603	0.5413625304136254	0.05416116248348745
10792.99926757813	-13.65384615384616	-32.30857763133584	0.2365738744842028	2.654154905187837	1.295901345133216	-1.646235596825036	3495.384615384615	3620.51282051282	0.3912515188335358	0.5340632603406327	0.05019815059445178
10812.53051757813	-14	-32.40564759499908	-0.3330048654308062	3.557955907186862	0.8071885095367314	-1.251997469894868	3477.907692307692	3617.582417582417	0.3924665856622114	0.5401459854014599	0.0488771466314399
10832.06176757813	-13.76923076923077	-32.04762271355546	0.7657510623883723	3.122120758870178	0.828518262272565	-0.8392625555782209	3479.364102564102	3621.978021978022	0.3851761846901579	0.5352798053527981	0.06208718626155878
10851.59301757813	-13.69230769230769	-32.64038923446449	-0.4420767383137279	2.654154905187837	1.295901345133216	-1.646235596825036	3496.841025641026	3620.51282051282	0.3900364520048603	0.5352798053527981	0.05151915455746367
10871.12426757813	-14.07692307692308	-32.72976843012872	0.565344583358995	2.678797838166872	1.311486776255719	-0.8299996412313563	3485.189743589744	3621.978021978022	0.3948967193195626	0.5364963503649636	0.05548216644649934
10890.65551757813	-13.65384615384616	-32.52105530578309	1.245072981462093	2.225807529257772	0.8555923366217294	-0.8300286825386052	3496.841025641026	3623.443223443223	0.3912515188335358	0.5291970802919708	0.06472919418758256
10910.18676757813	-13.84615384615385	-33.01687503849233	-0.6947096138449218	2.669130449961077	0.3726238226385756	-0.8392915968854698	3488.102564102564	3620.51282051282	0.3900364520048603	0.5291970802919708	0.047556142668428
10929.71801757813	-13.69230769230769	-32.9898996119973	-0.2742501693662625	2.191497208072942	-0.09885604811791622	-1.655556593786398	3491.015384615384	3619.047619047619	0.3888213851761846	0.5425790754257908	0.05548216644649934
10949.24926757813	-14.34615384615385	-33.26178635215865	0.512394531009423	2.206472752846183	-1.022133570612557	-0.8486125938468322	3489.558974358974	3620.51282051282	0.3912515188335358	0.537712895377129	0.05151915455746367
10968.78051757813	-14.11538461538462	-32.5326953870789	0.3655385847139252	1.314993217336675	-0.5256280194548209	-0.8347327429801598	3492.471794871794	3621.978021978022	0.3961117861482381	0.5413625304136254	0.06472919418758256
10988.31176757813	-13.92307692307692	-32.72819794296976	0.3329740715649443	1.797460153327708	0.4152833281102426	-0.01382176825217465	3480.820512820513	3623.443223443223	0.393681652490887	0.5267639902676399	0.05284015852047556
11007.84301757813	-13.69230769230769	-33.5480384307446	0.7096138449220915	1.765329447962052	0.8613366582350603	-1.233529723815637	3493.928205128205	3619.047619047619	0.3876063183475091	0.5450121654501217	0.05151915455746367
