Time Stamp	Accelerometer X	Accelerometer Y	Accelerometer Z	Gyroscope X	Gyroscope Y	Gyroscope Z	VSenseReg	VSenseBatt	Magnetometer X	Magnetometer Y	Magnetometer Z
1339.874267578125	5.973494096051354	-25.22861365239648	5.349409605135345	12.42612648786008	15.0377843120738	2.687556450660985	3486.646153846154	3639.560439560439	0.2128205128205128	0.58248730964467	0.09694555112881806
1359.405517578125	-5.546246058801876	-32.9982914806101	5.375394119812422	1.76193390230894	1.893132438345896	0.02807663932790422	3482.276923076923	3626.373626373626	0.2012820512820513	0.5875634517766497	0.09428950863213811
1378.936767578125	-5.107011608452046	-32.19422596777113	5.298839154795365	6.620287473541204	1.635672911865364	-0.542610493696575	3458.974358974359	3623.443223443223	0.208974358974359	0.5850253807106599	0.09694555112881806
1398.468017578125	-5.389893296792994	-32.91928469331599	5.010670320700569	4.822577925302976	0.9044614520027353	-2.150515656828477	3483.733333333333	3624.908424908425	0.2269230769230769	0.5736040609137055	0.09163346613545816
1417.999267578125	-5.431120599123672	-32.84072204103894	4.887940087632794	5.189162462105255	0.5180291265350433	-1.416622179900914	3476.451282051281	3621.978021978022	0.2128205128205128	0.5901015228426395	0.08897742363877821
1437.530517578125	-5.866769344034433	-33.60994757790984	5.323065596556737	4.83371562639417	0.8934362529427663	-1.77558388743538	3488.102564102564	3626.373626373626	0.2166666666666667	0.5786802030456852	0.09561752988047809
1457.061767578125	-4.986915406899082	-33.46475390057039	5.308459310091806	5.53054654391332	-0.2189595282271741	-1.405891759682341	3472.082051282051	3627.838827838828	0.2141025641025641	0.5926395939086294	0.08499335989375829
1476.593017578125	-5.270935902976043	-33.34250858414804	4.906409702395681	5.891280975091942	-1.350605308523793	-0.6185973186003712	3456.061538461538	3624.908424908425	0.2166666666666667	0.5799492385786802	0.09428950863213811
1496.124267578125	-5.55925001200365	-32.48515748787631	4.074998799635089	5.53054654391332	-0.2189595282271741	-1.405891759682341	3482.276923076923	3626.373626373626	0.2051282051282051	0.5939086294416244	0.08897742363877821
1515.655517578125	-5.073078831349346	-33.03465191879869	4.692116865065441	5.202662705852156	-0.621841453828285	-0.58665719488311	3486.646153846154	3633.699633699634	0.2153846153846154	0.581218274111675	0.08764940239043824
1535.186767578125	-6.154021591794675	-32.4075151153643	4.597840820532518	5.199737653040328	-0.9944481812427484	-0.5599567128059061	3493.928205128205	3630.769230769231	0.2217948717948718	0.5786802030456852	0.08897742363877821
1554.718017578125	-5.507173257593385	-32.69006270213837	5.282674240661468	4.513481926456251	-1.3945297078506	-0.07298337346393674	3483.733333333333	3626.373626373626	0.208974358974359	0.5736040609137055	0.09561752988047809
1574.249267578125	-5.865076521724143	-32.84242655921246	5.492347827585739	4.519332032079908	-0.649316253021673	-0.1263843376183445	3489.558974358974	3626.373626373626	0.2064102564102564	0.58248730964467	0.08764940239043824
1593.780517578125	-5.423533677314827	-32.80992329360433	5.646632268517321	4.172097844648187	-0.6575410530883825	-0.08371379368250997	3486.646153846154	3623.443223443223	0.2025641025641026	0.5862944162436548	0.09827357237715803
1613.311767578125	-5.232632566454048	-32.11042572326603	4.736743354595181	4.558032730821024	-1.438630504090476	1.426743704108449	3467.71282051282	3626.373626373626	0.2128205128205128	0.5774111675126903	0.09296148738379813
1632.843017578125	-5.550493503871331	-33.37861694570533	4.950649612866926	3.496979819155303	-1.068647778756203	0.7781913150525557	3495.384615384615	3629.304029304029	0.2141025641025641	0.583756345177665	0.09694555112881806
1652.374267578125	-5.633117390763716	-32.79824374302095	4.688260923628475	3.511042573058325	-0.7070662504017085	1.126422602368448	3476.451282051281	3626.373626373626	0.2269230769230769	0.5850253807106599	0.08897742363877821
1671.905517578125	-5.94389925306524	-33.76589252363488	5.610074693476046	3.491692223687767	-0.3124091248673069	0.3498585815050516	3492.471794871794	3632.234432234432	0.2166666666666667	0.5799492385786802	0.09694555112881806
1691.436767578125	-5.94897771999611	-32.06845557972701	5.10222800038904	3.491692223687767	-0.3124091248673069	0.3498585815050516	3495.384615384615	3632.234432234432	0.2141025641025641	0.5799492385786802	0.09428950863213811
1710.968017578125	-5.630178035661303	-33.14736633782823	4.982196433869742	3.143895526099925	-1.822086033651839	0.874262823142798	3488.102564102564	3629.304029304029	0.2205128205128205	0.5723350253807106	0.09694555112881806
1730.499267578125	-5.834667892885591	-32.87160081280094	4.533210711440892	3.824863657216466	-0.6657658531550919	-0.0410432497466755	3470.625641025641	3623.443223443223	0.2128205128205128	0.5736040609137055	0.08499335989375829
1750.030517578125	-5.108719820056066	-32.9232699048203	5.128017994393372	4.519332032079908	-0.649316253021673	-0.1263843376183445	3476.451282051281	3623.443223443223	0.2166666666666667	0.581218274111675	0.099601593625498
1769.561767578125	-6.220378995214546	-33.49741721483331	5.962100478545477	4.163322686212702	-1.775361235331773	-0.003612347450898223	3467.71282051282	3620.51282051282	0.2141025641025641	0.5786802030456852	0.09030544488711818
1789.093017578125	-5.42473404222576	-33.80871092504429	5.526595777424028	4.834953148737636	-3.238313345796239	-0.3570832764068481	3488.102564102564	3626.373626373626	0.2192307692307692	0.5901015228426395	0.09561752988047809
1808.624267578125	-4.985084080945223	-33.04352661670686	5.491591905477726	4.487718961305916	-3.246538145862948	-0.3144127324710136	3493.928205128205	3635.164835164835	0.2217948717948718	0.583756345177665	0.08764940239043824
1828.155517578125	-5.193682879595397	-33.49438029160864	4.631712040460299	4.835515658893757	-1.736861237078416	-0.8388169741087601	3493.928205128205	3632.234432234432	0.2192307692307692	0.5875634517766497	0.09827357237715803
1847.686767578125	-5.503803002266535	-33.11654358309541	5.619699773346481	5.199737653040328	-0.9944481812427484	-0.5599567128059061	3473.538461538461	3629.304029304029	0.2230769230769231	0.581218274111675	0.08366533864541832
1867.218017578125	-5.069200729329408	-32.73087649414653	5.079927067059154	5.538759192192685	-0.6025914547016066	-1.004259508212041	3482.276923076923	3626.373626373626	0.2025641025641026	0.581218274111675	0.08764940239043824
1886.749267578125	-5.904872619737938	-32.34223250021853	5.512738026206121	5.518846332666006	-1.709386437885028	-1.299089831373526	3480.820512820513	3626.373626373626	0.2192307692307692	0.58248730964467	0.09827357237715803
1906.280517578125	-5.760815903419255	-32.52003747600809	3.918409658074516	5.504783578762984	-2.070967966239522	-1.647321118689418	3486.646153846154	3626.373626373626	0.2192307692307692	0.5799492385786802	0.08897742363877821
1925.811767578125	-5.905611305836975	-32.49533258110466	5.438869416302556	5.877218221188921	-1.712186836878288	-0.9668286059162636	3466.25641025641	3626.373626373626	0.2051282051282051	0.5799492385786802	0.09030544488711818
1945.343017578125	-5.262425623543403	-32.62033473560577	5.757437645659664	5.902981186339256	0.1398216011340607	-0.7253992469091868	3463.343589743589	3626.373626373626	0.2	0.583756345177665	0.09030544488711818
1964.874267578125	-5.389200778575148	-33.65075336748525	5.079922142485161	4.85070343310902	1.627624508711724	-1.454053082196692	3492.471794871794	3632.234432234432	0.2128205128205128	0.583756345177665	0.08632138114209827
1984.405517578125	-5.707200219636	-33.57265085509071	5.279978036399988	4.842490784829655	2.011256435186157	-1.855685333666992	3504.123076923077	3629.304029304029	0.2038461538461538	0.5774111675126903	0.099601593625498
2003.936767578125	-5.951640067811383	-33.41192045458742	4.83599321886161	4.500544192865471	1.246792981230551	-1.384682056183654	3488.102564102564	3627.838827838828	0.2102564102564103	0.58248730964467	0.07835325365205843
2023.468017578125	-5.267088579543565	-32.96177899619946	5.291142045643413	4.861278624044092	0.1151472009339323	-0.5973876151016833	3473.538461538461	3623.443223443223	0.2141025641025641	0.581218274111675	0.08100929614873838
2042.999267578125	-5.90642693840466	-33.45604725374975	5.357306159534036	3.450066472134822	0.1042983987870326	-1.176568978144538	3493.928205128205	3629.304029304029	0.2051282051282051	0.5786802030456852	0.100929614873838
2062.530517578125	-6.549043216830223	-32.75469712023224	5.095678316977591	3.816651008937102	-0.2821339266806595	-0.4426755012169758	3464.8	3626.373626373626	0.2141025641025641	0.5786802030456852	0.09296148738379813
2082.061767578125	-6.334273311394356	-32.73315318626094	6.57266886056438	3.814288466281394	0.8467114546226999	-0.897708716841684	3470.625641025641	3627.838827838828	0.2243589743589744	0.5761421319796954	0.09030544488711818
2101.593017578125	-6.427992879066006	-33.41080411522026	5.20071209339947	3.481679542908815	2.701520291628308	-0.988540583291869	3485.189743589744	3630.769230769231	0.2166666666666667	0.5913705583756345	0.08897742363877821
2121.124267578125	-5.389616289505856	-32.61187216298369	5.038371049414406	3.115095006106537	3.087952617096	-1.722434060219431	3488.102564102564	3623.443223443223	0.2166666666666667	0.58248730964467	0.09163346613545816
2140.655517578125	-5.744518641359281	-33.26726694145789	5.548135864071909	2.753798064771794	2.718146288674796	-2.027994803599489	3495.384615384615	3626.373626373626	0.2076923076923077	0.5786802030456852	0.08897742363877821
2160.186767578125	-5.38389147223833	-32.9253465361162	5.610852776167031	2.770223361330523	1.950882435725931	-1.224730300658889	3489.558974358974	3630.769230769231	0.2128205128205128	0.583756345177665	0.07968127490039841
2179.718017578125	-6.097343438559168	-33.11706774243986	6.265656144083184	3.094619636423738	0.4797055251947556	-1.535530685679004	3477.907692307692	3617.582417582417	0.2128205128205128	0.583756345177665	0.09561752988047809
2199.249267578125	-6.023260609686884	-32.34266063037009	5.673939031311671	3.097544689235566	0.852312252609219	-1.562231167756208	3453.148717948718	3610.25641025641	0.2141025641025641	0.5761421319796954	0.08764940239043824
2218.780517578125	-5.505080313646118	-32.92294580629434	5.491968635388234	1.706807907009095	3.449710542363563	-2.32831590533949	3482.276923076923	3621.978021978022	0.2166666666666667	0.58248730964467	0.09163346613545816
2238.311767578125	-6.108023608407725	-32.41397307858512	5.197639159227482	2.400713771716416	1.96470803377916	-1.931923295509247	3466.25641025641	3624.908424908425	0.217948717948718	0.5875634517766497	0.08233731739707835
2257.843017578125	-6.111963267602583	-31.56384017664447	4.803673239741804	2.387213527969515	3.104578614142488	-2.761888280527051	3488.102564102564	3624.908424908425	0.2141025641025641	0.5888324873096447	0.08632138114209827
2277.374267578125	-6.024337860247977	-32.6492649149957	5.566213975202307	2.393063633593172	3.849792068971415	-2.815289244681459	3489.558974358974	3623.443223443223	0.2166666666666667	0.5786802030456852	0.08764940239043824
2296.905517578125	-5.547877323937247	-32.9197208259003	5.212267606275384	2.7291601199337	3.869042068098093	-3.23289155801039	3488.102564102564	3619.047619047619	0.2256410256410256	0.5748730964467005	0.08233731739707835
2316.436767578125	-5.79079363203337	-32.56822150856937	4.920636796663108	2.718022418842507	3.880067267158062	-3.607823327403486	3486.646153846154	3620.51282051282	0.2256410256410256	0.5685279187817258	0.08764940239043824
2335.968017578125	-5.82300280823832	-33.03722870214083	5.699719176168015	3.423065984641021	2.384039559513689	-2.836498948180147	3466.25641025641	3621.978021978022	0.2128205128205128	0.5786802030456852	0.09561752988047809
2355.499267578125	-5.503679887916695	-33.42436023628106	5.632011208330408	3.414290826205535	1.266219377270299	-2.756397501948535	3466.25641025641	3621.978021978022	0.2115384615384615	0.581218274111675	0.08233731739707835
2375.030517578125	-5.901102242774111	-32.76911750402892	5.889775722588897	3.4225034744849	0.8825874507958665	-2.354765250478235	3477.907692307692	3624.908424908425	0.2230769230769231	0.5850253807106599	0.09428950863213811
2394.561767578125	-6.021567787376593	-33.57513961167272	5.843221262340674	4.125184497627706	0.515405124454853	-2.038474086879604	3466.25641025641	3620.51282051282	0.2269230769230769	0.5774111675126903	0.09030544488711818
2414.093017578125	-6.348539186681983	-33.06489849837428	5.14608133180179	4.133959656063192	1.633225306698243	-2.118575533111216	3460.430769230769	3623.443223443223	0.2141025641025641	0.5888324873096447	0.09296148738379813
2433.624267578125	-6.222471939161813	-33.26453411067733	5.752806083818711	2.720947471654335	4.252673994572525	-3.63452380948069	3486.646153846154	3620.51282051282	0.2141025641025641	0.5761421319796954	0.07702523240371846
2453.155517578125	-6.066904031133157	-33.22319615932474	5.309596886684321	3.082244412989078	4.622480322993729	-3.328963066100632	3482.276923076923	3619.047619047619	0.2205128205128205	0.581218274111675	0.08366533864541832
2472.686767578125	-6.464280218109382	-32.68338467201721	5.571978189061782	3.787850488943713	4.627904724067179	-3.039372384579205	3472.082051282051	3621.978021978022	0.217948717948718	0.5748730964467005	0.07835325365205843
2492.218017578125	-7.146046244212087	-33.0978779087304	5.395375578791336	4.463531024592718	6.540463558452823	-4.383011191016183	3470.625641025641	3621.978021978022	0.2217948717948718	0.58248730964467	0.09030544488711818
2511.749267578125	-6.545642182915914	-33.25813216448569	5.435781708408586	4.483443884119398	7.647258541636244	-4.088180867854698	3464.8	3619.047619047619	0.2282051282051282	0.5748730964467005	0.09694555112881806
2531.280517578125	-6.258697721030271	-32.69102299406711	6.130227896972986	5.149786751176795	6.940545085060674	-4.869984530358153	3464.8	3617.582417582417	0.2243589743589744	0.5799492385786802	0.08897742363877821
2550.811767578125	-7.062606724752017	-33.71753643876969	5.739327524798307	5.802629374487292	7.373702208848432	-6.48175317787941	3458.974358974359	3613.186813186813	0.2294871794871795	0.583756345177665	0.08233731739707835
2570.343017578125	-7.305246025561002	-33.05862459110647	5.475397443899868	6.817893959444774	11.17956987849304	-8.751428477424435	3467.71282051282	3604.395604395604	0.2217948717948718	0.5799492385786802	0.08632138114209827
2589.874267578125	-7.14045993058813	-33.06505854702907	5.954006941187043	10.30486109782113	13.12485151623245	-9.311636327168801	3466.25641025641	3605.860805860806	0.2205128205128205	0.581218274111675	0.09561752988047809
2609.405517578125	-6.261560129664034	-32.53428580750087	5.843987033596674	12.70264981672571	14.71695282259715	-11.21685914060084	3473.538461538461	3601.465201465201	0.2307692307692308	0.5888324873096447	0.08499335989375829
2628.936767578125	-5.305037962309773	-33.07883473499021	5.496203769022705	15.77679408346665	12.58841125589066	-12.56548645173942	3472.082051282051	3604.395604395604	0.2217948717948718	0.5786802030456852	0.09030544488711818
2648.468017578125	-6.782725948688402	-32.48944679182471	5.727405131159872	18.81876276927747	6.361195687625074	-13.62040846002875	3444.410256410256	3597.069597069597	0.2256410256410256	0.567258883248731	0.1049136786188579
2667.999267578125	-5.861044526766907	-32.92342195104234	5.895547323309362	18.36847672124441	-1.055062864491029	-14.54345535212123	3566.748717948718	3699.6336996337	0.2320512820512821	0.5710659898477157	0.09694555112881806
2687.530517578125	-6.13289209150351	-33.23654821835068	6.710790849649062	20.71248946922384	-9.172786869022321	-15.00460209275978	3536.164102564102	3693.772893772893	0.2205128205128205	0.583756345177665	0.102257636122178
2707.061767578125	-7.640988706720689	-34.61798602159672	7.901129327931074	23.43591198556511	-13.1836120719278	-15.8021246801834	3531.794871794872	3693.772893772893	0.2397435897435898	0.58248730964467	0.1075697211155378
2726.593017578125	-9.076279804445168	-33.03141893597191	8.372019555483327	26.81037709271729	-14.13098266102435	-19.14818282845491	3537.620512820513	3686.446886446886	0.2461538461538462	0.5748730964467005	0.1115537848605578
2746.124267578125	-9.833298245743631	-33.29606107949124	8.670175425637085	29.57407533623681	-7.292111972670517	-22.21974647368983	3518.687179487179	3673.260073260073	0.2307692307692308	0.5697969543147208	0.1049136786188579
2765.655517578125	-10.66838534299042	-32.36954618819505	9.161465700957706	32.71954589077387	2.524812136005763	-25.17265275008512	3531.794871794872	3676.190476190476	0.2423076923076923	0.5558375634517766	0.1181938911022576
2785.186767578125	-10.06827367827512	-33.79873589263443	9.172632172488127	34.11129519128136	10.06497187986172	-27.75200341433802	3498.297435897436	3668.864468864469	0.2487179487179487	0.5634517766497461	0.1128818061088977
2804.718017578125	-9.311947755194503	-32.80262507494585	8.805224480549779	34.78517569443078	14.60782820426854	-30.03240913410162	3508.492307692307	3670.32967032967	0.2487179487179487	0.5532994923857868	0.1288180610889774
2824.249267578125	-8.638661229936979	-32.18725985007135	8.133877006302223	36.47094572160095	13.94783954601304	-31.69208796719877	3518.687179487179	3667.399267399267	0.2551282051282051	0.549492385786802	0.147410358565737
2843.780517578125	-8.31159749486921	-31.92836345325902	8.840250513079052	35.70503855691016	9.120578086671502	-32.38443592050274	3514.317948717948	3663.003663003663	0.2666666666666667	0.565989847715736	0.1381142098273572
2863.311767578125	-8.906169013841748	-32.35092314217368	9.383098615825364	38.11700253174899	3.93960710521604	-31.55945944018654	3502.666666666666	3660.07326007326	0.2717948717948718	0.5444162436548223	0.150066401062417
2882.843017578125	-9.468869921071391	-31.45797984125635	9.113007892860967	41.24391025113408	1.383332815795243	-31.00672742228242	3482.276923076923	3663.003663003663	0.2717948717948718	0.549492385786802	0.1646746347941567
2902.374267578125	-9.699890305114293	-31.84926463798841	10.01096948857068	41.90496552272393	1.432858013108569	-32.21686381833339	3501.210256410256	3661.538461538461	0.2756410256410257	0.5431472081218274	0.1593625498007968
2921.905517578125	-10.21571603921438	-30.15597295423962	10.42839607856173	43.61593600488832	1.123425684147591	-33.15337959472155	3509.948717948718	3663.003663003663	0.2705128205128205	0.5317258883248731	0.1660026560424967
2941.436767578125	-11.21391179841749	-30.41702600667525	10.60882015825118	45.33860669830003	2.304420264844467	-34.19669729941852	3491.015384615384	3657.142857142857	0.2756410256410257	0.5355329949238579	0.1766268260292165
2960.968017578125	-11.16320469114919	-30.19747095424701	11.67953088508137	46.01664977660474	3.088133717926751	-35.08530289023079	3486.646153846154	3649.81684981685	0.2948717948717949	0.5304568527918782	0.1845949535192563
2980.499267578125	-10.27834923355162	-30.5573288125744	12.16507664483849	45.26413035362963	4.255655494396536	-37.32965386494931	3517.230769230769	3646.886446886447	0.2833333333333333	0.5139593908629442	0.199203187250996
3000.030517578125	-10.94481830168679	-30.21804120760404	13.51816983132103	47.66900670050133	2.461220656851154	-37.86977703150723	3507.035897435897	3649.81684981685	0.3025641025641025	0.5215736040609137	0.1938911022576361
3019.561767578125	-11.1536941076241	-29.97630741283812	12.63058923758976	50.09908350236726	1.017342148600298	-37.68673714135616	3492.471794871794	3648.351648351648	0.3064102564102564	0.515228426395939	0.2151394422310757
3039.093017578125	-11.42563400812309	-29.05857119025722	13.43659918769152	51.11266055685638	0.3188534920914371	-38.51121134779545	3508.492307692307	3651.282051282051	0.3076923076923077	0.5114213197969543	0.2231075697211155
3058.624267578125	-12.53624671130793	-29.24916005234822	14.37532886920701	50.04868259237883	0.3162294900112468	-39.13306325477414	3492.471794871794	3645.421245421245	0.3038461538461538	0.5025380710659898	0.2284196547144754
3078.155517578125	-11.89740080984619	-28.52362518205534	14.25991901538067	50.02404464754073	1.467125269434544	-40.33796000918504	3504.123076923077	3641.025641025641	0.3205128205128205	0.5012690355329948	0.2324037184594953
3097.686767578125	-13.1812329409679	-28.62233934500704	13.87670590320996	50.3654287293488	0.7301366146723267	-40.32722958896647	3472.082051282051	3636.630036630037	0.3217948717948718	0.4949238578680203	0.2403718459495352
3117.218017578125	-13.16798275906645	-27.75110664411212	15.20172409335515	52.42712096191286	2.302987921910344	-41.81485008906958	3486.646153846154	3638.095238095238	0.3346153846153846	0.4860406091370558	0.249667994687915
3136.749267578125	-12.60582047711735	-27.29735208734224	15.41795228826486	51.7185898331464	1.924956793422431	-42.0777402885138	3496.841025641026	3636.630036630037	0.3358974358974359	0.4720812182741117	0.2549800796812749
3156.280517578125	-13.11542893655056	-28.14880138946855	16.45710634494424	53.81785774413933	-0.2944103678439998	-41.0487653514863	3504.123076923077	3643.956043956044	0.3384615384615385	0.4733502538071066	0.2656042496679947
3175.811767578125	-12.91257034446164	-26.34599625978605	16.74296555383605	55.53006574864719	-4.735592295543983	-40.56678051684592	3482.276923076923	3638.095238095238	0.3346153846153846	0.4631979695431472	0.2762284196547145
3195.343017578125	-14.10833077871057	-25.64597052888693	17.16692212894258	55.52950323849107	-6.237044404261806	-40.08504681914402	3485.189743589744	3638.095238095238	0.3435897435897436	0.4517766497461929	0.2841965471447543
3214.874267578125	-14.87064313705213	-24.67449658542351	16.93568629478746	55.50194024084114	-5.458755352252972	-41.26324309147771	3501.210256410256	3641.025641025641	0.3525641025641026	0.4467005076142132	0.2948207171314741
3234.405517578125	-15.26726524863559	-24.02006209887805	17.27347513644148	56.91663995571836	-3.573847713973787	-41.19249590821398	3483.733333333333	3638.095238095238	0.3461538461538462	0.4340101522842639	0.297476759628154
3253.936767578125	-15.26030928786967	-23.41170300386702	17.96907121303337	56.90606476478329	-2.061370406195993	-42.04916137530898	3504.123076923077	3642.490842490842	0.3705128205128205	0.4365482233502538	0.297476759628154
3273.468017578125	-15.29656584832558	-23.76123772396039	18.34341516744167	57.61110833058181	-3.557398113840367	-41.27783699608565	3480.820512820513	3639.560439560439	0.358974358974359	0.4225888324873096	0.3094289508632138
3292.999267578125	-15.36490847063661	-22.88759629081087	19.5091529363388	56.22217158085492	-3.590297314107205	-41.10715482034231	3502.666666666666	3642.490842490842	0.382051282051282	0.4098984771573604	0.3173970783532537
3312.530517578125	-16.44265025798612	-22.26369247020325	19.73497420138799	57.64980902932292	-4.346712364909171	-39.72470895435885	3501.210256410256	3645.421245421245	0.3846153846153846	0.3959390862944162	0.3253652058432935
3332.061767578125	-16.27849512405618	-20.69256607854942	20.15048759438253	58.70849939833293	-3.587849708940083	-39.53118978092766	3485.189743589744	3643.956043956044	0.391025641025641	0.4022842639593908	0.3213811420982736
3351.593017578125	-17.39420168346562	-21.14724091508434	20.57983165343802	58.37116538964894	0.5246498906722428	-40.53208807862726	3501.210256410256	3645.421245421245	0.3974358974358974	0.3946700507614213	0.3333333333333333
3371.124267578125	-17.4355828787336	-19.68390744632522	20.44171212664034	60.09676113587248	2.078251198783581	-41.60210626540145	3495.384615384615	3641.025641025641	0.3897435897435898	0.381979695431472	0.346613545816733
3390.655517578125	-17.15416317329699	-20.30352596420081	20.583682670301	60.07448573369009	2.10030159690352	-42.35196980418764	3508.492307692307	3643.956043956044	0.3897435897435898	0.3680203045685279	0.3585657370517928
3410.186767578125	-18.05839313612877	-19.5025613940484	22.16068638712322	61.11326324317342	1.752369269689185	-42.45328095391794	3504.123076923077	3642.490842490842	0.3987179487179487	0.3553299492385786	0.3678618857901726
3429.718017578125	-16.93003657727334	-18.67604767233854	22.99634227266627	61.51033583043744	0.9602546196271222	-40.56789168673389	3485.189743589744	3645.421245421245	0.408974358974359	0.3527918781725888	0.3638778220451527
3449.249267578125	-16.85832369963546	-17.97616998644511	22.16763003645416	61.5203485112164	-2.053674796868492	-39.22949252193696	3508.492307692307	3646.886446886447	0.4115384615384615	0.3451776649746193	0.3824701195219123
3468.780517578125	-17.54048984737514	-17.39025910030495	21.95101526248595	62.58027640256988	-5.426561739638411	-37.61747273747724	3499.753846153846	3652.747252747252	0.4012820512820513	0.3274111675126903	0.3731739707835325
3488.311767578125	-17.85818150256139	-16.08169822087453	22.18184974386059	61.56377429526893	-5.100679810544015	-36.76629804896075	3499.753846153846	3652.747252747252	0.4153846153846154	0.3109137055837563	0.3851261620185923
3507.843017578125	-19.05409582974763	-15.99690167349336	22.59041702523721	62.24125486341752	-5.818418466179553	-37.17316994207111	3511.405128205128	3655.677655677655	0.4205128205128205	0.3071065989847716	0.3864541832669323
3527.374267578125	-18.48748604191059	-14.66302371305492	23.2513958089413	61.22239021346087	-4.363691155781797	-36.77702846917933	3505.579487179487	3652.747252747252	0.4153846153846154	0.2868020304568528	0.4090305444887118
3546.905517578125	-19.12988687022394	-13.50035272261229	23.01131297760673	60.85580567665859	-3.977258830314104	-37.51092194610689	3509.948717948718	3654.212454212454	0.4282051282051282	0.2817258883248731	0.4023904382470119
3566.436767578125	-19.80137284811506	-12.61753650032687	23.86271518849422	59.82287827279891	-2.884113048270842	-37.463011760531	3498.297435897436	3654.212454212454	0.417948717948718	0.2563451776649746	0.4116865869853917
3585.968017578125	-19.72499701447702	-12.57621455383975	23.50029855229835	59.48441924380268	-1.774517666094162	-37.50044266282677	3498.297435897436	3652.747252747252	0.4358974358974359	0.2652284263959391	0.4196547144754316
3605.499267578125	-19.29615033739488	-11.80011892846194	22.38496626051242	58.80693867565408	-1.056779010458623	-37.09357076971642	3517.230769230769	3655.677655677655	0.4358974358974359	0.2538071065989848	0.4169986719787516
3625.030517578125	-19.45258004587241	-10.68674030751502	22.74199541275932	58.7870258161274	-2.163573993642044	-37.3884010928779	3512.861538461538	3654.212454212454	0.4358974358974359	0.2385786802030457	0.4223107569721115
3644.561767578125	-19.56688987298293	-9.883595074441091	23.31101270170747	58.48377992290434	-3.717351698666453	-35.36426977366777	3489.558974358974	3657.142857142857	0.4448717948717949	0.2182741116751269	0.4183266932270916
3664.093017578125	-19.75500552167859	-9.547444423104622	24.49944783214097	58.13598322531649	-5.227028607450984	-34.83986553203002	3488.102564102564	3654.212454212454	0.4423076923076923	0.2093908629441624	0.4209827357237715
3683.624267578125	-19.84356967595072	-9.114917704212848	23.64303240492802	56.75289658121326	-4.514714352888896	-34.72258432044109	3504.123076923077	3657.142857142857	0.4512820512820513	0.1941624365482233	0.4116865869853917
3703.155517578125	-20.00030717030285	-8.231997450301815	23.9692829697151	56.05842820634982	-4.531163953022315	-34.63724323256942	3528.882051282051	3658.608058608058	0.45	0.1789340101522843	0.4422310756972112
3722.686767578125	-19.64566643644283	-6.922492283808124	23.43335635571675	55.38623523366876	-4.569663951275672	-33.80203860591156	3498.297435897436	3661.538461538461	0.4512820512820513	0.1802030456852792	0.4369189907038512
3742.218017578125	-20.79869141757556	-6.071783206710224	24.13085824244416	55.77093259749814	-1.21900380353876	-33.71008171914913	3496.841025641026	3660.07326007326	0.4512820512820513	0.166243654822335	0.4395750332005312
3761.749267578125	-20.87902229970219	-5.224495169608484	24.09777002978136	53.69101503587576	0.6057062321932694	-33.96249263531324	3517.230769230769	3661.538461538461	0.4564102564102564	0.1535532994923858	0.4422310756972112
3781.280517578125	-20.3215999202219	-4.919799465191264	23.84000797780987	52.27687783115466	0.2222507026319061	-34.51497351627889	3505.579487179487	3660.07326007326	0.4525641025641026	0.1459390862944162	0.4382470119521912
3800.811767578125	-21.07874147587021	-3.876624955524941	24.1258524129797	52.31029093442825	0.189175105451999	-33.39017820809961	3507.035897435897	3664.468864468864	0.4653846153846154	0.133248730964467	0.448871181938911
3820.343017578125	-21.31705638514108	-3.029773051007506	24.29436148589171	51.96013169418469	-0.1916564220291734	-33.32080718208657	3511.405128205128	3661.538461538461	0.4564102564102564	0.1192893401015228	0.4462151394422311
3839.874267578125	-21.23709484606397	-2.953611128552311	24.29051539360273	50.56826989164598	-0.597162349710475	-33.12342452426603	3518.687179487179	3661.538461538461	0.4692307692307692	0.1116751269035533	0.450199203187251
3859.405517578125	-21.19243573123153	-1.612562988379237	24.75642687684748	49.51835468107145	-0.2382048234361707	-33.39704514392882	3523.05641025641	3660.07326007326	0.467948717948718	0.09137055837563451	0.447543160690571
3878.936767578125	-20.83667157892923	-1.111884782204559	24.33284210707747	48.13121796384416	-2.901401513724191	-32.28959605485886	3518.687179487179	3660.07326007326	0.4538461538461538	0.08121827411167512	0.4581673306772908
3898.468017578125	-20.47402841232966	-0.8104620727778167	24.59715876703441	49.54186760559731	-4.392004820295114	-31.22868099411409	3505.579487179487	3664.468864468864	0.4782051282051282	0.08121827411167512	0.448871181938911
3917.999267578125	-20.91350909137917	0.001105720754494027	24.64909086208361	48.18049385352035	-5.203193072570786	-29.87980254603706	3518.687179487179	3670.32967032967	0.4666666666666667	0.07106598984771573	0.4608233731739708
3937.530517578125	-20.87294352867887	0.5770575793502764	24.70564713211277	47.8191969121856	-5.57299940099199	-30.18536328941712	3528.882051282051	3676.190476190476	0.4602564102564102	0.06218274111675126	0.4541832669322709
3957.061767578125	-21.15019273551468	0.7693869705621278	24.98072644853266	47.88073552326522	-4.882911941462909	-28.36410540660604	3508.492307692307	3670.32967032967	0.4730769230769231	0.04822335025380711	0.448871181938911
3976.593017578125	-20.55306659378297	1.804751105874648	24.69334062170284	47.19031722152586	-1.523850596746218	-29.2689321962154	3523.05641025641	3667.399267399267	0.4692307692307692	0.03172588832487309	0.4594953519256308
3996.124267578125	-21.87404786439693	1.588172958425515	24.59521356030695	46.87705864752383	-0.06369888527501144	-28.58320004180219	3521.6	3668.864468864469	0.4743589743589743	0.02791878172588832	0.448871181938911
4015.655517578125	-20.71460554777883	2.692520834025851	24.53944522211675	46.54973731961879	1.034871297841701	-28.24569917470488	3528.882051282051	3670.32967032967	0.4717948717948718	0.01142131979695431	0.4528552456839309
4035.186767578125	-20.9117239333065	2.537764249562637	24.82760666935056	45.89396964349647	0.2291074466394785	-26.60723004510641	3537.620512820513	3679.120879120879	0.4717948717948718	0.01269035532994924	0.4555112881806109
4054.718017578125	-21.63650241981254	3.665175136318363	24.34975801874539	46.9778604675007	1.33852643190309	-25.69054781496624	3512.861538461538	3676.190476190476	0.4717948717948718	0.01269035532994924	0.4541832669322709
4074.249267578125	-21.34908088982127	5.039494775642564	25.09191101787251	45.2533897415894	2.787829341227396	-25.58399702359588	3534.707692307692	3677.655677655677	0.4782051282051282	-0.008883248730964466	0.4687915006640106
4093.780517578125	-20.90756882399942	5.148952204547106	25.24311760005811	45.59713636605318	0.9219953051618199	-25.1182333877526	3520.14358974359	3677.655677655677	0.467948717948718	-0.01269035532994924	0.4634794156706507
4113.311767578125	-22.35312458064175	5.399732749525086	24.68754193582541	44.53844599704316	0.1631326491927336	-25.31175256118378	3523.05641025641	3677.655677655677	0.4807692307692308	-0.03426395939086294	0.4568393094289509
4132.843017578125	-21.58713418109875	6.232236292140502	25.28658189012536	44.18828675679962	-0.2176988782884393	-25.24238153517074	3533.251282051282	3679.120879120879	0.4730769230769231	-0.03172588832487309	0.450199203187251
4152.374267578125	-22.54995056958854	6.513911613745963	25.00494304114604	43.46805541678584	-2.086156916434207	-25.39846980630615	3536.164102564102	3679.120879120879	0.4782051282051282	-0.04441624365482233	0.4541832669322709
4171.905517578125	-21.59878387645229	7.359387099832194	24.12161235477123	44.19942445789081	-0.2287240773484083	-24.86744976577765	3524.51282051282	3676.190476190476	0.4948717948717949	-0.05710659898477157	0.4541832669322709
4191.436767578125	-21.04259264047039	8.742249336105868	23.74073595296046	43.84577765467931	-2.483614440961867	-24.28964455998549	3527.425641025641	3676.190476190476	0.4782051282051282	-0.05456852791878172	0.450199203187251
4210.968017578125	-20.80069202576045	7.930237407556512	23.93079742395534	43.52666897505363	-1.768676184319588	-23.55051144141788	3523.05641025641	3682.051282051282	0.4692307692307692	-0.07868020304568528	0.4462151394422311
4230.499267578125	-21.28455481235526	7.708169591248046	23.54451876447363	43.18472238308945	-2.533139638275193	-23.07950816393453	3540.533333333333	3684.981684981685	0.4846153846153846	-0.0748730964467005	0.450199203187251
4250.030517578125	-21.6456898281693	9.635992880297147	23.43101718306981	43.21577294370732	-1.437369854151741	-22.40974607137996	3530.338461538461	3679.120879120879	0.4641025641025641	-0.09263959390862943	0.4448871181938911
4269.561767578125	-21.32215024136568	9.706140974548571	23.78497586343171	41.83797389507163	-1.481294253478548	-21.86413212624352	3528.882051282051	3690.84249084249	0.4794871794871795	-0.1027918781725888	0.4462151394422311
4289.093017578125	-21.11990722102597	10.0480293701593	24.00927789740388	41.18333123926154	0.7158461127548756	-21.18913039204888	3530.338461538461	3687.912087912088	0.4756410256410256	-0.1205583756345178	0.4528552456839309
4308.624267578125	-21.6168509072912	10.53148095482565	22.31490927087988	40.83024694620617	-0.03759214214076062	-21.09305888395864	3524.51282051282	3684.981684981685	0.4807692307692308	-0.1192893401015228	0.4462151394422311
4328.155517578125	-21.29518881432263	10.29583301015816	22.4811185677369	40.83665956198595	2.209073421405989	-21.62819354581496	3530.338461538461	3686.446886446886	0.4653846153846154	-0.1116751269035533	0.447543160690571
4347.686767578125	-20.6579433994088	12.02298437186443	22.20566005911951	38.39668258137229	-0.4677724700221904	-20.76766459433059	3537.620512820513	3683.516483516483	0.4782051282051282	-0.1319796954314721	0.4395750332005312
4367.218017578125	-20.65215702496636	12.5556016721391	22.78429750336409	38.76506715067416	-3.484502285511065	-19.09700420407641	3520.14358974359	3687.912087912088	0.4807692307692308	-0.1421319796954315	0.4382470119521912
4386.749267578125	-20.53935534864137	12.52321044058932	22.06446513586284	37.691751517605	-6.106398578552468	-19.15702096712158	3547.815384615385	3693.772893772893	0.4705128205128205	-0.1459390862944162	0.4409030544488711
4406.280517578125	-20.69518487466344	13.13598287725622	22.48151253365638	37.38558057157011	-8.03278301099134	-17.10618916583424	3533.251282051282	3693.772893772893	0.4782051282051282	-0.1510152284263959	0.4342629482071713
4425.811767578125	-21.54313742146843	14.22933802645235	21.68625785315659	36.3632283586455	-8.452114536725871	-16.20161351316334	3543.446153846154	3699.6336996337	0.4820512820512821	-0.1637055837563452	0.4355909694555112
4445.343017578125	-22.82082922439191	13.7782682858666	21.91707756080925	36.73037540560389	-7.337094753475739	-15.94945373393769	3555.097435897435	3699.6336996337	0.4717948717948718	-0.166243654822335	0.4236387782204515
4464.874267578125	-22.72701732095788	14.22505672493669	23.29826790421211	37.14612333005114	-2.890664821615375	-15.18773475462068	3464.8	3598.534798534799	0.4666666666666667	-0.184010152284264	0.4262948207171314
4484.405517578125	-22.41355772154735	14.49769329876282	22.64422784526496	37.1203603649008	-4.742673259627724	-15.42916411362776	3482.276923076923	3600	0.4897435897435897	-0.184010152284264	0.4236387782204515
4503.936767578125	-22.0949427087373	14.88050752044006	22.50572912626977	38.16791303281963	-3.972785404598668	-15.61057670958967	3456.061538461538	3597.069597069597	0.476923076923077	-0.182741116751269	0.4196547144754316
4523.468017578125	-20.90418379495059	15.68553332520779	21.58162050494119	38.12752480361015	-7.687827479683332	-15.71850365821073	3442.953846153846	3591.208791208791	0.4794871794871795	-0.1903553299492386	0.4196547144754316
4542.999267578125	-22.34064447899854	15.19635861609621	21.93555210014613	37.38906813453806	-6.158724174859055	-17.61462334561336	3543.446153846154	3695.238095238095	0.4820512820512821	-0.1903553299492386	0.4169986719787516
4562.530517578125	-22.86938183053802	16.17192180268955	21.06181694619779	36.36199083630203	-4.320364937986865	-17.62011412419187	3537.620512820513	3692.307692307692	0.4782051282051282	-0.2144670050761421	0.4116865869853917
4582.061767578125	-21.07390985321076	16.04311049020441	20.60901467892393	35.34661374931333	-0.9915787914568217	-17.7324068310792	3527.425641025641	3692.307692307692	0.4692307692307692	-0.2271573604060914	0.4209827357237715
4601.593017578125	-21.91139768027942	18.97205011862068	20.86023197205797	34.008640419731	1.178086775583214	-16.5971322396198	3543.446153846154	3698.168498168498	0.476923076923077	-0.233502538071066	0.399734395750332
4621.124267578125	-22.07658389688928	17.97888819739663	20.34161031107303	34.72358416427723	3.802783467617877	-16.8693767020319	3549.271794871795	3698.168498168498	0.4756410256410256	-0.2271573604060914	0.4063745019920318
4640.655517578125	-21.91464482125643	18.09071434639207	20.53551787435688	34.41381315324316	7.136994015221369	-16.6920787273978	3547.815384615385	3701.098901098901	0.4692307692307692	-0.2271573604060914	0.401062416998672
4660.186767578125	-22.55910781492959	18.40931427769426	20.08921850704152	34.73055929021314	7.550901139882448	-17.88624506159013	3552.184615384615	3695.238095238095	0.4730769230769231	-0.233502538071066	0.3930942895086321
4679.718017578125	-21.4827664533095	18.28682488707336	19.72335466905016	35.0947812843597	8.293314195718116	-17.60738480028727	3523.05641025641	3695.238095238095	0.4666666666666667	-0.2385786802030457	0.4063745019920318
4699.249267578125	-21.16238167172051	18.24477471920694	19.76183282794892	33.66714383589171	9.049729246520082	-18.98983066627073	3546.358974358974	3693.772893772893	0.4717948717948718	-0.2525380710659899	0.4023904382470119
4718.780517578125	-20.65726688605644	19.33153186260931	18.27331139435619	33.32519724392752	8.285265792564477	-18.51882738878739	3533.251282051282	3692.307692307692	0.4666666666666667	-0.2563451776649746	0.3904382470119522
4738.311767578125	-21.00267404367851	19.93577770719221	19.7325956321491	33.71169464025648	9.005628450280206	-17.49010358869834	3536.164102564102	3696.703296703297	0.458974358974359	-0.2626903553299492	0.3957503320053121
4757.843017578125	-20.5575301045364	19.96464386712022	20.24698954636055	34.42607587464659	10.12887303359704	-17.28061435340853	3524.51282051282	3696.703296703297	0.4602564102564102	-0.2804568527918782	0.3837981407702523
4777.374267578125	-21.47656456793635	20.78056098284648	20.3435432063655	34.03834095597418	13.54025997462032	-19.72783876452611	3531.794871794872	3686.446886446886	0.4653846153846154	-0.2817258883248731	0.3864541832669323
4796.905517578125	-20.61028398787078	21.86254067390333	18.97160121292257	32.27168196835383	13.90481829888114	-20.66598183510343	3543.446153846154	3692.307692307692	0.45	-0.2842639593908629	0.3877822045152722
4816.436767578125	-20.05681665687908	21.0558463619094	18.31833431209241	30.49861036495368	12.02271105959522	-21.06899024382443	3531.794871794872	3686.446886446886	0.4576923076923077	-0.2817258883248731	0.3957503320053121
4835.968017578125	-19.57990983105018	21.66955508320683	18.00901689498222	29.4903209059321	11.96496106221518	-19.81618330383763	3527.425641025641	3690.84249084249	0.4653846153846154	-0.2956852791878172	0.3904382470119522
4855.499267578125	-18.74765436384969	20.82282321518049	17.23456361503127	28.12894715385515	11.15377280993951	-18.4673048557606	3546.358974358974	3696.703296703297	0.4512820512820513	-0.2931472081218274	0.3917662682602922
4875.030517578125	-19.14016753400726	22.20387690165502	17.98324659927387	27.0943322195271	7.742562265829305	-16.97419357707897	3534.707692307692	3696.703296703297	0.4602564102564102	-0.3020304568527918	0.3864541832669323
4894.561767578125	-18.6249727609501	22.08814556548267	17.50272390499019	25.71540815057917	4.695733649066852	-15.46511223653871	3544.902564102564	3699.6336996337	0.4538461538461538	-0.3071065989847716	0.3824701195219123
4914.093017578125	-19.31297145101342	22.25687039629278	16.70285489865842	24.72061893530449	3.498113071323489	-13.38234031153412	3429.846153846153	3591.208791208791	0.4474358974358975	-0.3134517766497462	0.3864541832669323
4933.624267578125	-19.23233278301219	22.64004072622693	16.76672169878104	21.58493605748393	4.936567178500895	-13.85497088320662	3469.169230769231	3597.069597069597	0.4474358974358975	-0.3109137055837563	0.3824701195219123
4953.155517578125	-18.30289515705082	23.81361641631364	17.71048429491796	21.28461521707269	3.75539620089095	-11.85754004607369	3463.343589743589	3602.930402930403	0.4358974358974359	-0.3121827411167513	0.3864541832669323
4972.686767578125	-18.95819221350983	23.22008182795262	16.18077864901699	20.91983071276999	1.51153103633746	-11.65466660967463	3470.625641025641	3602.930402930403	0.4320512820512821	-0.3261421319796954	0.3784860557768924
4992.218017578125	-19.34199504341628	23.82310730154274	17.80049565837245	22.38020625232423	6.355242095812416	-11.04765974424233	3453.148717948718	3604.395604395604	0.4448717948717949	-0.315989847715736	0.3718459495351925
5011.749267578125	-19.18464197731495	23.40110378170348	17.53580226850501	21.33321609456153	7.086806349501183	-11.34798084598233	3474.994871794872	3605.860805860806	0.4320512820512821	-0.3286802030456852	0.3678618857901726
5031.280517578125	-18.46831221306662	24.39761071981267	17.16877869333816	21.35841654955575	7.437362678795709	-10.62481778927334	3456.061538461538	3604.395604395604	0.4269230769230769	-0.3350253807106599	0.3798140770252324
5050.811767578125	-18.06793511381306	23.35476831110504	17.20648861869393	21.02704514852663	5.160421917062311	-9.297149044694992	3456.061538461538	3610.25641025641	0.4333333333333334	-0.3362944162436548	0.3784860557768924
5070.343017578125	-17.57105298472274	24.02522505303151	18.89470152772596	19.95777958858155	5.914036568871016	-10.34733368522119	3466.25641025641	3605.860805860806	0.4333333333333334	-0.3401015228426396	0.3771580345285525
5089.874267578125	-18.38611922639867	22.89459580327804	17.38807736013287	16.81039649951367	5.86206376639057	-10.71316232858487	3461.887179487179	3602.930402930403	0.4243589743589744	-0.3388324873096447	0.3784860557768924
5109.405517578125	-18.38968954254401	23.82127874566175	17.03104574559897	16.15046624823605	8.815442786512888	-10.46649332793773	3474.994871794872	3605.860805860806	0.4346153846153846	-0.3401015228426396	0.3811420982735724
5128.936767578125	-17.6876718214645	24.60147161660222	15.23281785355055	13.38665550268531	9.111225914333708	-9.776897689135165	3469.169230769231	3605.860805860806	0.4205128205128205	-0.3515228426395939	0.3665338645418326
5148.468017578125	-17.20247016631517	23.47603332951679	15.75298336848248	10.65682037056426	10.87538555369244	-8.444240439855218	3453.148717948718	3610.25641025641	0.4346153846153846	-0.3426395939086294	0.3705179282868525
5167.999267578125	-16.72622508011667	23.74425656168706	15.37749198833368	8.600978243623858	10.04774770128335	-7.010020903906515	3483.733333333333	3617.582417582417	0.4217948717948718	-0.3527918781725888	0.3718459495351925
5187.530517578125	-15.80392808644597	24.77119813654119	15.60719135540281	6.905308037705957	6.58701195985982	-4.306773229173929	3473.538461538461	3620.51282051282	0.4192307692307692	-0.3591370558375635	0.3798140770252324
5207.061767578125	-16.23891509172635	25.34745808879746	16.10849082736536	5.912318854930862	2.759093892095274	-1.287234390842711	3482.276923076923	3629.304029304029	0.4243589743589744	-0.348984771573604	0.3598937583001328
5226.593017578125	-17.43606056241097	24.51042116803508	16.3939437589027	5.569809752810556	0.4931783294218457	-0.3344974156574598	3477.907692307692	3623.443223443223	0.4269230769230769	-0.350253807106599	0.3731739707835325
5246.124267578125	-17.86941630255598	25.00811046558153	17.0583697444023	4.186723108707329	1.205492583983935	-0.2172162040685295	3477.907692307692	3621.978021978022	0.4153846153846154	-0.3439086294416243	0.3718459495351925
5265.655517578125	-17.91127456592959	25.66423346543503	16.87254340704189	3.125670197041609	1.575475309318208	-0.8657685931244228	3493.928205128205	3629.304029304029	0.4320512820512821	-0.3578680203045685	0.3652058432934927
5285.186767578125	-16.87038952149145	24.19140110901406	16.96104785085435	2.44177701311324	0.04654840140699714	0.07623796184225479	3479.364102564102	3621.978021978022	0.4076923076923077	-0.3527918781725888	0.3665338645418326
5304.718017578125	-16.94765793416583	24.38174989812287	17.23420658341674	1.07747820822445	-1.137246578283138	1.451816891996494	3470.625641025641	3627.838827838828	0.4243589743589744	-0.3527918781725888	0.3745019920318725
5324.249267578125	-18.0387576284729	25.40376058937301	16.1242371527098	0.01293773359077998	-2.641322689081151	1.311698682719717	3498.297435897436	3627.838827838828	0.4256410256410256	-0.3515228426395939	0.3678618857901726
5343.780517578125	-17.23891139829585	24.58822358920189	16.10886017041488	-1.672832293579395	-1.981334030825648	2.971377515816867	3486.646153846154	3635.164835164835	0.4217948717948718	-0.3553299492385786	0.3784860557768924
5363.311767578125	-17.955764398531	23.89993742713169	16.42356014690004	-2.005441216951973	-0.1265251938200399	2.880545649366682	3473.538461538461	3632.234432234432	0.4256410256410256	-0.3515228426395939	0.3678618857901726
5382.843017578125	-17.76313968677247	24.29000185287096	15.68603132275288	-4.740563944540554	2.39387309942759	3.784870165099123	3482.276923076923	3629.304029304029	0.4205128205128205	-0.3401015228426396	0.3758300132802125
5402.374267578125	-17.6793923814378	23.90080168986756	16.06076185621967	-7.820558316905149	3.777201211305152	5.186898440392108	3489.558974358974	3635.164835164835	0.4192307692307692	-0.3426395939086294	0.3731739707835325
5421.905517578125	-17.28078505096319	24.28282367070358	15.92149490368149	-9.540866467661143	1.467361249304917	6.685249360713794	3517.230769230769	3642.490842490842	0.4282051282051282	-0.3362944162436548	0.3824701195219123
5441.436767578125	-17.95468714796991	23.2065417117573	16.5312852030094	-10.23004724705705	0.6946729952826021	7.198923182132967	3505.579487179487	3641.025641025641	0.4256410256410256	-0.3401015228426396	0.3705179282868525
5460.968017578125	-17.90908928621994	24.20048787138983	17.0910713780066	-10.90865283551788	-1.590492566517504	8.569262470647148	3485.189743589744	3641.025641025641	0.4243589743589744	-0.3375634517766497	0.3745019920318725
5480.499267578125	-17.10935078109899	24.65429044275613	17.06492189010074	-12.64426126252037	-0.1301644581332288	8.300881492624409	3512.861538461538	3645.421245421245	0.4166666666666667	-0.3439086294416243	0.3811420982735724
5500.030517578125	-17.34087901183498	23.53274934041487	17.91209881650175	-13.99505982366226	-2.453830018186693	10.50642540779645	3491.015384615384	3648.351648351648	0.4230769230769231	-0.333756345177665	0.3891102257636122
5519.561767578125	-17.42239486957881	23.34277266442845	17.76051304211865	-14.71529116367603	-4.322288056332459	10.35033713666105	3498.297435897436	3649.81684981685	0.4333333333333334	-0.3236040609137056	0.3891102257636122
5539.093017578125	-18.25732807388831	22.88451673924257	18.26719261116918	-15.05780026579634	-6.588203619005888	11.3030741118463	3501.210256410256	3649.81684981685	0.4358974358974359	-0.3197969543147208	0.3891102257636122
5558.624267578125	-19.0925690640724	22.19580244702081	18.74309359275989	-14.35691927515312	-4.325088455325719	10.68259836211831	3488.102564102564	3646.886446886447	0.4371794871794872	-0.3147208121827411	0.3917662682602922
5578.155517578125	-18.6926844222182	22.38422665105577	18.73155777817995	-16.0720523324728	-0.2565132550401995	10.22731400955514	3508.492307692307	3648.351648351648	0.441025641025641	-0.3248730964467005	0.3864541832669323
5597.686767578125	-19.52797158028348	22.81094360377863	19.20284197165169	-16.73783268937408	1.951652310253193	10.52738397435668	3509.948717948718	3649.81684981685	0.4205128205128205	-0.3197969543147208	0.3917662682602922
5617.218017578125	-18.33599691229211	22.5762799583381	18.40030877078939	-17.75962239214257	3.033772893236486	10.95022592932567	3493.928205128205	3649.81684981685	0.4346153846153846	-0.3071065989847716	0.3904382470119522
5636.749267578125	-18.09209568939727	21.76224741552201	18.79043106027309	-17.77368514604559	2.672191364881992	10.60199464200978	3501.210256410256	3649.81684981685	0.4371794871794872	-0.3134517766497462	0.3944223107569721
5656.280517578125	-18.2087754677422	21.49086322241961	19.12245322578064	-18.10449403691858	1.896702711866418	11.44792968888621	3499.753846153846	3649.81684981685	0.4307692307692308	-0.3096446700507614	0.3944223107569721
5675.811767578125	-19.41427732492216	21.54688163663292	18.5722675077839	-17.08270433415009	0.8145821288831245	11.02508773391723	3491.015384615384	3651.282051282051	0.4384615384615385	-0.2956852791878172	0.4023904382470119
5695.343017578125	-17.64556671381946	21.3281762271115	19.44332861805373	-17.80001062135204	-0.6812691818481792	10.84229898070461	3512.861538461538	3649.81684981685	0.4384615384615385	-0.2893401015228426	0.3957503320053121
5714.874267578125	-18.04168097870983	20.71286701926616	19.83190212901645	-18.14836982909601	-3.692398199350534	11.84843692004427	3509.948717948718	3649.81684981685	0.4384615384615385	-0.2804568527918782	0.401062416998672
5734.405517578125	-18.52635939787234	20.5300845303126	19.36406021276622	-17.0990171286776	-5.552807834342661	12.60379123740898	3514.317948717948	3652.747252747252	0.4423076923076923	-0.2855329949238579	0.3930942895086321
5753.936767578125	-20.28363576373371	20.1603182752172	19.63642362662865	-17.47145177110354	-5.911588963703895	11.92329872463583	3507.035897435897	3649.81684981685	0.4384615384615385	-0.282994923857868	0.399734395750332
5773.468017578125	-19.39364028203035	19.94911514638912	20.63597179696474	-17.79348550354104	-5.56925743447608	12.68913232528065	3489.558974358974	3652.747252747252	0.4525641025641026	-0.2804568527918782	0.4169986719787516
5792.999267578125	-19.07791845644153	19.56562071792902	20.20815435584725	-17.78707288776127	-3.322591870929331	12.15399766342433	3525.969230769231	3654.212454212454	0.4551282051282051	-0.2703045685279188	0.4090305444887118
5812.530517578125	-19.75740686707221	19.45651939728139	20.25931329277946	-18.07276846411336	-2.640729211466958	14.01792609017124	3498.297435897436	3655.677655677655	0.4423076923076923	-0.2677664974619289	0.4023904382470119
5832.061767578125	-20.08168513997486	19.23327122214384	19.83148600251399	-18.37961442233561	1.066088063550998	14.16852358272813	3507.035897435897	3660.07326007326	0.4551282051282051	-0.2626903553299492	0.4169986719787516
5851.593017578125	-18.87841473038573	18.75642964692035	20.15852696142704	-19.38149126557741	3.255003629717712	14.8861958608586	3514.317948717948	3658.608058608058	0.4564102564102564	-0.2677664974619289	0.4116865869853917
5871.124267578125	-19.68040007239124	18.92028099619207	19.95999276087623	-18.39603971889433	1.833351916499863	13.36525907978753	3512.861538461538	3660.07326007326	0.4615384615384616	-0.2614213197969543	0.4077025232403718
5890.655517578125	-20.22828108975898	18.75979466988733	21.17189102410209	-21.44442102048494	5.8139019212187	14.95531574993318	3511.405128205128	3657.142857142857	0.4538461538461538	-0.25	0.4169986719787516
5910.186767578125	-20.34426834988605	17.75694180261569	21.57316501139423	-21.04914846572049	7.652084761177819	15.90393810379062	3493.928205128205	3655.677655677655	0.4576923076923077	-0.2373096446700508	0.4289508632138114
5929.718017578125	-20.05997084652196	17.94210901652564	22.00291534780419	-20.75467773093291	8.088042283958837	13.9599082308121	3499.753846153846	3658.608058608058	0.4448717948717949	-0.2258883248730964	0.4196547144754316
5949.249267578125	-19.78421440117796	17.48205654518974	21.57855988220419	-20.44141915693089	6.627890572487631	13.27417607639889	3504.123076923077	3657.142857142857	0.4474358974358975	-0.2271573604060914	0.4223107569721115
5968.780517578125	-19.26714213428575	16.67212124793629	21.28578657142541	-21.11653718242377	6.21678384681981	14.13608118513395	3505.579487179487	3658.608058608058	0.4487179487179487	-0.2271573604060914	0.4223107569721115
5988.311767578125	-20.09822801516277	16.59459491069901	22.17719848372366	-21.13465000945087	2.479691373615207	14.77801777529909	3498.297435897436	3655.677655677655	0.4512820512820513	-0.2271573604060914	0.4369189907038512
6007.843017578125	-19.33103725070883	16.42588608475438	22.89627492911691	-20.46245703676981	2.518191371868564	13.94281314864123	3517.230769230769	3658.608058608058	0.4538461538461538	-0.2055837563451776	0.4316069057104913
6027.374267578125	-20.89470399001296	17.98365102991309	22.5296009987036	-19.04483226908076	4.775705737562214	13.98685984982776	3512.861538461538	3658.608058608058	0.4551282051282051	-0.2081218274111675	0.4382470119521912
6046.905517578125	-19.69469611069457	16.66395076410921	22.53038893054258	-20.73352734906276	5.063087668403254	15.67323916500211	3518.687179487179	3658.608058608058	0.4525641025641026	-0.2055837563451776	0.4409030544488711
6066.436767578125	-18.45755448117766	15.50059156445098	22.24455188223373	-20.33937981461056	3.898366290926727	17.58532891426337	3521.6	3661.538461538461	0.4564102564102564	-0.200507614213198	0.4422310756972112
6085.968017578125	-19.17232992675928	14.61789937987302	22.76700732407267	-18.60197135510849	-0.1922593074787303	18.79047680561273	3499.753846153846	3667.399267399267	0.4564102564102564	-0.1916243654822335	0.4342629482071713
6105.499267578125	-19.33756231125031	13.74016870359358	22.24376887496876	-19.73390054644544	-3.131636332634752	16.88250167767929	3527.425641025641	3660.07326007326	0.4551282051282051	-0.1878172588832487	0.4448871181938911
6125.030517578125	-21.73633153709497	14.26292562169669	22.36684629050308	-19.42885462072279	-4.208156117631526	15.79513727179578	3501.210256410256	3660.07326007326	0.4641025641025641	-0.1802030456852792	0.4369189907038512
6144.561767578125	-21.41243799653557	14.44810083803938	22.75620034644378	-20.45008181333515	-1.62458342593041	15.73624552906285	3498.297435897436	3657.142857142857	0.4551282051282051	-0.1738578680203046	0.4382470119521912
6164.093017578125	-22.60596698319366	14.56894972994867	23.40330168063399	-22.84325794895955	1.660278321272826	16.16956676731196	3514.317948717948	3664.468864468864	0.4525641025641026	-0.1675126903553299	0.4435590969455511
6183.624267578125	-20.89144145974223	14.82650972049349	22.85585402577768	-23.57350196975228	2.805749699622674	14.67507933137963	3499.753846153846	3657.142857142857	0.4615384615384616	-0.1598984771573604	0.4462151394422311
6203.155517578125	-20.40625519388663	13.73954851505627	23.37448061133661	-23.23211788794421	2.068761044860456	14.6858097515982	3517.230769230769	3660.07326007326	0.458974358974359	-0.166243654822335	0.4382470119521912
6222.686767578125	-20.84468940096251	12.93467475651059	23.5310599037492	-23.56236426866108	2.794724500562705	15.05001110077273	3508.492307692307	3652.747252747252	0.4551282051282051	-0.149746192893401	0.447543160690571
6242.218017578125	-19.99839889788034	11.99684442532068	24.16011021196597	-23.9095984560928	2.786499700495995	15.09268164470856	3486.646153846154	3651.282051282051	0.458974358974359	-0.1446700507614213	0.4395750332005312
6261.749267578125	-20.00176915320719	11.42332530627772	23.82308467928096	-24.25975769633635	2.405668173014822	15.1620526707216	3507.035897435897	3654.212454212454	0.4641025641025641	-0.1446700507614213	0.450199203187251
6281.280517578125	-20.48138449473255	12.58158295506449	23.86155052674474	-24.94601342292043	2.00558664640697	15.64902601006357	3508.492307692307	3660.07326007326	0.4628205128205128	-0.1243654822335025	0.451527224435591
6300.811767578125	-21.35632924716806	11.16220023194743	24.36707528319378	-23.18407952061149	3.898719084752866	15.67710264939147	3505.579487179487	3660.07326007326	0.4653846153846154	-0.1294416243654822	0.4555112881806109
6320.343017578125	-20.84724402372168	11.32187031011274	23.2755976278327	-26.27464908391116	6.794524504408219	16.22246545758945	3515.774358974359	3661.538461538461	0.4641025641025641	-0.1205583756345178	0.4555112881806109
6339.874267578125	-20.28699001419509	9.546782991260113	23.30099858049154	-27.36967760900658	5.696130718204577	14.93085145805618	3508.492307692307	3657.142857142857	0.4551282051282051	-0.1218274111675127	0.4634794156706507
6359.405517578125	-19.92710153117317	9.73560331571567	23.2898468826831	-28.0975590871436	5.712756715251065	13.89139723774856	3514.317948717948	3652.747252747252	0.4551282051282051	-0.1142131979695431	0.4621513944223107
6378.936767578125	-21.03874531703792	10.12297892405445	24.1254682962082	-27.750887409868	4.219529406599952	14.33046039151463	3515.774358974359	3658.608058608058	0.4538461538461538	-0.09137055837563451	0.4594953519256308
6398.468017578125	-20.03391677223722	9.800409786113439	24.60832277627783	-27.37080262931882	2.693226500768931	15.89431885346	3491.015384615384	3660.07326007326	0.4576923076923077	-0.09010152284263959	0.4634794156706507
6417.999267578125	-20.28011099989782	9.347527494512177	23.98890001021849	-28.4377056466082	2.317995771274278	15.29916742855852	3517.230769230769	3657.142857142857	0.4666666666666667	-0.08883248730964466	0.4687915006640106
6437.530517578125	-19.31561717839146	7.871850273252298	24.43828216085382	-27.00770565548449	0.4327353391689529	17.13664651016668	3507.035897435897	3660.07326007326	0.4564102564102564	-0.07360406091370558	0.4621513944223107
6457.061767578125	-19.52506238819678	8.537236089001825	23.49376118032189	-27.00298057017308	-1.824955423437766	18.0467129414161	3507.035897435897	3663.003663003663	0.4641025641025641	-0.06218274111675126	0.4661354581673307
6476.593017578125	-20.83514803884997	8.078884134623079	24.48519611500357	-27.71736180456319	-2.948200006754606	17.83722370612628	3521.6	3667.399267399267	0.4782051282051282	-0.05583756345177664	0.4621513944223107
6496.124267578125	-20.27738709490762	6.537084042779774	24.26129050923788	-28.38955477724425	-2.986700005007963	18.67242833278414	3508.492307692307	3661.538461538461	0.458974358974359	-0.0532994923857868	0.4661354581673307
6515.655517578125	-20.83380917029546	6.731378031229185	24.61908297045378	-29.42596974407188	-3.767613059096987	19.22877269813915	3527.425641025641	3661.538461538461	0.4666666666666667	-0.04568527918781726	0.4661354581673307
6535.186767578125	-20.62699552971796	5.645573177322829	25.30044702820426	-28.73093885905232	-2.249711350245745	18.66169791256557	3514.317948717948	3665.934065934066	0.467948717948718	-0.04314720812182741	0.4727755644090305
6554.718017578125	-20.70908079132979	5.879248522320016	25.0919208670205	-28.71687610514929	-1.888129821891251	19.00992919988146	3499.753846153846	3661.538461538461	0.458974358974359	-0.02411167512690355	0.4608233731739708
6574.249267578125	-21.2290308561495	5.884398087787918	25.09691438504997	-27.60373475302677	2.947356437516995	19.6596066092496	3485.189743589744	3661.538461538461	0.4666666666666667	-0.0266497461928934	0.4648074369189907
6593.780517578125	-21.07160084357953	5.270009159707628	24.83991564204749	-28.6079741389243	6.265117384987069	19.92224567175536	3509.948717948718	3668.864468864469	0.4692307692307692	-0.01395939086294416	0.4661354581673307
6613.311767578125	-19.98728782780734	4.216391475316188	25.27121721926542	-29.29659240816408	6.993881239682576	19.95418579547262	3515.774358974359	3668.864468864469	0.4628205128205128	-0.008883248730964466	0.4714475431606905
6632.843017578125	-20.3899271532392	3.915364886310054	25.00728467607998	-29.98869824037181	5.848586258245797	20.494560098969	3521.6	3673.260073260073	0.4564102564102564	-0.001269035532994924	0.4727755644090305
6652.374267578125	-20.46340979965602	3.640351589960271	25.65902003439815	-30.72827992975615	4.374785345634433	19.56190780697019	3523.05641025641	3667.399267399267	0.4666666666666667	-0.003807106598984771	0.4648074369189907
6671.905517578125	-21.62352924519824	3.228995306880984	25.64707548017674	-30.39747103888315	5.150273998650007	18.71597276009376	3517.230769230769	3663.003663003663	0.4525641025641026	0.006345177664974619	0.4701195219123506
6691.436767578125	-21.59150474051804	2.159727480230913	24.84952594819594	-30.71894226116454	6.994057636595645	19.00007266303667	3518.687179487179	3668.864468864469	0.4564102564102564	0.02030456852791878	0.4674634794156706
6710.968017578125	-21.59002736831997	3.465927642003169	24.99726316800307	-30.35472026701797	7.736470692431313	19.27893292433953	3501.210256410256	3665.934065934066	0.4576923076923077	0.02411167512690355	0.4727755644090305
6730.499267578125	-20.98740724872669	1.764973628906264	25.25927512733101	-31.07967669234316	8.125703416892264	18.2127782219547	3489.558974358974	3663.003663003663	0.4615384615384616	0.03553299492385786	0.4754316069057105
6750.030517578125	-20.57613452951236	0.4803574132690184	26.38654704876436	-30.09186260300438	5.575206322371057	17.14687465650833	3525.969230769231	3661.538461538461	0.4512820512820513	0.04187817258883248	0.4714475431606905
6769.561767578125	-19.14390590124014	0.5507295756371475	25.60940987598691	-29.77736650665889	-0.01669498783915524	17.87964311312366	3505.579487179487	3663.003663003663	0.441025641025641	0.0532994923857868	0.4714475431606905
6789.093017578125	-18.91711757297296	-0.4767881743742405	24.2882427027047	-29.43181984969553	-4.512826513925914	19.28217366229356	3523.05641025641	3664.468864468864	0.4538461538461538	0.05837563451776649	0.4648074369189907
6808.624267578125	-19.10801868383373	-1.176285744712546	25.19813161662684	-29.73619076323084	-9.069508436385968	22.26977237690751	3517.230769230769	3671.794871794872	0.4576923076923077	0.06218274111675126	0.4741035856573705
6828.155517578125	-19.70991550662171	-1.283754569081308	25.00844933782947	-29.70097762745768	-11.73288152358706	24.33133459841342	3512.861538461538	3665.934065934066	0.4461538461538462	0.0748730964467005	0.4608233731739708
6847.686767578125	-20.71492872294716	-1.499460451361829	24.50712770528394	-31.08755183452885	-12.89462610515725	24.95704998978147	3530.338461538461	3682.051282051282	0.4448717948717949	0.07360406091370558	0.4541832669322709
6867.218017578125	-21.63579451230097	-1.104770619499097	24.42054876990297	-31.73285682174733	-8.078213447962618	25.07021658004258	3514.317948717948	3677.655677655677	0.4641025641025641	0.08248730964467005	0.4528552456839309
6886.749267578125	-22.00022283697321	-2.942851857733981	23.97771630267909	-34.81060115348744	-0.6890769012137649	24.54531006452792	3537.620512820513	3682.051282051282	0.4717948717948718	0.1065989847715736	0.4634794156706507
6906.280517578125	-21.43084297626479	-2.534848593972567	24.91570237352154	-35.79492767985828	3.73547902943973	25.10277945019517	3518.687179487179	3682.051282051282	0.45	0.1065989847715736	0.451527224435591
6925.811767578125	-19.59994546034302	-4.236362777361241	24.00545396569788	-38.52656284447891	8.129936158819646	25.49866978614849	3523.05641025641	3680.58608058608	0.4692307692307692	0.1230964467005076	0.4648074369189907
6945.343017578125	-21.16078056960085	-3.758380855472371	23.9219430399149	-38.13950293799383	10.3517509252532	26.04565988853563	3504.123076923077	3677.655677655677	0.4487179487179487	0.1269035532994924	0.4634794156706507
6964.874267578125	-20.38160154533132	-4.900736285369213	25.83984546686808	-38.81349594317447	12.94354841702102	25.94409760186687	3536.164102564102	3683.516483516483	0.4423076923076923	0.1395939086294416	0.448871181938911
6984.405517578125	-21.94092850380362	-5.193508365004499	25.90714961963821	-39.47522622695168	18.52722492716453	25.25399968918739	3531.794871794872	3683.516483516483	0.4474358974358975	0.1459390862944162	0.4687915006640106
7003.936767578125	-21.89716196800751	-5.620789489235497	26.28380319924949	-39.44372565820891	28.25910063618045	23.06006007760769	3531.794871794872	3679.120879120879	0.441025641025641	0.1586294416243655	0.448871181938911
7023.468017578125	-20.47547500594027	-6.193616397846484	24.45249940597326	-39.03270281907308	34.96322133064753	22.91171262567529	3520.14358974359	3679.120879120879	0.4384615384615385	0.1687817258883249	0.4581673306772908
7042.999267578125	-19.02981152424183	-5.713736514361903	25.01884757581689	-42.18424848329626	38.67039139949164	21.15408385336028	3531.794871794872	3677.655677655677	0.4282051282051282	0.1763959390862944	0.4687915006640106
7062.530517578125	-18.31111180875909	-7.642700150076392	24.88881912409065	-42.25523726499871	42.49568546517599	17.51269310805037	3517.230769230769	3664.468864468864	0.4307692307692308	0.1713197969543147	0.451527224435591
7082.061767578125	-18.75867186701681	-7.630664491236104	24.13281329831961	-40.49802844800119	46.6465086661286	16.63070331612886	3508.492307692307	3664.468864468864	0.4115384615384615	0.2017766497461929	0.4581673306772908
7101.593017578125	-18.70676439483757	-8.412321807367899	25.32356051624309	-44.89900834323326	50.93369060081515	19.48953698811994	3528.882051282051	3671.794871794872	0.3987179487179487	0.200507614213198	0.4581673306772908
7121.124267578125	-15.91912926144933	-9.197064061320793	24.08707385506732	-48.35256237833603	48.95533336589583	21.17454014604359	3517.230769230769	3670.32967032967	0.4012820512820513	0.2055837563451776	0.4528552456839309
7140.655517578125	-12.68207196526206	-10.64956885354686	23.79280347379449	-51.60524736862973	35.4895183764947	21.76992885745925	3537.620512820513	3674.725274725275	0.3846153846153846	0.2284263959390863	0.4674634794156706
7160.186767578125	-13.23038388285423	-10.73269689370184	24.96161171457661	-50.32566259325274	18.73306444499075	23.55063191397628	3525.969230769231	3674.725274725275	0.3897435897435898	0.2347715736040609	0.4621513944223107
7179.718017578125	-14.03084568478048	-11.37807662760248	24.9154315219519	-48.32055888239444	3.088829897743664	25.91575597517622	3515.774358974359	3679.120879120879	0.382051282051282	0.2563451776649746	0.4701195219123506
7199.249267578125	-14.87789026325542	-12.55486929565049	24.21097367445857	-48.04825104775802	-3.58781599753003	25.60383056984387	3531.794871794872	3677.655677655677	0.3794871794871795	0.2550761421319797	0.4541832669322709
7218.780517578125	-15.6747201918614	-12.28084029852768	24.52798081385972	-47.3859582538247	-7.670040398955709	25.81219478482144	3504.123076923077	3673.260073260073	0.3666666666666666	0.2588832487309645	0.4541832669322709
7238.311767578125	-15.99221178622917	-13.47248148052393	24.77882137708325	-47.01476113374223	-3.179509670855469	25.07418668656606	3520.14358974359	3673.260073260073	0.3666666666666666	0.2690355329949238	0.450199203187251
7257.843017578125	-15.82451711474134	-14.7510838679574	25.5482885258657	-46.29925487903986	0.9466391298970164	24.32020852645205	3525.969230769231	3676.190476190476	0.3807692307692308	0.2728426395939086	0.4435590969455511
7277.374267578125	-14.94246250860262	-15.10811286631136	25.75374913973847	-44.2282249778842	5.138762728096247	22.27075288241542	3518.687179487179	3667.399267399267	0.3756410256410256	0.2944162436548223	0.4409030544488711
7296.905517578125	-14.95312728915744	-16.44349528410483	24.68727108425576	-43.51035618052612	8.136066147545373	21.97180793792612	3511.405128205128	3668.864468864469	0.3730769230769231	0.3007614213197969	0.4302788844621514
7316.436767578125	-14.87362742889223	-16.21302091220346	24.63725711077706	-42.44289065308062	10.01274898575785	22.08522566512569	3525.969230769231	3671.794871794872	0.3615384615384615	0.3236040609137056	0.4355909694555112
7335.968017578125	-14.72321493426309	-17.28186060870197	23.6785065736907	-41.70915906931995	10.74133644354029	23.0712789212789	3515.774358974359	3677.655677655677	0.3666666666666666	0.3197969543147208	0.4249667994687915
7355.499267578125	-14.08049093078142	-18.25255031375692	23.95090692185809	-43.12622132685289	9.985274186564462	22.54549852239046	3521.6	3673.260073260073	0.3551282051282051	0.3312182741116751	0.4156706507304117
7375.030517578125	-14.04677360379094	-18.55429712170962	23.32263962090629	-44.53799598891826	8.47297327569974	22.44805085704951	3518.687179487179	3671.794871794872	0.3653846153846154	0.3388324873096447	0.4143426294820717
7394.561767578125	-14.81728845569053	-18.07453865975256	22.27115443094701	-44.5637589540686	6.62096483768739	22.20662149804244	3507.035897435897	3668.864468864469	0.3538461538461539	0.3413705583756345	0.4143426294820717
7414.093017578125	-14.13552242958783	-18.66004542303937	22.44775704121745	-44.90863059884462	5.483894656317323	22.70432525760298	3528.882051282051	3671.794871794872	0.3551282051282051	0.3540609137055837	0.4050464807436919
7433.624267578125	-13.73551467338379	-18.77943787219007	22.44853266162144	-43.1542343326277	2.127457313680823	24.23100395419103	3509.948717948718	3671.794871794872	0.3461538461538462	0.3565989847715736	0.397078353253652
7453.155517578125	-13.94342095381611	-19.96176022126111	21.6579046183886	-44.22406240272891	1.379619856771706	23.66255301136675	3528.882051282051	3674.725274725275	0.3487179487179487	0.3705583756345177	0.4037184594953519
7472.686767578125	-12.42091995966774	-20.59487084073558	21.9080040332261	-43.1542343326277	2.127457313680823	24.23100395419103	3521.6	3676.190476190476	0.3487179487179487	0.3743654822335025	0.3944223107569721
7492.218017578125	-13.38459814860641	-21.1584789468306	21.54018513935928	-41.38588781453898	6.267255315573468	23.72394593166261	3512.861538461538	3674.725274725275	0.3461538461538462	0.3870558375634517	0.3784860557768924
7511.749267578125	-14.34909197011276	-21.68280172557073	21.09080298872395	-40.67566915530416	11.14964277021485	22.5416350380011	3509.948717948718	3670.32967032967	0.3397435897435898	0.383248730964467	0.3824701195219123
7531.280517578125	-14.55638267879589	-22.40420734056999	20.36173212041076	-41.66415825683028	19.33334157219289	21.70730429471702	3512.861538461538	3671.794871794872	0.3384615384615385	0.3946700507614213	0.3691899070385126
7550.811767578125	-12.84939790927211	-22.2928773424044	19.06020907278889	-42.99751900313243	26.37997019280086	21.37067731099348	3539.076923076923	3679.120879120879	0.3307692307692308	0.4073604060913705	0.3612217795484727
7570.343017578125	-11.33285257179721	-22.03535736402327	18.7147428202789	-45.02174805929883	28.14955423323304	22.99292524179486	3508.492307692307	3679.120879120879	0.3243589743589744	0.4124365482233502	0.3598937583001328
7589.874267578125	-9.764615212255295	-24.02081555869907	19.53847877447052	-48.17441874383425	28.85382008464149	22.19876386488367	3521.6	3671.794871794872	0.3243589743589744	0.4302030456852792	0.3532536520584329
7609.405517578125	-10.87913679604754	-23.43822568214583	20.0863203952463	-46.13027682814115	28.19103102739273	20.87134625724378	3541.989743589743	3673.260073260073	0.3192307692307692	0.4200507614213198	0.346613545816733
7628.936767578125	-10.96353045171886	-24.4329880899178	19.6469548281139	-45.7666173441507	27.43199197451057	21.63194021624855	3518.687179487179	3673.260073260073	0.3064102564102564	0.450507614213198	0.3559096945551128
7648.468017578125	-9.260254501983988	-25.04868141453463	17.97454980160122	-43.68669978252833	25.60728193877854	21.88435113241266	3505.579487179487	3667.399267399267	0.3051282051282052	0.4568527918781726	0.3413014608233732
7667.999267578125	-7.700111910944004	-25.79519466225425	17.98880890559961	-45.10544957052962	20.34686335564924	22.80377182662995	3527.425641025641	3676.190476190476	0.3115384615384615	0.4467005076142132	0.3452855245683931
7687.530517578125	-7.345794352252316	-26.67767078114824	17.42056477476845	-43.0611951528053	12.54942048222583	23.85832222542242	3533.251282051282	3679.120879120879	0.2897435897435898	0.4631979695431472	0.3426294820717131
7707.061767578125	-7.501823939092869	-26.56469628305466	17.81760609071311	-41.65459558417622	7.683306230804798	25.90940516364821	3528.882051282051	3682.051282051282	0.2948717948717949	0.4581218274111675	0.3213811420982736
7726.593017578125	-8.192885098608437	-27.73903220425163	16.71149013915615	-38.86378435113168	5.107781942257323	26.87973949488125	3540.533333333333	3686.446886446886	0.2833333333333333	0.4758883248730964	0.3094289508632138
7746.124267578125	-8.311226920676193	-26.85489157934781	16.87730793238067	-37.79744384399842	3.981560563034154	27.95662461748465	3544.902564102564	3695.238095238095	0.2820512820512821	0.4733502538071066	0.3041168658698539
7765.655517578125	-7.595682010408087	-27.89605347718014	16.43179895919128	-38.09956471690925	5.43068707544539	29.01728854129096	3543.446153846154	3687.912087912088	0.2769230769230769	0.4860406091370558	0.3041168658698539
7785.186767578125	-7.954170067700582	-27.58628823162241	16.5829932299419	-36.67080224812901	7.67717624207907	29.43626701187058	3533.251282051282	3690.84249084249	0.2769230769230769	0.4949238578680203	0.297476759628154
7804.718017578125	-7.369016796490749	-27.61575457400588	15.09832035092514	-35.60626177349533	9.181252352877085	29.57638522114736	3524.51282051282	3687.912087912088	0.2756410256410257	0.4898477157360406	0.2815405046480743
7824.249267578125	-8.178881456885971	-27.75163742085286	14.11185431140297	-34.57749694479095	11.84724944215837	28.13667490662014	3544.902564102564	3687.912087912088	0.2615384615384616	0.5012690355329948	0.2802124833997344
7843.780517578125	-7.261832212377178	-28.60401100396059	13.81677876228219	-34.58570959307032	12.2308813686328	27.73504265514984	3528.882051282051	3684.981684981685	0.2512820512820513	0.5101522842639593	0.2762284196547145
7863.311767578125	-6.019627505223127	-29.42633006587849	14.03724947768737	-34.96455685127604	9.625434675724813	27.58968480423301	3556.553846153846	3693.772893772893	0.258974358974359	0.5012690355329948	0.2735723771580345
7882.843017578125	-5.87089244361055	-29.30116786272257	12.91075563894501	-33.25234884676818	5.18425274802483	28.07166963887338	3541.989743589743	3684.981684981685	0.2564102564102564	0.5190355329949238	0.2722443559096945
7902.374267578125	-5.105917737453724	-29.92917693132558	13.40822625462756	-31.56882886022249	-1.481544345101966	28.33892559658388	3533.251282051282	3684.981684981685	0.2448717948717949	0.5228426395939086	0.2549800796812749
7921.905517578125	-5.586471825896611	-29.42381730199827	13.35281741033889	-30.23198055095239	-6.654114129577647	28.1671184005283	3543.446153846154	3689.377289377289	0.2397435897435898	0.5241116751269035	0.2576361221779548
7941.436767578125	-6.522003612175025	-30.36046865939553	11.79963878249757	-28.16668825338916	-10.34185780238199	28.55303172707843	3509.948717948718	3679.120879120879	0.2333333333333333	0.5266497461928934	0.2576361221779548
7960.968017578125	-5.76184575495566	-30.94515117211017	11.81542450443396	-28.50807233519722	-9.604869147619777	28.54230130685986	3521.6	3683.516483516483	0.2333333333333333	0.5317258883248731	0.2416998671978752
7980.499267578125	-5.485504516449924	-29.86733274607788	11.44954835500761	-28.84011874841368	-6.248608201896346	27.96973574270776	3539.076923076923	3690.84249084249	0.2294871794871795	0.549492385786802	0.2337317397078353
8000.06103515625	-5.658354601337269	-30.69890800649551	10.16453986627319	-29.8806962903966	-3.270378384660829	27.13427997911143	3536.164102564102	3686.446886446886	0.2294871794871795	0.5393401015228426	0.2138114209827357
8019.561767578125	-5.458158357063624	-31.23956775167343	10.18416429363757	-31.260857881688	-2.185457402684276	27.22486070862316	3527.425641025641	3686.446886446886	0.2358974358974359	0.5469543147208121	0.2204515272244356
8039.093017578125	-4.822898161040957	-31.54887285734863	9.710183895904354	-32.66036982234996	-0.7058792951733223	26.53887741727149	3524.51282051282	3684.981684981685	0.2243589743589744	0.549492385786802	0.2071713147410358
8058.624267578125	-4.463825310586726	-32.32076720553818	9.617468941327392	-33.05744240961398	0.08623535488874023	24.65348815008743	3527.425641025641	3676.190476190476	0.2294871794871795	0.5558375634517766	0.201859229747676
8078.155517578125	-5.508019053176782	-31.57536229475299	9.198094682321885	-33.41761433063649	2.719333243903182	23.38446001130356	3525.969230769231	3676.190476190476	0.2153846153846154	0.5647208121827411	0.201859229747676
8097.686767578125	-5.116136844062134	-31.37885563365109	8.386315593786664	-32.05860312121524	4.659366877482213	21.58054834760181	3517.230769230769	3673.260073260073	0.2115384615384615	0.5545685279187816	0.1965471447543161
8117.218017578125	-4.563131191882333	-31.03123749619884	7.686880811766776	-32.39357458724352	7.643021095791179	21.03468326552692	3502.666666666666	3671.794871794872	0.2102564102564103	0.5647208121827411	0.1912350597609562
8136.749267578125	-3.772395423593388	-31.06834216063221	6.760457640661222	-33.11853101256871	8.032253820252132	19.96852856314209	3493.928205128205	3664.468864468864	0.2	0.5736040609137055	0.1699867197875166
8156.280517578125	-2.975688609337239	-31.03455450456939	6.431139066276146	-34.59476933852556	5.457258722443864	18.07652349706728	3517.230769230769	3664.468864468864	0.2102564102564103	0.5647208121827411	0.1699867197875166
8175.811767578125	-3.009452104208911	-32.61737645167207	7.054789579108972	-34.99409196641407	0.2435649376346355	18.11806902069088	3528.882051282051	3663.003663003663	0.2102564102564103	0.5710659898477157	0.1580345285524568
8195.343017578125	-2.259758966725884	-33.03764344360685	6.024103327411532	-31.96146094919486	-8.602922921592164	17.62498215633506	3517.230769230769	3658.608058608058	0.1948717948717949	0.5685279187817258	0.1593625498007968
8214.874267578125	-1.692425882083538	-33.51218832063408	6.757411791646198	-28.8690913533956	-14.1290258312687	18.01638626146371	3507.035897435897	3657.142857142857	0.2012820512820513	0.583756345177665	0.1420982735723771
8234.405517578125	-1.970736950186703	-33.66494029569604	6.926304981329708	-26.83079954332617	-15.53702834334639	16.74236961797823	3528.882051282051	3655.677655677655	0.1961538461538462	0.5774111675126903	0.1460823373173971
8253.936767578125	-1.489044054007803	-34.01760396699058	7.095594599219701	-26.78152365364998	-17.83881990219298	19.15216312680003	3511.405128205128	3665.934065934066	0.2012820512820513	0.5850253807106599	0.1434262948207171
8273.468017578125	-2.375315326628526	-35.11785459702826	6.468467337147414	-20.52073308894393	-19.20325080877	19.24075880305001	3504.123076923077	3663.003663003663	0.1974358974358974	0.5850253807106599	0.1115537848605578
8292.999267578125	-2.015365286431691	-34.08294259916552	6.463471356830937	-19.82277715111254	-17.3127423725043	18.64698353539923	3507.035897435897	3663.003663003663	0.1884615384615385	0.581218274111675	0.1221779548472776
8312.530517578125	-2.333503231136112	-33.65854635193715	6.649676886388846	-18.75351159116745	-18.06635702431301	19.69716817592542	3505.579487179487	3665.934065934066	0.1833333333333333	0.581218274111675	0.1195219123505976
8332.061767578125	-2.695546215280215	-35.4605752456439	6.445378471978557	-17.01497811135314	-19.15407840528282	19.93884867187096	3528.882051282051	3667.399267399267	0.1974358974358974	0.5888324873096447	0.1088977423638778
8351.593017578125	-3.757052913316418	-32.42845348062734	4.294708668358258	-15.24831912373279	-19.51863672954364	20.87699174244828	3527.425641025641	3670.32967032967	0.182051282051282	0.583756345177665	0.1062416998671979
8371.124267578125	-3.830089270215068	-32.81930214477508	4.991072978493154	-15.26474442029152	-18.75137287659478	20.07372723950768	3505.579487179487	3663.003663003663	0.1756410256410256	0.5951776649746192	0.102257636122178
8390.655517578125	-3.749373655745193	-32.62851722308196	5.06263442548073	-14.54395057012162	-15.38146272973119	19.74808181294118	3514.317948717948	3665.934065934066	0.1884615384615385	0.5964467005076142	0.09030544488711818
8410.186767578125	-2.67914184373588	-32.47560519936522	4.085815626411967	-13.85769484353754	-14.98138120312333	19.26110847359921	3511.405128205128	3667.399267399267	0.1807692307692308	0.5939086294416244	0.08897742363877821
8429.718017578125	-1.96085763918385	-33.36568763057816	3.914236081614964	-12.14492432887356	-17.9211110221055	19.26135961053767	3504.123076923077	3667.399267399267	0.1871794871794872	0.5964467005076142	0.08897742363877821
8449.249267578125	-2.796529529592381	-33.97704363665016	4.34704704076193	-10.46792946013888	-19.69891986260439	17.68178222367213	3524.51282051282	3667.399267399267	0.1858974358974359	0.5888324873096447	0.09030544488711818
8468.780517578125	-3.483297076157306	-33.88648533769651	3.670292384269433	-7.746306976297194	-21.07944757548869	15.94749272292188	3518.687179487179	3660.07326007326	0.1858974358974359	0.598984771573604	0.08499335989375829
8488.311767578125	-2.916564173970426	-33.86042403044372	4.343582602957453	-4.699725707206179	-22.42970009018635	13.42066913944961	3514.317948717948	3655.677655677655	0.1666666666666667	0.5939086294416244	0.08366533864541832
8507.843017578125	-2.002962131257133	-34.09393132435337	3.703786874286706	-2.307787093925248	-21.58281223865058	11.56884729017197	3514.317948717948	3652.747252747252	0.1743589743589744	0.598984771573604	0.07702523240371846
8527.374267578125	-1.68003811620271	-34.48469996417372	3.996188379728975	2.169919186601715	-21.81542096801791	9.916035392904039	3493.928205128205	3649.81684981685	0.1653846153846154	0.5977157360406091	0.08100929614873838
8546.905517578125	-2.828277026985434	-34.60036327966778	5.172297301456565	5.269826418492988	-22.09195409671205	8.808837440772537	3473.538461538461	3641.025641025641	0.1653846153846154	0.5926395939086294	0.06772908366533864
8566.436767578125	-3.439946051291901	-33.27488525742594	4.005394870809957	6.271028249547449	-18.64766795542194	6.19093085391162	3495.384615384615	3642.490842490842	0.1769230769230769	0.5951776649746192	0.0743691899070385
8585.968017578125	-3.394302021660739	-33.39637034273803	4.569797833926128	6.261015568768498	-15.63373853892632	4.8525316891147	3482.276923076923	3636.630036630037	0.1705128205128205	0.5901015228426395	0.06772908366533864
8605.499267578125	-3.04524760142468	-33.11968453794569	3.475239857532074	6.914420702235115	-13.69912930642074	2.759029343891529	3489.558974358974	3633.699633699634	0.1692307692307692	0.5926395939086294	0.0743691899070385
8625.030517578125	-3.203770253849478	-32.7734228128428	3.622974615052206	7.203603841555163	-12.50693312975083	0.3866667373655046	3488.102564102564	3623.443223443223	0.1602564102564103	0.5901015228426395	0.06772908366533864
8644.561767578125	-3.524616714250363	-33.57706019553021	3.538328574963711	7.167828195625876	-11.34501215126756	-1.193161786438493	3502.666666666666	3624.908424908425	0.1692307692307692	0.6002538071065989	0.06772908366533864
8664.093017578125	-2.720707710528616	-33.55054675082764	3.929228947138391	8.884086273257802	-12.41068313411743	-1.70134482927915	3477.907692307692	3623.443223443223	0.1641025641025641	0.5901015228426395	0.07304116865869853
8683.624267578125	-3.883766511173243	-33.61278043909965	3.623348882675717	10.59561926557831	-11.21866335436059	-3.119594303369224	3457.517948717949	3616.117216117216	0.1628205128205128	0.6002538071065989	0.07304116865869853
8703.155517578125	-4.041227302330678	-33.92143734772293	3.877269766932224	10.23949741767988	-5.210054520496041	-5.378790319634134	3476.451282051281	3616.117216117216	0.1782051282051282	0.6002538071065989	0.07569721115537847
8722.686767578125	-3.589004288072805	-33.59202874596954	5.099571192719509	9.930851426958052	1.127060244543098	-6.164959740403862	3450.235897435897	3610.25641025641	0.1615384615384616	0.5888324873096447	0.07038512616201859
8742.218017578125	-2.91247062183827	-34.09532774886642	4.75293781617304	10.6346574704131	3.762782135637731	-6.812135972209055	3450.235897435897	3613.186813186813	0.1807692307692308	0.5913705583756345	0.07304116865869853
8761.749267578125	-3.082427519504391	-34.16059435914671	3.757248049560912	10.25749774267575	5.661691768883213	-8.402694916231626	3470.625641025641	3610.25641025641	0.1692307692307692	0.5901015228426395	0.07702523240371846
8781.280517578125	-1.408606062396815	-33.13269249236383	3.139393760318521	10.5871816132365	3.434276204463143	-8.285162567704237	3458.974358974359	3610.25641025641	0.1705128205128205	0.583756345177665	0.08100929614873838
8800.811767578125	-2.357156575598982	-33.51927185864503	4.28434244010179	10.23409732018112	2.680837949567507	-8.189091059613995	3479.364102564102	3611.721611721612	0.1705128205128205	0.5939086294416244	0.08897742363877821
8820.343017578125	-1.924970421777451	-33.09270295092785	3.502957822254888	9.558979294688237	2.269731223899686	-7.327185950878929	3474.994871794872	3611.721611721612	0.1730769230769231	0.5926395939086294	0.0743691899070385
8839.874267578125	-2.400661493401687	-33.74610112243353	3.933850659831357	9.922076268522567	0.009240062299708057	-6.084858294172251	3442.953846153846	3610.25641025641	0.1705128205128205	0.5951776649746192	0.07835325365205843
8859.405517578125	-2.514586588168958	-32.90488293056473	4.541341183104279	8.17240508761706	1.107986642329489	-6.701470559510883	3488.102564102564	3611.721611721612	0.1705128205128205	0.6015228426395939	0.07702523240371846
8878.936767578125	-2.68092700180855	-33.01226372817337	3.907299819145019	7.859146513615041	2.568138353800695	-6.015738405097671	3461.887179487179	3614.652014652014	0.1794871794871795	0.5901015228426395	0.08499335989375829
8898.468017578125	-3.166220992720249	-32.6559629511987	3.37790072797515	7.173453297187084	3.669508935910667	-6.010498763457614	3458.974358974359	3611.721611721612	0.1794871794871795	0.5977157360406091	0.08366533864541832
8917.999267578125	-3.074932933457926	-32.89893312182288	4.506706654207494	6.137600840515579	4.390047990539466	-5.935888095804518	3476.451282051281	3613.186813186813	0.1807692307692308	0.5901015228426395	0.08764940239043824
8937.530517578125	-2.961669578321041	-33.08563680281882	3.833042167895963	6.131750734891922	3.644834535710539	-5.882487131650111	3474.994871794872	3613.186813186813	0.1794871794871795	0.5862944162436548	0.08100929614873838
8957.061767578125	-2.835232987751353	-33.20872237467882	4.476701224864666	5.440207412840309	4.000991662991583	-5.823846525855645	3482.276923076923	3617.582417582417	0.1833333333333333	0.5977157360406091	0.08233731739707835
8976.593017578125	-2.483916341336997	-33.58816757217271	3.608365866300278	5.806791949642586	3.614559337523891	-5.089953048928082	3470.625641025641	3614.652014652014	0.1756410256410256	0.5926395939086294	0.07702523240371846
8996.124267578125	-2.00351614583141	-33.70875638501796	3.648385416859032	6.508910462629272	1.745924902465055	-4.291928187627539	3460.430769230769	3614.652014652014	0.1730769230769231	0.5901015228426395	0.07968127490039841
9015.655517578125	-1.719080138823741	-33.86988290594186	4.091986117625912	5.822654736045196	1.345843375857203	-3.80495484828557	3472.082051282051	3621.978021978022	0.1961538461538462	0.5913705583756345	0.08233731739707835
9035.186767578125	-2.282473564271231	-33.24547093085528	3.752643572876923	6.175176518944452	0.5978295220350168	-3.4192926586739	3472.082051282051	3620.51282051282	0.1858974358974359	0.5875634517766497	0.07171314741035856
9054.718017578125	-2.162808262942704	-33.43864057750479	3.719173705729618	6.544123598402439	-0.9174481847360345	-2.23036596612163	3473.538461538461	3624.908424908425	0.1833333333333333	0.5951776649746192	0.07968127490039841
9074.249267578125	-2.584637422084006	-32.76028543446439	5.536257791599414	5.879580763844627	-2.841032218181647	-0.5117953902915555	3457.517948717949	3623.443223443223	0.1730769230769231	0.5888324873096447	0.08100929614873838
9093.780517578125	-2.959053398386956	-33.62674068301379	4.094660161304421	5.173974687889992	-2.846456619255097	-0.8013860718129831	3483.733333333333	3627.838827838828	0.1858974358974359	0.58248730964467	0.09694555112881806
9113.311767578125	-2.956391050571682	-33.28327580815336	4.360894942831851	5.549334383127756	-2.115068762479398	-0.1475940411170324	3477.907692307692	3620.51282051282	0.1897435897435897	0.5939086294416244	0.08764940239043824
9132.843017578125	-3.00266604124577	-32.58423037526485	3.733395875423051	4.866566219511628	-0.6410914529549635	-0.169054881554179	3485.189743589744	3623.443223443223	0.1833333333333333	0.5913705583756345	0.08233731739707835
9152.374267578125	-2.837649106866949	-33.16782055591052	4.235089313305091	5.578022401089921	0.1095464029474132	0.06713483581284052	3469.169230769231	3623.443223443223	0.1871794871794872	0.5901015228426395	0.08897742363877821
9171.905517578125	-2.950389226017017	-33.28933765095357	4.961077398298313	5.595010207804771	0.8437346587163711	0.388665641051529	3458.974358974359	3624.908424908425	0.1833333333333333	0.5862944162436548	0.08897742363877821
9191.436767578125	-3.157249034475712	-33.08810155210261	4.275096552428861	4.550945102853901	1.947905639819602	0.06164405723432453	3489.558974358974	3629.304029304029	0.1858974358974359	0.5850253807106599	0.08764940239043824
9210.968017578125	-2.436025474821269	-34.32730657812282	4.397452517873125	5.239563372093685	1.219141785124094	0.02970393351706324	3472.082051282051	3626.373626373626	0.1769230769230769	0.5901015228426395	0.08764940239043824
9230.499267578125	-2.594440402189958	-34.25038442455737	4.555959781004193	5.233713266470028	0.4739283302951672	0.08310489767147111	3492.471794871794	3629.304029304029	0.1769230769230769	0.5888324873096447	0.09030544488711818
9250.030517578125	-2.806255563229684	-32.65952803498417	3.374443677031664	4.544532487074124	-0.2987599237271477	0.5967787190906443	3477.907692307692	3627.838827838828	0.1846153846153846	0.5901015228426395	0.08233731739707835
9269.561767578125	-2.197926015662608	-32.63547933956537	4.207398433739241	4.535757328638638	-1.416580105970538	0.676880165322256	3476.451282051281	3626.373626373626	0.1769230769230769	0.6027918781725888	0.08366533864541832
9289.093017578125	-2.641346353906973	-32.97377864409242	3.865364609302766	4.52990722301498	-2.161793560799465	0.7302811294766639	3482.276923076923	3626.373626373626	0.1846153846153846	0.5926395939086294	0.09163346613545816
9308.624267578125	-2.607906034203629	-33.58293798237741	3.209396579637132	5.548771872971636	-3.616520871197221	0.3341396565848797	3467.71282051282	3626.373626373626	0.182051282051282	0.5850253807106599	0.08632138114209827
9328.155517578125	-3.202308270945137	-33.42874556942233	3.769172905486344	3.779187832539452	-3.624569274350862	-0.577302931915237	3499.753846153846	3627.838827838828	0.1897435897435897	0.5913705583756345	0.09296148738379813
9347.686767578125	-3.357830011092603	-33.58551476571954	4.216998890739707	4.459593453499872	-3.969701202571937	-1.010875307102799	3486.646153846154	3626.373626373626	0.1833333333333333	0.5913705583756345	0.08764940239043824
9367.218017578125	-3.238149320470346	-32.81716149401725	4.185067952965393	4.126422019971173	-3.616344474284152	-0.6199734758510715	3472.082051282051	3627.838827838828	0.182051282051282	0.5901015228426395	0.08366533864541832
9386.749267578125	-3.351243393376202	-34.05370571115157	4.875660662379824	3.785037938163109	-2.879355819521935	-0.6307038960696449	3479.364102564102	3626.373626373626	0.1923076923076923	0.5939086294416244	0.08632138114209827
9406.280517578125	-2.9516665373966	-33.09573987415251	4.833346260340066	4.129909582939122	-1.742285638151866	-1.128407655630187	3477.907692307692	3626.373626373626	0.1897435897435897	0.583756345177665	0.07968127490039841
9425.811767578125	-3.708007849770946	-33.05337361019288	5.199215022905424	3.810800903313445	-1.027347381509586	-0.389274537062568	3482.276923076923	3627.838827838828	0.1884615384615385	0.5926395939086294	0.08499335989375829
9445.343017578125	-2.995279180255413	-33.05322956640357	4.472081974458696	4.160960143556994	-0.6465158540284135	-0.4586455630756064	3493.928205128205	3629.304029304029	0.1884615384615385	0.5875634517766497	0.07968127490039841
9464.874267578125	-3.153016978699986	-33.66929900535916	4.698302130001366	5.221450545066594	-2.517950688080509	0.6716405236821987	3461.887179487179	3626.373626373626	0.191025641025641	0.5913705583756345	0.08499335989375829
9484.405517578125	-3.524878332243772	-32.92294980751071	3.512166775622866	3.819013551592809	-1.410979307984019	0.01235771440773231	3480.820512820513	3621.978021978022	0.1769230769230769	0.58248730964467	0.08499335989375829
9503.936767578125	-2.482977594419473	-32.93526955271325	3.702240558052725	4.845528339672709	-4.750790653574031	0.4995821906881604	3467.71282051282	3626.373626373626	0.1884615384615385	0.5951776649746192	0.08233731739707835
9523.468017578125	-2.193617013418233	-33.40906220106297	4.638298658176701	5.505458590950329	-7.704169673696351	0.2529131900410263	3464.8	3623.443223443223	0.1884615384615385	0.5850253807106599	0.08764940239043824
9542.999267578125	-2.38656490034509	-32.99110791218992	5.343509965491047	6.146038492857391	-10.26289156828427	-0.7703198314695047	3493.928205128205	3629.304029304029	0.191025641025641	0.6015228426395939	0.09561752988047809
9562.530517578125	-3.316571930174466	-33.74103158129302	4.342806982553465	6.507335434192134	-9.893085239863066	-0.4647590880894466	3473.538461538461	3627.838827838828	0.1935897435897436	0.5964467005076142	0.07968127490039841
9582.061767578125	-3.348704159910767	-33.4024241831055	5.129584008923327	6.525448261219226	-6.155992766658461	-1.106695678254582	3486.646153846154	3627.838827838828	0.1948717948717949	0.5875634517766497	0.07835325365205843
9601.593017578125	-2.547088160954776	-33.64282557282029	5.291183904522359	6.907220572236769	-3.177939346336013	-0.9880383094149516	3483.733333333333	3626.373626373626	0.1871794871794872	0.5951776649746192	0.08764940239043824
9621.124267578125	-4.464626169432431	-33.31841987656555	5.537383056756946	7.282580267474533	-2.446551489560314	-0.3342462787190011	3464.8	3621.978021978022	0.1794871794871795	0.5850253807106599	0.08233731739707835
9640.655517578125	-3.034244256407794	-32.63079791641273	4.575574359220587	6.952333886757662	-1.720588033858066	0.02995507045552193	3483.733333333333	3627.838827838828	0.1807692307692308	0.5913705583756345	0.08632138114209827
9660.186767578125	-3.634555981941588	-33.70140615054668	4.544401805841282	6.932983537387104	-1.325930908323665	-0.7466089504078748	3489.558974358974	3629.304029304029	0.1858974358974359	0.5913705583756345	0.08897742363877821
9679.718017578125	-3.511766653985889	-32.70542337178194	4.823334601411136	6.269565723141535	-0.2466107243336314	0.008494230018375348	3474.994871794872	3627.838827838828	0.1807692307692308	0.5850253807106599	0.08632138114209827
9699.249267578125	-3.033059280790591	-32.59353320332458	4.694071920940889	7.302493127001211	-1.339756506376893	-0.03941595555751642	3447.323076923077	3621.978021978022	0.1807692307692308	0.5926395939086294	0.09296148738379813
9718.780517578125	-3.871670526301534	-32.8557666145893	4.832947369846586	6.566399000584825	-0.9394985828559725	-1.480502427335437	3493.928205128205	3629.304029304029	0.1756410256410256	0.5939086294416244	0.102257636122178
9738.311767578125	-3.230439284311662	-33.09417939976829	4.956071568833848	6.563473947772996	-1.312105310270436	-1.453801945258233	3479.364102564102	3624.908424908425	0.1833333333333333	0.5875634517766497	0.09296148738379813
9757.843017578125	-3.270173825150538	-33.74789366736719	4.982617484946193	5.866080520097727	-1.701161637818319	-1.34176037530936	3489.558974358974	3626.373626373626	0.1833333333333333	0.5875634517766497	0.08366533864541832
9777.374267578125	-4.429631531062366	-32.81376446131932	5.036846893763395	5.879580763844627	-2.841032218181647	-0.5117953902915555	3464.8	3626.373626373626	0.1935897435897436	0.583756345177665	0.07835325365205843
9796.905517578125	-4.626503687890351	-32.58415435215382	5.349631210965056	5.168687092422456	-2.090217965366201	-1.229718805360487	3489.558974358974	3621.978021978022	0.1807692307692308	0.5875634517766497	0.09163346613545816
9816.436767578125	-3.954848427768196	-32.8902184725695	4.515157223180461	5.155186848675555	-0.9503473850028723	-2.059683790378292	3482.276923076923	3627.838827838828	0.182051282051282	0.5964467005076142	0.08897742363877821
9835.968017578125	-4.105430204628361	-33.39813087794074	5.456979537163912	5.196812600228499	-1.367054908657212	-0.5332562307287022	3472.082051282051	3630.769230769231	0.1897435897435897	0.5850253807106599	0.08233731739707835
9855.499267578125	-5.233263527496975	-33.5328653756896	4.673647250302553	4.502906735521179	0.1179475999271919	-0.9296488405589451	3493.928205128205	3630.769230769231	0.1846153846153846	0.5977157360406091	0.09030544488711818
9875.030517578125	-3.590143095808819	-33.74472470400232	4.98569041911818	4.497056629897522	-0.6272658549017349	-0.8762478764045374	3480.820512820513	3627.838827838828	0.1884615384615385	0.5875634517766497	0.099601593625498
9894.561767578125	-3.591974421762678	-33.16595198786585	4.80255782373226	4.491769034429986	0.1289727989871609	-1.304580609952042	3486.646153846154	3627.838827838828	0.1858974358974359	0.5850253807106599	0.07569721115537847
9914.093017578125	-3.63403274595477	-33.00962692658568	4.596725404522974	4.144534846998265	0.1207479989204515	-1.261910066016207	3489.558974358974	3627.838827838828	0.182051282051282	0.5926395939086294	0.08764940239043824
9933.624267578125	-3.428373302407009	-33.20965065687661	5.162669759299134	4.163885196368823	-0.27390912661395	-0.4853460451528103	3469.169230769231	3626.373626373626	0.1961538461538462	0.5862944162436548	0.07835325365205843
9953.155517578125	-4.031562825868295	-32.0850446227961	4.843717413170526	4.147459899810093	0.4933547263349149	-1.288610548093411	3499.753846153846	3627.838827838828	0.1846153846153846	0.5888324873096447	0.102257636122178
9972.686767578125	-2.706626506765749	-33.75707645893582	5.33734932342509	4.505831788333008	0.4905543273416553	-0.956349322636149	3479.364102564102	3629.304029304029	0.2025641025641026	0.583756345177665	0.09030544488711818
9992.218017578125	-4.307888675080302	-33.20134013047659	5.211132491969866	4.164447706524943	1.227542982103873	-0.9670797428547224	3470.625641025641	3624.908424908425	0.1948717948717949	0.598984771573604	0.08764940239043824
10011.74926757813	-3.906911393371277	-33.74478872346424	5.308860662872282	4.500544192865471	1.246792981230551	-1.384682056183654	3479.364102564102	3627.838827838828	0.1846153846153846	0.5875634517766497	0.08366533864541832
10031.28051757813	-3.143090884244195	-33.48701666845182	5.690911575580514	3.806075818002029	1.230343381097132	-1.299340968311984	3485.189743589744	3627.838827838828	0.1961538461538462	0.5850253807106599	0.08897742363877821
10050.81176757813	-3.993059428527811	-33.35316382334076	4.694057147218908	4.505831788333008	0.4905543273416553	-0.956349322636149	3486.646153846154	3627.838827838828	0.1935897435897436	0.5926395939086294	0.08100929614873838
10070.34301757813	-3.551916705755473	-33.32025643487928	4.808329424452725	4.853065975764728	0.4987791274083648	-0.9990198665719836	3492.471794871794	3629.304029304029	0.1948717948717949	0.5862944162436548	0.09561752988047809
10089.87426757813	-3.508873466764666	-32.93911472164461	5.11265332353343	5.561597104531192	0.8768102558962782	-0.7361296671277602	3476.451282051281	3629.304029304029	0.1871794871794872	0.5875634517766497	0.08499335989375829
10109.40551757813	-3.429281270737074	-32.93950283963248	5.071872926292669	5.209075321631935	1.624824109718465	-1.12179185673943	3486.646153846154	3629.304029304029	0.1884615384615385	0.5875634517766497	0.08499335989375829
10128.93676757813	-3.073455561259854	-33.59273296005063	4.654443874014623	5.203225216008278	0.8796106548895377	-1.068390892585022	3477.907692307692	3626.373626373626	0.1961538461538462	0.5774111675126903	0.08632138114209827
10148.46801757813	-3.945384012124301	-33.55362368621599	5.461598787569882	5.194450057572793	-0.2382095273538526	-0.9882894463534104	3472.082051282051	3626.373626373626	0.1794871794871795	0.5862944162436548	0.08499335989375829
10167.99926757813	-3.711855173203424	-32.43410319814146	4.814482679657692	4.855991028576557	0.8713858548228283	-1.025720348649188	3493.928205128205	3630.769230769231	0.191025641025641	0.583756345177665	0.09163346613545816
10187.53051757813	-3.359615169165273	-33.12217329452768	4.03848308347276	5.222575565378834	0.4849535293551363	-0.2918268717216253	3464.8	3621.978021978022	0.1923076923076923	0.5888324873096447	0.09163346613545816
10207.06176757813	-4.339559226004705	-33.01704518173524	6.044077399529456	4.496494119741401	-2.128717963619558	-0.3945141787026253	3492.471794871794	3629.304029304029	0.182051282051282	0.583756345177665	0.09561752988047809
10226.59301757813	-4.227819410947082	-33.39451777955883	5.218058905291823	4.510556873644423	-1.767136435265063	-0.04628289138673281	3482.276923076923	3621.978021978022	0.1782051282051282	0.5748730964467005	0.08499335989375829
10246.12426757813	-3.906757500433978	-33.12955953994629	5.324249956602191	4.891766674505844	-0.2905351236604382	0.5541081751548098	3463.343589743589	3624.908424908425	0.1833333333333333	0.5888324873096447	0.09030544488711818
10265.65551757813	-3.471001030467108	-33.62967357461284	4.899896953289184	4.526307158015808	3.098801419242899	-1.143252697176576	3486.646153846154	3627.838827838828	0.1923076923076923	0.5723350253807106	0.09030544488711818
10285.18676757813	-2.826845822668553	-32.17873187295091	5.315417733144722	4.878828940915064	2.350787565420713	-0.7575905075649068	3469.169230769231	3623.443223443223	0.1961538461538462	0.5888324873096447	0.1035856573705179
10304.71801757813	-2.628327011411469	-32.52538971847441	5.167298858853091	4.175585407616136	1.216517783043904	-0.592147973461626	3482.276923076923	3630.769230769231	0.1923076923076923	0.5875634517766497	0.08366533864541832
10324.24926757813	-3.120346123683139	-32.35460426123387	3.965387631686186	4.51640697926808	-1.021922980436136	-0.09968385554114062	3480.820512820513	3623.443223443223	0.191025641025641	0.5875634517766497	0.08897742363877821
10343.78051757813	-3.437837718050903	-33.54624544323012	4.216228194909713	4.502344225365058	-1.383504508790631	-0.4479151428570332	3485.189743589744	3626.373626373626	0.1974358974358974	0.5888324873096447	0.08100929614873838
10363.31176757813	-3.828442615785968	-32.93634988113309	5.155738421403183	4.138684741374608	-0.6244654559084755	-1.208509101861799	3504.123076923077	3629.304029304029	0.1807692307692308	0.5875634517766497	0.08366533864541832
10382.84301757813	-3.394548250360418	-32.78073703636675	4.545174963958274	4.502906735521179	0.1179475999271919	-0.9296488405589451	3486.646153846154	3626.373626373626	0.1846153846153846	0.5875634517766497	0.09296148738379813
10402.37426757813	-4.109339085235757	-33.6249521392965	5.066091476424217	4.5169694894242	0.4795291282816863	-0.5814175532430527	3470.625641025641	3626.373626373626	0.191025641025641	0.5761421319796954	0.09163346613545816
10421.90551757813	-3.228223226014555	-33.63487915710991	5.177677398544542	4.5169694894242	0.4795291282816863	-0.5814175532430527	3485.189743589744	3629.304029304029	0.182051282051282	0.5875634517766497	0.08897742363877821
10441.43676757813	-3.508888856058396	-33.9006376399964	5.111114394160439	4.514044436612372	0.1069224008672229	-0.5547170711658488	3474.994871794872	3629.304029304029	0.1871794871794872	0.583756345177665	0.08897742363877821
10460.96801757813	-4.024714590158485	-34.20734595624762	5.528540984151489	4.864203676855921	0.4877539283483958	-0.6240880971788871	3472.082051282051	3629.304029304029	0.1833333333333333	0.5888324873096447	0.09428950863213811
10480.49926757813	-3.350720157389385	-34.36192648719056	4.927984261061516	4.500544192865471	1.246792981230551	-1.384682056183654	3486.646153846154	3627.838827838828	0.1833333333333333	0.583756345177665	0.08764940239043824
10500.03051757813	-3.433451769337879	-32.51221371296874	4.654823066212128	4.494694087241814	0.5015795264016244	-1.331281092029246	3489.558974358974	3626.373626373626	0.1923076923076923	0.583756345177665	0.09163346613545816
10519.56176757813	-3.147676893775708	-33.02084633728653	5.232310622429218	4.471856174903308	-0.9778221841962602	-1.599410933113526	3498.297435897436	3623.443223443223	0.191025641025641	0.5850253807106599	0.08499335989375829
10539.09301757813	-3.585664811333415	-32.94155546363017	5.433518866658541	5.165762039610628	-2.462824692780664	-1.203018323283283	3492.471794871794	3629.304029304029	0.1833333333333333	0.5875634517766497	0.09163346613545816
10558.62426757813	-3.906172707272241	-33.59168864257811	5.382729272775847	5.185112388981185	-2.857481818315066	-0.4264543024198866	3464.8	3627.838827838828	0.1948717948717949	0.5850253807106599	0.09561752988047809
10578.15551757813	-3.749296709276544	-32.82090263132299	5.070329072345684	5.535271629224735	-2.476650290833893	-0.4958253284329249	3457.517948717949	3624.908424908425	0.1974358974358974	0.5786802030456852	0.09428950863213811
10597.68676757813	-3.631093390852358	-33.35874952139296	4.890660914764242	4.491206524273865	-1.372479309730662	-0.8228469122501296	3476.451282051281	3624.908424908425	0.1935897435897436	0.5926395939086294	0.09163346613545816
10617.21801757813	-3.347272955593885	-33.98079277638863	5.272704440611483	4.163885196368823	-0.27390912661395	-0.4853460451528103	3480.820512820513	3632.234432234432	0.1884615384615385	0.5786802030456852	0.09694555112881806
10636.74926757813	-3.867146073944941	-33.16802861916176	5.285392605505919	3.811363413469565	0.4741047272082364	-0.8710082347644801	3486.646153846154	3627.838827838828	0.1923076923076923	0.5862944162436548	0.09030544488711818
10656.28051757813	-3.793555702472013	-33.16235489434942	4.644429752798697	3.822501114560759	0.4630795281482674	-0.4960764653713837	3492.471794871794	3629.304029304029	0.1884615384615385	0.58248730964467	0.08632138114209827
10675.81176757813	-3.821963723125676	-33.13520125502768	5.803627687432364	3.467054278849673	0.8384866545559904	-0.8550381729058494	3496.841025641026	3627.838827838828	0.1858974358974359	0.5774111675126903	0.08233731739707835
10695.34301757813	-4.110354778621931	-33.08546475051492	4.964522137806815	3.831276272996244	1.580899710391658	-0.5761779116029954	3480.820512820513	3627.838827838828	0.1769230769230769	0.58248730964467	0.08764940239043824
10714.87426757813	-3.867484638406999	-33.32153282290124	5.251536159300119	3.828351220184416	1.208292982977194	-0.5494774295257915	3470.625641025641	3626.373626373626	0.1948717948717949	0.5875634517766497	0.08233731739707835
10734.40551757813	-2.868396300167559	-33.29215050606153	5.160369983244136	3.831276272996244	1.580899710391658	-0.5761779116029954	3492.471794871794	3629.304029304029	0.182051282051282	0.5913705583756345	0.08499335989375829
10753.93676757813	-3.866653616545584	-33.39929523190434	5.334638345441629	4.181435513239793	1.961731237872831	-0.6455489376160337	3476.451282051281	3629.304029304029	0.182051282051282	0.5926395939086294	0.099601593625498
10773.46801757813	-3.270112267975619	-33.90180199396001	4.988773202438156	4.517531999580322	1.980981236999509	-1.063151250944965	3476.451282051281	3627.838827838828	0.1923076923076923	0.5888324873096447	0.09163346613545816
10792.99926757813	-4.031870611742892	-34.31550298983198	4.812938825710708	3.825988677528708	2.337138364280553	-1.0045106451505	3488.102564102564	3627.838827838828	0.1948717948717949	0.583756345177665	0.08100929614873838
10812.53051757813	-2.954267328036954	-32.59311307560574	4.573267196304599	3.809000870813858	1.602950108511596	-1.326041450389188	3489.558974358974	3626.373626373626	0.1897435897435897	0.5748730964467005	0.08499335989375829
10832.06176757813	-4.258258818373093	-33.28838936267393	6.174118162690688	4.505831788333008	0.4905543273416553	-0.956349322636149	3482.276923076923	3626.373626373626	0.1807692307692308	0.5862944162436548	0.08100929614873838
10851.59301757813	-4.893626739451871	-32.7097446854613	6.63732605481297	3.480554522596574	-0.3013839258073379	-0.02507318788804486	3479.364102564102	3619.047619047619	0.1871794871794872	0.5850253807106599	0.08499335989375829
10871.12426757813	-3.387161389370061	-33.24973622750547	5.283861062993918	5.225500618190663	0.8575602567695997	-0.3185273537988293	3458.974358974359	3621.978021978022	0.1987179487179487	0.5888324873096447	0.09030544488711818
10890.65551757813	-3.61885890233708	-32.94802943171646	6.114109766292029	4.526307158015808	3.098801419242899	-1.143252697176576	3492.471794871794	3629.304029304029	0.1858974358974359	0.581218274111675	0.07835325365205843
10910.18676757813	-3.995490936937137	-33.27378492292426	4.450906306286341	4.875903888103235	1.97818083800625	-0.7308900254877029	3469.169230769231	3626.373626373626	0.1858974358974359	0.5977157360406091	0.09561752988047809
10929.71801757813	-3.872593883925329	-33.54714171569696	4.740611607467131	4.872416325135285	0.1041220018739633	-0.2224558457085868	3474.994871794872	3623.443223443223	0.182051282051282	0.5850253807106599	0.09827357237715803
10949.24926757813	-3.785445544676351	-33.43977692295381	5.455445532364916	4.86712872966775	0.8603606557628593	-0.6507885792560911	3493.928205128205	3629.304029304029	0.1948717948717949	0.5875634517766497	0.08764940239043824
10968.78051757813	-3.459643731694436	-32.02575983098862	6.035626830556488	4.497619140053643	0.8741862538160878	-1.35798157410645	3476.451282051281	3624.908424908425	0.1884615384615385	0.5786802030456852	0.08233731739707835
10988.31176757813	-3.467877003839937	-33.44052114919859	5.212299616006343	4.861841134200214	1.616599309651755	-1.079121312803595	3488.102564102564	3624.908424908425	0.1846153846153846	0.5913705583756345	0.08632138114209827
11007.84301757813	-3.63417124959834	-32.66333319175183	4.582875040166056	4.875341377947113	0.4767287292884267	-0.2491563277857907	3467.71282051282	3619.047619047619	0.1846153846153846	0.5926395939086294	0.09428950863213811
11027.37426757813	-3.948569595926392	-33.58886778503742	5.143040407360759	5.217287969911299	1.241192183244032	-0.7201596052691296	3470.625641025641	3627.838827838828	0.1871794871794872	0.5913705583756345	0.099601593625498
11046.90551757813	-3.953401834157584	-32.50706414750083	4.659816584241609	4.517531999580322	1.980981236999509	-1.063151250944965	3482.276923076923	3626.373626373626	0.1884615384615385	0.5951776649746192	0.08764940239043824
11066.43676757813	-3.989996959075559	-33.01010307133368	5.000304092444102	4.85070343310902	1.627624508711724	-1.454053082196692	3482.276923076923	3629.304029304029	0.1897435897435897	0.5786802030456852	0.08632138114209827
11085.96801757813	-3.312663049567068	-33.51421031993726	4.73369504329316	4.827865520770513	0.1482227981138394	-1.722182923280972	3477.907692307692	3623.443223443223	0.1807692307692308	0.5875634517766497	0.09296148738379813
11105.49926757813	-3.192028222733558	-33.13143611042372	4.797177726644284	5.183312356481599	-0.2271843282938836	-1.363221215746507	3485.189743589744	3627.838827838828	0.2012820512820513	0.5862944162436548	0.08632138114209827
11125.03051757813	-3.988442640408838	-33.89628831780246	5.155735959116186	4.491206524273865	-1.372479309730662	-0.8228469122501296	3485.189743589744	3627.838827838828	0.1923076923076923	0.5913705583756345	0.102257636122178
11144.56176757813	-3.944368318738127	-33.09311107499757	5.563168126187283	4.505269278176887	-1.010897781376167	-0.474615624934237	3477.907692307692	3627.838827838828	0.182051282051282	0.581218274111675	0.08366533864541832
11164.09301757813	-3.945984194579768	-34.05301750193596	5.401580542023236	3.805513307845908	-0.2711087276206904	-0.8176072706100722	3480.820512820513	3627.838827838828	0.1807692307692308	0.58248730964467	0.09561752988047809
11183.62426757813	-3.390470087521992	-33.97716367314125	4.952991247800869	5.228425671002491	1.230166984184063	-0.3452278358760332	3454.605128205128	3621.978021978022	0.1858974358974359	0.583756345177665	0.09163346613545816
11203.15551757813	-3.752005224973008	-33.04893626123879	4.799477502699281	4.167935269492893	3.101601818236159	-1.475513922633838	3489.558974358974	3626.373626373626	0.2025641025641026	0.5888324873096447	0.09694555112881806
11222.68676757813	-3.946861384322372	-32.85982384798825	5.313861567762753	4.521019562548271	3.855040073131796	-1.571585430724081	3489.558974358974	3632.234432234432	0.1884615384615385	0.5926395939086294	0.09827357237715803
11242.21801757813	-4.386880688652427	-33.70155819676874	5.311931134757273	4.870616292635699	2.734419491895145	-1.159222759035207	3474.994871794872	3624.908424908425	0.1833333333333333	0.583756345177665	0.100929614873838
11261.74926757813	-3.82984304151539	-33.43493545114637	5.015695848461009	5.209075321631935	1.624824109718465	-1.12179185673943	3463.343589743589	3626.373626373626	0.1884615384615385	0.58248730964467	0.07702523240371846
11281.28051757813	-3.424079689456364	-32.94475643672599	5.592031054363602	5.197937620540741	1.635849308778434	-1.496723626132526	3476.451282051281	3627.838827838828	0.1961538461538462	0.5926395939086294	0.09030544488711818
11300.81176757813	-3.796448889693236	-33.92866354448675	4.355111030676402	5.186237409293427	0.1454223991205799	-1.389921697823711	3485.189743589744	3627.838827838828	0.1923076923076923	0.5799492385786802	0.09428950863213811
11320.34301757813	-3.788107892491625	-32.78324179781423	5.189210750837485	5.541684245004514	-0.2299847272871432	-1.030959990289245	3480.820512820513	3626.373626373626	0.1884615384615385	0.5901015228426395	0.08100929614873838
11339.87426757813	-3.462813926202797	-34.09948101145825	5.718607379720357	5.552821946095707	-0.2410099263471122	-0.6560282208961484	3469.169230769231	3626.373626373626	0.191025641025641	0.5761421319796954	0.09030544488711818
11359.40551757813	-4.465534137762496	-34.04827205932141	5.446586223750481	5.54753435062817	0.5152287275417837	-1.084360954443653	3492.471794871794	3629.304029304029	0.191025641025641	0.5926395939086294	0.09163346613545816
11378.93676757813	-4.309258322222263	-32.77687986378628	5.074167777773673	5.214362917099471	0.8685854558295687	-0.6934591231919257	3479.364102564102	3629.304029304029	0.1794871794871795	0.581218274111675	0.102257636122178
11398.46801757813	-4.034132837921189	-33.65937198754575	4.586716207881041	5.236638319281857	0.8465350577096307	0.05640441559426712	3476.451282051281	3626.373626373626	0.1884615384615385	0.5875634517766497	0.08897742363877821
11417.99926757813	-4.144918516767559	-32.66747845191092	5.508148323244112	5.567447210154849	1.622023710725205	-0.7895306312821679	3485.189743589744	3629.304029304029	0.191025641025641	0.583756345177665	0.08233731739707835
11437.53051757813	-3.46386039817643	-33.48303945938027	5.613960182356974	5.197937620540741	1.635849308778434	-1.496723626132526	3491.015384615384	3629.304029304029	0.1846153846153846	0.581218274111675	0.08897742363877821
11457.06176757813	-4.184068264444699	-33.78332182214162	5.593173555530111	5.209075321631935	1.624824109718465	-1.12179185673943	3488.102564102564	3627.838827838828	0.1961538461538462	0.583756345177665	0.08764940239043824
11476.59301757813	-3.715148482061624	-32.20000772542545	4.485151793837634	5.220213022723128	1.613798910658496	-0.7468600873463335	3493.928205128205	3629.304029304029	0.1794871794871795	0.5862944162436548	0.1049136786188579
11496.12426757813	-3.859728434367124	-32.71398197359689	6.027156563287546	5.919968993054106	0.8740098569030186	-0.4038684416704982	3467.71282051282	3620.51282051282	0.191025641025641	0.5939086294416244	0.09296148738379813
11515.65551757813	-2.874413514015953	-32.24761158161311	4.558648598404684	5.551021913596119	2.38928756367407	-1.592795134222769	3498.297435897436	3627.838827838828	0.1871794871794872	0.5926395939086294	0.09163346613545816
11535.18676757813	-3.947076834434591	-33.32114470491337	5.292316556540881	5.206150268820106	1.252217382304001	-1.095091374662226	3492.471794871794	3632.234432234432	0.1884615384615385	0.5926395939086294	0.09030544488711818
11554.71801757813	-4.147550085995373	-33.08789749006775	5.244991400462663	5.563959647186899	-0.2520351254070812	-0.281096451503052	3466.25641025641	3617.582417582417	0.1987179487179487	0.5799492385786802	0.099601593625498
11574.24926757813	-4.071004970126303	-32.46982344171089	4.899502987369698	5.208512811475814	0.1233720010006418	-0.6400581590375178	3492.471794871794	3629.304029304029	0.1858974358974359	0.5901015228426395	0.09561752988047809
11593.78051757813	-3.429281270737074	-32.93950283963248	5.071872926292669	4.531032243327222	0.8411106566361808	-0.2331862659271602	3474.994871794872	3620.51282051282	0.191025641025641	0.5901015228426395	0.09561752988047809
11613.31176757813	-3.388823433092891	-33.09421140949926	5.117656690710899	4.531032243327222	0.8411106566361808	-0.2331862659271602	3488.102564102564	3626.373626373626	0.182051282051282	0.5799492385786802	0.09827357237715803
11632.84301757813	-3.616996797795761	-33.60375631114935	6.300320220423931	3.816651008937102	-0.2821339266806595	-0.4426755012169758	3488.102564102564	3630.769230769231	0.1897435897435897	0.5913705583756345	0.08632138114209827
11652.37426757813	-3.901679033503108	-33.82699648385417	5.832096649689198	4.880628973414651	-0.2795099246004691	0.1791764057617135	3467.71282051282	3627.838827838828	0.1871794871794872	0.5850253807106599	0.1035856573705179
11671.90551757813	-4.584076020648739	-32.66392937299093	5.592397935126123	4.145097357154386	1.622200107638274	-1.743643763718119	3491.015384615384	3626.373626373626	0.1923076923076923	0.5862944162436548	0.09561752988047809
11691.43676757813	-3.14910809809259	-33.44247774400341	5.089190190741062	4.88119148357077	1.221942184117353	-0.3025572919401986	3466.25641025641	3620.51282051282	0.1935897435897436	0.5888324873096447	0.102257636122178
11710.96801757813	-3.265233861863238	-33.09903687644121	5.47661381367628	5.222575565378834	0.4849535293551363	-0.2918268717216253	3472.082051282051	3624.908424908425	0.1897435897435897	0.5850253807106599	0.09163346613545816
11730.49926757813	-4.426707565253683	-33.12440997447839	5.329243474631672	4.866566219511628	-0.6410914529549635	-0.169054881554179	3470.625641025641	3621.978021978022	0.1935897435897436	0.5875634517766497	0.09827357237715803
11750.03051757813	-4.143318030219649	-32.6690949433243	5.668196978035168	4.499981682709351	-0.2546591274872715	-0.9029483584817413	3488.102564102564	3627.838827838828	0.1884615384615385	0.583756345177665	0.08764940239043824
11769.56176757813	-4.26049026596393	-32.70921252368412	5.950973403607003	4.489406491774278	1.25781818029052	-1.75961382557675	3479.364102564102	3620.51282051282	0.1923076923076923	0.5901015228426395	0.102257636122178
11789.09301757813	-3.58820404479885	-32.59283699167624	5.179595520115037	4.845978347797605	3.885315271318443	-2.364119513446108	3488.102564102564	3626.373626373626	0.1974358974358974	0.5888324873096447	0.08632138114209827
11808.62426757813	-3.547853932210777	-32.47820599000557	5.21460677892233	4.853628485920848	2.000231236126188	-1.480753564273896	3470.625641025641	3627.838827838828	0.191025641025641	0.583756345177665	0.09030544488711818
11828.15551757813	-3.535711779457879	-32.83662341043984	6.428822054212173	4.128109550439535	0.8880118518693163	-2.065174568956808	3485.189743589744	3619.047619047619	0.1923076923076923	0.5875634517766497	0.08764940239043824
11847.68676757813	-4.384233730130884	-32.31961624026012	5.576626986911712	4.494694087241814	0.5015795264016244	-1.331281092029246	3482.276923076923	3629.304029304029	0.1987179487179487	0.5901015228426395	0.08897742363877821
11867.21801757813	-3.66485688572403	-32.94157146849565	5.514311427597066	5.186237409293427	0.1454223991205799	-1.389921697823711	3472.082051282051	3627.838827838828	0.1948717948717949	0.58248730964467	0.09827357237715803
