Time Stamp	Accelerometer X	Accelerometer Y	Accelerometer Z	Gyroscope X	Gyroscope Y	Gyroscope Z	VSenseReg	VSenseBatt	Magnetometer X	Magnetometer Y	Magnetometer Z
580.108642578125	-14.80769230769231	-32.72914485434501	1.264935024943032	-78.43106777071404	-5.858672104205946	-11.51917400251859	3560.923076923077	3702.564102564103	0.4191980558930741	0.5182481751824818	0.08322324966974901
599.639892578125	-15.53846153846154	-32.7123544989838	1.15618648765166	-2.208652368665357	-0.3783681442519066	1.242792638162502	3512.861538461538	3630.769230769231	0.4228432563791008	0.5218978102189781	0.05680317040951123
619.171142578125	-15.26923076923077	-32.54293434747798	0.1082558354375809	0.386549282358614	-0.05250061498083854	-2.045206825504006	3496.841025641026	3619.047619047619	0.4179829890643985	0.5328467153284672	0.07133421400264201
638.702392578125	-15.53846153846154	-31.82472131551395	1.00529654492825	0.8276925872427446	-1.935970843828456	-1.660289695535202	3488.102564102564	3620.51282051282	0.4131227217496962	0.5267639902676399	0.06605019815059446
658.233642578125	-15.23076923076923	-31.70995257744657	0.7283981030978628	0.3940370547452343	-0.5141393762281589	-1.641734825534224	3511.405128205128	3624.908424908425	0.4094775212636695	0.5255474452554745	0.06472919418758256
677.764892578125	-15.30769230769231	-32.36510747059186	0.8707581449775204	0.3918574389260598	-1.914641091092622	-1.247554781218554	3486.646153846154	3619.047619047619	0.4216281895504253	0.5279805352798054	0.06869220607661823
697.296142578125	-15.11538461538462	-31.7214771817454	1.189243702654431	0.8523355202217801	-1.920385412705953	-0.8440537399415221	3485.189743589744	3623.443223443223	0.4094775212636695	0.5279805352798054	0.07529722589167767
716.827392578125	-15.07692307692308	-31.79229537476135	0.8455379688366076	2.216614603516526	-2.414842569915769	-0.04631457173432295	3469.169230769231	3624.908424908425	0.4094775212636695	0.5340632603406327	0.07529722589167767
736.358642578125	-15.69230769230769	-32.06109502987005	1.439366878117879	0.8523355202217801	-1.920385412705953	-0.8440537399415221	3496.841025641026	3627.838827838828	0.4228432563791008	0.5267639902676399	0.06208718626155878
755.889892578125	-15.53846153846154	-32.2119541787276	1.136170474841412	0.8743243749170926	-0.9737297435275588	-0.4266438064905689	3501.210256410256	3624.908424908425	0.425273390036452	0.5291970802919708	0.0726552179656539
775.421142578125	-15.88461538461539	-32.37138172076123	1.76139373036891	0.8743243749170926	-0.9737297435275588	-0.4266438064905689	3498.297435897436	3624.908424908425	0.425273390036452	0.5425790754257908	0.06737120211360634
794.952392578125	-15.46153846153846	-31.86396809755497	0.9676356469791219	1.27850328033267	-2.88057811905893	-1.266080609912283	3486.646153846154	3617.582417582417	0.4009720534629404	0.5194647201946472	0.06737120211360634
814.483642578125	-16.57692307692308	-32.11747089979676	1.296621912914947	1.280682896151845	-1.480076404194467	-1.660260654227953	3483.733333333333	3621.978021978022	0.4155528554070473	0.5328467153284672	0.07001321003963013
834.014892578125	-15.96153846153846	-32.47609626162468	1.304813081234218	2.19633090217584	0.3705754286906554	-1.650910615959341	3489.558974358974	3624.908424908425	0.4155528554070473	0.5328467153284672	0.059445178335535
853.546142578125	-15.19230769230769	-32.10718574859887	1.320825891482417	2.651975289368662	-0.1046003697312472	-1.252055552509366	3473.538461538461	3621.978021978022	0.4106925880923451	0.5316301703163017	0.06869220607661823
873.077392578125	-15.30769230769231	-33.11108887109688	1.631366631766952	2.194151286356665	-1.029926286173808	-1.256730571643672	3486.646153846154	3621.978021978022	0.4094775212636695	0.5291970802919708	0.06605019815059446
892.608642578125	-15.65384615384616	-32.04338085853298	0.5151967728028577	3.519286354363683	-2.948263304931841	-1.289165292511322	3482.276923076923	3623.443223443223	0.4094775212636695	0.5267639902676399	0.0607661822985469
912.139892578125	-15.92307692307692	-31.93488637063497	1.128933916363861	2.632640512957072	-1.982326276965533	-1.270639463817593	3492.471794871794	3621.978021978022	0.4155528554070473	0.5218978102189781	0.06869220607661823
931.671142578125	-15.53846153846154	-31.90478536675494	1.162345260824044	2.622498662286729	-0.5896172776623212	-2.072937485930102	3496.841025641026	3619.047619047619	0.4106925880923451	0.5267639902676399	0.0607661822985469
951.202392578125	-16	-32.33214263718667	-0.0851758329740715	3.08297674358245	-0.5953615992756522	-1.669436444653071	3474.994871794872	3616.117216117216	0.4179829890643985	0.5182481751824818	0.08322324966974901
970.733642578125	-15.19230769230769	-32.2549963047361	1.019046006035598	2.651975289368662	-0.1046003697312472	-1.252055552509366	3470.625641025641	3620.51282051282	0.4106925880923451	0.5364963503649636	0.06340819022457067
990.264892578125	-15.34615384615385	-31.04559801687504	0.3183623822134631	1.282862511971019	-0.079574689330003	-2.054440698543622	3491.015384615384	3616.117216117216	0.4155528554070473	0.5316301703163017	0.0607661822985469
1009.796142578125	-15.65384615384616	-32.0341426987744	0.05328878487405309	1.728839510958047	-1.493613441369049	-1.66487759074776	3477.907692307692	3621.978021978022	0.4264884568651275	0.5255474452554745	0.06208718626155878
1029.327392578125	-15.61538461538462	-32.16962801010039	1.019862043480939	1.282862511971019	-0.079574689330003	-2.054440698543622	3493.928205128205	3617.582417582417	0.4143377885783718	0.5231143552311436	0.06340819022457067
1048.858642578125	-15.84615384615385	-31.82786228983187	1.470037568516352	1.292529900176814	0.85928826428714	-2.045148742889508	3485.189743589744	3619.047619047619	0.4094775212636695	0.5291970802919708	0.06737120211360634
1068.389892578125	-15.19230769230769	-32.54445864383815	2.03062449959968	2.188843129789219	0.8322141899379756	-2.054382615929124	3483.733333333333	3620.51282051282	0.4228432563791008	0.5267639902676399	0.05812417437252312
1087.921142578125	-15.65384615384616	-33.13040432345877	1.020216172938351	1.726185432674324	-0.5625432033131568	-2.063703612890487	3489.558974358974	3617.582417582417	0.4143377885783718	0.5218978102189781	0.06605019815059446
1107.452392578125	-15.80769230769231	-31.69852035474533	0.7337100449590441	2.625152740570452	-1.520687515718213	-1.674111463787376	3472.082051282051	3621.978021978022	0.4179829890643985	0.5279805352798054	0.0726552179656539
1126.983642578125	-15.30769230769231	-32.0594783519123	0.9739175956149535	1.718697660287704	-0.1009044420658365	-2.46717561286027	3505.579487179487	3621.978021978022	0.4106925880923451	0.5291970802919708	0.06869220607661823
1146.514892578125	-14.73076923076923	-32.15251431914762	1.202639034304367	2.19633090217584	0.3705754286906554	-1.650910615959341	3480.820512820513	3624.908424908425	0.4204131227217496	0.5304136253041363	0.07001321003963013
1166.046142578125	-15.42307692307692	-31.90322257806245	0.9688212108148058	1.760495753859155	0.3919051814264888	-1.238175701642694	3483.733333333333	3623.443223443223	0.4119076549210206	0.5194647201946472	0.06605019815059446
1185.577392578125	-15	-32.17258422122313	0.5522879842335406	2.66429675585818	-0.09680765416999591	-0.8439375747125265	3485.189743589744	3620.51282051282	0.4204131227217496	0.524330900243309	0.06472919418758256
1205.108642578125	-15.5	-32.54605992486297	0.4953039354560572	1.755662059756257	-0.07752629538208272	-1.24282167946975	3501.210256410256	3624.908424908425	0.4143377885783718	0.5291970802919708	0.07001321003963013
1224.639892578125	-15.26923076923077	-32.41283026421137	1.295359364414608	2.21130644694908	-0.5527020938039853	-0.8439666160197754	3496.841025641026	3623.443223443223	0.425273390036452	0.5218978102189781	0.06472919418758256
1244.171142578125	-15.65384615384616	-33.17813481554475	1.483663854160251	1.743340593266739	-0.08531901094333398	-1.65093965726659	3492.471794871794	3621.978021978022	0.4179829890643985	0.5267639902676399	0.06737120211360634
1263.702392578125	-15.42307692307692	-32.44519461723225	1.144346246227752	3.112453370664383	-0.1103446913445781	-0.8485545112323344	3479.364102564102	3623.443223443223	0.4155528554070473	0.5291970802919708	0.0607661822985469
1283.233642578125	-15	-31.91391574798301	1.080402783765474	2.21130644694908	-0.5527020938039853	-0.8439666160197754	3499.753846153846	3623.443223443223	0.4106925880923451	0.5291970802919708	0.07001321003963013
1302.764892578125	-14.46153846153846	-32.3934224302519	1.44035228182546	2.235949379928115	-0.5371166626814827	-0.02773066042609598	3493.928205128205	3630.769230769231	0.402187120291616	0.5316301703163017	0.06605019815059446
1322.296142578125	-15.57692307692308	-32.08878641374638	0.7854745334729323	3.142404460210864	-1.956899736333859	0.7653334886467975	3479.364102564102	3627.838827838828	0.4131227217496962	0.5340632603406327	0.06472919418758256
1341.827392578125	-15.15384615384616	-32.27500461907988	1.981000184763195	2.688939688837215	-0.08122222304749339	-0.02770161911884709	3499.753846153846	3626.373626373626	0.4009720534629404	0.5170316301703163	0.06869220607661823
1361.358642578125	-15.57692307692308	-32.2527637494611	1.292033626901521	2.233295301644393	0.3939535753744091	-0.4265566825688222	3495.384615384615	3624.908424908425	0.4131227217496962	0.5328467153284672	0.06472919418758256
1380.889892578125	-15.57692307692308	-32.24275574305598	0.7916333066453163	2.206472752846183	-1.022133570612557	-0.8486125938468322	3502.666666666666	3623.443223443223	0.416767922235723	0.5304136253041363	0.06737120211360634
1400.421142578125	-15.23076923076923	-32.2011147379442	0.2865061279793064	2.654629367652385	-1.035670607787139	-0.8532295303666401	3498.297435897436	3624.908424908425	0.4119076549210206	0.5279805352798054	0.06605019815059446
1419.952392578125	-14.92307692307692	-32.72223932992548	1.035043419350865	2.67927230063142	-1.020085176664637	-0.03699357477296057	3485.189743589744	3624.908424908425	0.4191980558930741	0.5194647201946472	0.06605019815059446
1439.483642578125	-15.46153846153846	-32.37514627086285	1.526544312372975	1.7658039104266	-1.470235294685295	-0.4405236573572414	3499.753846153846	3624.908424908425	0.4106925880923451	0.5206812652068127	0.06869220607661823
1459.014892578125	-15.30769230769231	-33.35590010469915	0.410389850341812	2.204293137027008	-2.42263528547702	-0.4544325495311627	3472.082051282051	3620.51282051282	0.4131227217496962	0.5170316301703163	0.0607661822985469
1478.546142578125	-15.19230769230769	-32.10564605530578	1.243841226827616	2.659463061755282	-0.5662391309785675	-0.8485835525395833	3482.276923076923	3623.443223443223	0.4034021871202916	0.5121654501216545	0.07133421400264201
1498.077392578125	-15.26923076923077	-31.26498891420829	1.595599556568331	2.213486062768255	0.8477996210604781	-1.238146660335445	3498.297435897436	3623.443223443223	0.4119076549210206	0.537712895377129	0.06737120211360634
1517.608642578125	-15.61538461538462	-32.09187349879904	0.9782903245673462	2.198984980459562	-0.5604948093652366	-1.252084593816615	3496.841025641026	3621.978021978022	0.4301336573511543	0.5316301703163017	0.06208718626155878
1537.139892578125	-15.38461538461539	-32.47983001786044	0.9145778160990332	1.753482443937083	-1.478028010246546	-0.8486416351540811	3499.753846153846	3623.443223443223	0.4119076549210206	0.5267639902676399	0.0607661822985469
1556.671142578125	-14.96153846153846	-31.7353036275174	1.726719837408388	2.213960525232803	-1.483772331859877	-0.4451405938770492	3486.646153846154	3621.978021978022	0.4106925880923451	0.5182481751824818	0.06472919418758256
1576.202392578125	-15.84615384615385	-32.07190367678759	0.2105684547638111	2.223627913438598	-0.544909378242734	-0.4358486382229357	3488.102564102564	3626.373626373626	0.416767922235723	0.51338199513382	0.06340819022457067
1595.733642578125	-15.5	-32.23427203301102	0.290524727474287	1.77765091445157	0.8691293737963116	-0.8254117460187974	3489.558974358974	3623.443223443223	0.4106925880923451	0.5218978102189781	0.06605019815059446
1615.264892578125	-15.53846153846154	-32.13573936071934	1.17158342058262	1.326840221361644	1.813736649026786	-1.219620831641716	3498.297435897436	3623.443223443223	0.4034021871202916	0.5279805352798054	0.07001321003963013
1634.796142578125	-15.38461538461539	-31.57141097493379	-0.2756050994641868	1.770637604529498	-1.000803817876723	-0.4358776795301846	3474.994871794872	3621.978021978022	0.4277035236938031	0.5206812652068127	0.06472919418758256
1654.327392578125	-15.42307692307692	-32.69539477736035	0.1928157910944139	1.307505444950055	-0.06398925820750048	-1.238204742949943	3492.471794871794	3621.978021978022	0.4155528554070473	0.5206812652068127	0.05812417437252312
1673.858642578125	-15.80769230769231	-31.8501801441153	0.6243918211492272	1.312339139052952	0.4054422186010711	-1.233558765122886	3496.841025641026	3621.978021978022	0.4046172539489671	0.5231143552311436	0.07133421400264201
1693.389892578125	-15.46153846153846	-31.77004680667611	0.1177249491901213	1.304851366666332	0.8670809798483913	-1.637030765092669	3491.015384615384	3624.908424908425	0.416767922235723	0.5291970802919708	0.05284015852047556
1712.921142578125	-15.26923076923077	-32.40975087762518	1.141390035105007	0.8443732853706114	0.8728253014617224	-2.040531806369701	3493.928205128205	3619.047619047619	0.4106925880923451	0.5255474452554745	0.06605019815059446
1732.452392578125	-15.46153846153846	-32.04642175278685	0.4749337931883969	2.159840965171834	-1.984374670913454	-2.082258482891465	3476.451282051281	3620.51282051282	0.402187120291616	0.5340632603406327	0.07001321003963013
1751.983642578125	-16.03846153846154	-31.8840995873622	0.6280562911867957	0.8127170424695041	-1.012693321333815	-2.467233695474767	3495.384615384615	3620.51282051282	0.4143377885783718	0.5231143552311436	0.06605019815059446
1771.514892578125	-15.23076923076923	-31.22033011024204	1.24727474287122	-0.5172517196404114	0.4362122206156462	-2.439444952434174	3493.928205128205	3620.51282051282	0.4082624544349939	0.5206812652068127	0.07001321003963013
1791.046142578125	-15.73076923076923	-31.89173646609595	0.7022079201822998	0.4138462936213723	-0.9679854219142279	-0.8301448477676008	3474.994871794872	3620.51282051282	0.4131227217496962	0.5279805352798054	0.06737120211360634
1810.577392578125	-15.57692307692308	-31.58684640019708	0.6884738560078832	0.8373599754485395	-0.9971078902113126	-1.650997739881088	3496.841025641026	3620.51282051282	0.4046172539489671	0.5291970802919708	0.07529722589167767
1830.108642578125	-16.65384615384615	-31.50083913284474	1.311187411467636	0.7762271054654992	-3.367643420937924	-2.898581562406891	3488.102564102564	3617.582417582417	0.4155528554070473	0.5206812652068127	0.05812417437252312
1849.639892578125	-16.88461538461539	-31.68718821210815	1.244025990022788	-0.150037213693387	-1.494014301599479	-4.503235689246407	3504.123076923077	3616.117216117216	0.4204131227217496	0.5255474452554745	0.07397622192866579
1869.171142578125	-16.80769230769231	-31.8488406109503	1.557415162899551	0.3626625778051082	8.327131527522187	-5.634641024788543	3483.733333333333	3610.25641025641	0.4058323207776428	0.5279805352798054	0.059445178335535
1888.702392578125	-17.15384615384615	-31.93513272156187	2.372020693477859	0.4109995188340824	13.0214462956079	-5.588181246517975	3463.343589743589	3610.25641025641	0.4216281895504253	0.5206812652068127	0.059445178335535
1908.233642578125	-16.92307692307692	-32.66028207181129	3.783334359795529	0.8533735146082908	17.20162168746546	-7.183456293781632	3499.753846153846	3607.326007326007	0.4155528554070473	0.5316301703163017	0.07001321003963013
1927.764892578125	-16.34615384615385	-32.44076030054813	3.768784258175772	3.547146897548404	17.58983094122654	-7.206511935073422	3470.625641025641	3605.860805860806	0.4143377885783718	0.5279805352798054	0.07529722589167767
1947.296142578125	-16.19230769230769	-32.82334329001663	3.51331834698528	5.741298183905069	16.55990465505273	-8.463242506717092	3466.25641025641	3601.465201465201	0.4143377885783718	0.5316301703163017	0.06737120211360634
1966.827392578125	-15.76923076923077	-32.89100511178173	4.550255589086654	7.967105713162842	17.41549699167446	-9.293271189255698	3472.082051282051	3600	0.4264884568651275	0.5267639902676399	0.07001321003963013
1986.358642578125	-15.92307692307692	-32.52304920859766	3.613998891420829	10.19556732070434	17.3400190902403	-9.724473849651577	3482.276923076923	3600	0.4204131227217496	0.5255474452554745	0.0845442536327609
2005.889892578125	-16.65384615384615	-32.79033226581265	4.247382521401737	12.47767402584225	20.09671548078007	-9.311564687491437	3483.733333333333	3602.930402930403	0.4179829890643985	0.5182481751824818	0.07397622192866579
2025.421142578125	-17.38461538461539	-32.47407156494427	4.549732093367002	14.76461442508307	23.32284334812841	-8.894009547504238	3482.276923076923	3604.395604395604	0.4179829890643985	0.5328467153284672	0.08190224570673713
2044.952392578125	-16.88461538461539	-32.6902983925602	5.245688858779332	19.23120502837185	24.11075049887723	-9.747122912641883	3463.343589743589	3600	0.4131227217496962	0.5316301703163017	0.08982826948480846
2064.483642578125	-17.42307692307692	-33.02221007575291	5.072042249183962	21.82688114186037	22.10504607522794	-12.24211630985	3544.902564102564	3696.703296703297	0.4143377885783718	0.5291970802919708	0.08586525759577279
2084.014892578125	-17.46153846153846	-33.29474348709737	5.275635893330049	23.53591141394228	21.06527867954496	-14.71858387836438	3559.466666666666	3695.238095238095	0.4131227217496962	0.5316301703163017	0.1003963011889036
2103.546142578125	-17.38461538461539	-33.32013302950053	6.468189936564636	28.91815002325506	23.7038376631789	-15.56234720523341	3536.164102564102	3690.84249084249	0.4131227217496962	0.5182481751824818	0.09511228533685601
2123.077392578125	-17	-32.39393052903862	5.927295682700006	32.86360413772962	19.79538165189408	-17.27353936771549	3524.51282051282	3684.981684981685	0.4289185905224787	0.51338199513382	0.1030383091149273
2142.608642578125	-16.96153846153846	-32.90202161729383	6.293388556999446	35.42762400831704	15.90415860544926	-20.19523465402868	3543.446153846154	3679.120879120879	0.4216281895504253	0.524330900243309	0.1122853368560106
2162.139892578125	-17.15384615384615	-31.50170905955534	5.700837593151444	39.37042404450789	12.92677283222033	-22.30525283865348	3534.707692307692	3674.725274725275	0.4325637910085055	0.5158150851581509	0.1175693527080581
2181.671142578125	-17.11538461538462	-31.6672183900967	6.245534889450022	42.43406601167875	10.45368532571039	-23.99327319461478	3520.14358974359	3670.32967032967	0.4301336573511543	0.5218978102189781	0.11889035667107
2201.202392578125	-17.96153846153846	-30.21160774773665	5.465002771447928	44.20204953792452	10.38395174588956	-24.82797689628769	3508.492307692307	3667.399267399267	0.4301336573511543	0.5097323600973236	0.1360634081902246
2220.733642578125	-19.76923076923077	-30.96718913592413	6.590226026975426	42.41814154197641	16.04010675404574	-26.38622932747114	3531.794871794872	3668.864468864469	0.4410692588092345	0.4951338199513382	0.1505944517833553
2240.264892578125	-19.34615384615385	-30.32659204286506	6.829602143253064	42.05964549930609	23.57234013571872	-25.89915876792159	3518.687179487179	3668.864468864469	0.4325637910085055	0.4963503649635037	0.1479524438573316
2259.796142578125	-18.5	-31.29258021802057	8.129010901028515	43.49112183757685	31.98149560674926	-25.82938197659399	3520.14358974359	3668.864468864469	0.44228432563791	0.5	0.1558784676354029
2279.327392578125	-19.23076923076923	-30.70918273080002	8.536059616924309	43.06495407746596	32.94168831310224	-25.40735510662323	3508.492307692307	3667.399267399267	0.4544349939246658	0.4987834549878346	0.1585204755614267
2298.858642578125	-20.03846153846154	-30.85099618156063	10.66519369341627	44.90591747771974	37.58185493248963	-25.37936307443189	3530.338461538461	3670.32967032967	0.4483596597812879	0.4939172749391728	0.1677675033025099
2318.389892578125	-21.73076923076923	-30.53569778900043	11.97719714232925	50.38312481573585	45.87696978451018	-24.94302073398572	3531.794871794872	3664.468864468864	0.4629404617253949	0.4829683698296837	0.1809775429326288
2337.921142578125	-19.34615384615385	-31.58375161667795	11.9952731415902	56.68631958764006	48.50404012491746	-24.97978197830069	3521.6	3661.538461538461	0.4471445929526123	0.4914841849148419	0.1981505944517834
2357.452392578125	-17.15384615384615	-31.49093120650367	10.93117570979861	63.75920261755226	43.56196189979342	-26.73258465207554	3507.035897435897	3657.142857142857	0.4520048602673147	0.489051094890511	0.202113606340819
2376.983642578125	-17.5	-30.49712847200837	11.58719283118803	67.04940749922159	27.87670699654014	-31.41213516829212	3527.425641025641	3658.608058608058	0.4507897934386391	0.475669099756691	0.2113606340819023
2396.514892578125	-18.07692307692308	-29.26164008129581	10.00508098786722	64.62086658360309	18.03178216050429	-34.34344186463915	3517.230769230769	3648.351648351648	0.456865127582017	0.475669099756691	0.2324966974900925
2416.046142578125	-18.88461538461539	-28.62128933916364	11.48754388125886	65.58703114647523	25.97725047633959	-34.68181209241563	3505.579487179487	3649.81684981685	0.456865127582017	0.4720194647201947	0.2364597093791281
2435.577392578125	-18.65384615384615	-27.99227843813512	12.49853729137156	64.2544083060816	28.35722625634494	-35.05284937151777	3511.405128205128	3643.956043956044	0.4617253948967193	0.4647201946472019	0.2589167767503303
2455.108642578125	-17.65384615384615	-27.37774065406171	11.5408788569317	65.57688929580489	27.3699594756428	-35.48411011452815	3511.405128205128	3645.421245421245	0.4617253948967193	0.4501216545012166	0.2655217965653897
2474.639892578125	-17.65384615384615	-27.70569532549116	12.55399704378888	68.75360407720058	26.36750812404859	-33.89324871463356	3505.579487179487	3648.351648351648	0.4629404617253949	0.440389294403893	0.2589167767503303
2494.171142578125	-18.61538461538462	-26.94912853359611	12.22565744903615	70.0567502905123	23.50251543611216	-34.34309336895216	3521.6	3649.81684981685	0.4726609963547995	0.4318734793187348	0.285336856010568
2513.702392578125	-19	-25.38487713247521	13.24385662376055	70.46405773667613	18.33302486960454	-33.99069808377276	3496.841025641026	3645.421245421245	0.473876063183475	0.4245742092457421	0.3025099075297226
2533.233642578125	-19.19230769230769	-24.39335314405371	13.85996489499292	69.59191297757822	20.70725632799656	-33.95823432159786	3486.646153846154	3645.421245421245	0.4787363304981774	0.4111922141119221	0.3025099075297226
2552.764892578125	-19.15384615384615	-24.42721869803535	13.5917041325368	65.60684038535136	25.52340443065352	-33.87022211464902	3517.230769230769	3648.351648351648	0.4799513973268529	0.3905109489051095	0.3210039630118891
2572.296142578125	-18.38461538461539	-23.94745026790663	13.83405185687011	65.71896427464712	31.65718449140995	-32.17735249170992	3504.123076923077	3652.747252747252	0.4799513973268529	0.4038929440389295	0.3170409511228534
2591.827392578125	-19.23076923076923	-23.23859087269816	15.77569748106177	63.08584929922549	35.97108272129584	-31.69971909435072	3527.425641025641	3652.747252747252	0.4775212636695018	0.3819951338199514	0.3302509907529723
2611.358642578125	-18.23076923076923	-21.62633183469853	14.93197635031102	61.36013832901571	34.20205397168865	-28.84300941500184	3521.6	3660.07326007326	0.4823815309842041	0.3832116788321168	0.3434610303830912
2630.889892578125	-18.57692307692308	-22.84583820902876	16.63806429759192	60.11859944815159	37.10601023743133	-26.35257487169904	3539.076923076923	3671.794871794872	0.4848116646415552	0.3673965936739659	0.35667107001321
2650.421142578125	-18.88461538461539	-22.45789708690029	16.77946972962986	62.49131565035448	42.71825906662879	-23.87119995359236	3525.969230769231	3670.32967032967	0.4848116646415552	0.3613138686131387	0.3698811096433289
2669.952392578125	-18.19230769230769	-22.33304335776313	17.53678327277206	63.88507136073117	42.70881881735004	-22.25257885196442	3512.861538461538	3668.864468864469	0.4787363304981774	0.3661800486618005	0.3672391017173052
2689.483642578125	-18.34615384615385	-21.53859241239145	16.42962061957258	64.29891765435254	41.74083339543581	-23.08272369973202	3540.533333333333	3673.260073260073	0.4714459295261239	0.3515815085158151	0.3883751651254954
2709.014892578125	-17.65384615384615	-21.63160528422738	18.46487959598448	65.17589610755334	39.83603341385236	-23.11054148407986	3523.05641025641	3674.725274725275	0.4750911300121506	0.3381995133819952	0.4015852047556143
2728.546142578125	-17.96153846153846	-21.50618186857178	18.27063189012749	65.61125679340549	42.14627561403689	-24.31628246485491	3524.51282051282	3670.32967032967	0.4726609963547995	0.3345498783454988	0.4108322324966975
2748.077392578125	-17.53846153846154	-20.11344460183532	19.36453778407341	66.05192563582507	42.59437733810962	-24.7243714013445	3505.579487179487	3668.864468864469	0.4702308626974483	0.3272506082725061	0.4147952443857332
2767.608642578125	-17.46153846153846	-19.87169735788631	20.66179097123853	66.47761893347142	43.965756584677	-25.93940433777366	3533.251282051282	3668.864468864469	0.4629404617253949	0.3077858880778589	0.429326287978864
2787.139892578125	-16.5	-19.70598786721685	21.03016259161175	68.70655500347745	41.55870673032248	-25.57760093171114	3540.533333333333	3673.260073260073	0.4678007290400972	0.3138686131386861	0.4412153236459709
2806.671142578125	-16.34615384615385	-18.58429050933054	22.48375623575784	70.95795439064335	37.76674059222601	-24.00538152573927	3528.882051282051	3667.399267399267	0.4617253948967193	0.2883211678832117	0.4491413474240423
2826.202392578125	-16.57692307692308	-17.83065683315884	23.4943801194802	72.74887569651355	33.98051877574286	-22.83666316104444	3525.969230769231	3673.260073260073	0.4434993924665856	0.2858880778588808	0.4663143989431968
2845.733642578125	-16.96153846153846	-17.77915409250478	23.22693539446942	75.06045902873338	37.2222320742137	-21.60287206546356	3547.815384615385	3677.655677655677	0.4483596597812879	0.2785888077858881	0.4715984147952444
2865.264892578125	-16.65384615384615	-17.35644669581819	22.93771940629427	77.81053158755364	39.51154538189282	-20.38298986205661	3537.620512820513	3674.725274725275	0.4544349939246658	0.2591240875912409	0.4848084544253633
2884.796142578125	-15.92307692307692	-16.39707150335653	22.31511362936503	79.1603095885397	37.6087937942573	-19.59918862733058	3534.707692307692	3682.051282051282	0.4483596597812879	0.25669099756691	0.4914134742404227
2904.327392578125	-16.07692307692308	-16.4533011024204	23.35736281332758	80.06629020635791	38.52058267352527	-19.59913054471608	3543.446153846154	3680.58608058608	0.4507897934386391	0.2372262773722628	0.4953764861294584
2923.858642578125	-15.30769230769231	-15.08512964217528	23.41032826261009	80.95776974186741	38.02407712236754	-19.61301039558275	3552.184615384615	3682.051282051282	0.4386391251518833	0.2226277372262774	0.5085865257595773
2943.389892578125	-15.38461538461539	-13.53159450637433	24.65664839563959	81.43805706203928	37.56448675506814	-18.3979193765391	3541.989743589743	3686.446886446886	0.4374240583232077	0.2201946472019465	0.5059445178335535
2962.921142578125	-14.92307692307692	-13.11116585576153	24.32752355730738	81.47454699904327	39.91943685467225	-17.96657150960698	3553.641025641025	3684.981684981685	0.4277035236938031	0.2031630170316302	0.5350066050198151
2982.452392578125	-13.61538461538462	-12.05159512225165	23.88744842027468	83.3217674807936	38.03431909210714	-15.55491530021339	3525.969230769231	3686.446886446886	0.4228432563791008	0.1934306569343066	0.5270805812417437
3001.983642578125	-14.34615384615385	-10.99705148734372	23.81411282872452	83.79238741275965	36.63586577119059	-14.34911623682385	3530.338461538461	3690.84249084249	0.4216281895504253	0.1849148418491484	0.5389696169088507
3021.514892578125	-14.65384615384616	-10.46052996243149	24.21880581388188	82.89124048904435	36.19350836873119	-14.34452834161129	3560.923076923077	3693.772893772893	0.4155528554070473	0.1739659367396594	0.5508586525759578
3041.046142578125	-13.5	-9.548800578924679	23.6323366385416	82.96251520969774	37.17133490015458	-12.29464649697298	3453.148717948718	3591.208791208791	0.4070473876063183	0.1532846715328467	0.560105680317041
3060.577392578125	-13.26923076923077	-8.933646917534025	23.41311510747059	82.51217897907236	35.7843702224647	-11.8958495161375	3479.364102564102	3597.069597069597	0.416767922235723	0.1569343065693431	0.5561426684280053
3080.108642578125	-12.30769230769231	-8.255219560263596	23.14559339779516	81.67263938780467	35.38097639781155	-9.850671731940746	3476.451282051281	3600	0.3997569866342648	0.1313868613138686	0.5653896961690885
3099.639892578125	-12.61538461538462	-7.315298392560202	24.53415039724087	81.27860233305941	35.89511577403971	-8.208936906406523	3472.082051282051	3602.930402930403	0.3973268529769137	0.1277372262773723	0.5693527080581242
3119.171142578125	-12.03846153846154	-5.828609041079017	22.69968282318162	79.07478365849696	35.98617910659637	-6.961498290416964	3493.928205128205	3608.791208791209	0.3863912515188335	0.1192214111922141	0.5799207397622193
3138.702392578125	-11.76923076923077	-5.581434378271848	25.4563342982078	79.12406952445502	36.01734996884138	-5.329026379229605	3467.71282051282	3611.721611721612	0.3827460510328068	0.09610705596107057	0.5891677675033025
3158.233642578125	-12.07692307692308	-5.509130381228059	25.99498059986451	78.67325883136509	36.96195724407185	-5.723235464852523	3492.471794871794	3608.791208791209	0.3754556500607533	0.09245742092457421	0.5825627476882431
3177.764892578125	-10.76923076923077	-4.19243086777114	26.16000492701854	80.86741011772176	35.93203095789804	-6.979966036496196	3477.907692307692	3607.326007326007	0.370595382746051	0.08029197080291971	0.5812417437252312
3197.296142578125	-10.73076923076923	-4.588124345630351	26.67544805074829	81.26675532903444	33.5557511055581	-7.824048817744966	3466.25641025641	3604.395604395604	0.3645200486026731	0.05474452554744526	0.6036988110964333
3216.827392578125	-12.34615384615385	-3.207342797314775	26.55944755804644	81.65112499557388	32.1027487757128	-9.475075598933303	3476.451282051281	3601.465201465201	0.3572296476306197	0.05109489051094891	0.5944517833553501
3236.358642578125	-11.11538461538462	-1.623521894438628	26.90686395270062	82.14278485730615	36.31409502981536	-9.437878735009599	3485.189743589744	3602.930402930403	0.3523693803159174	0.0340632603406326	0.6089828269484808
3255.889892578125	-10.53846153846154	-1.344721931391267	27.77455810802488	82.63226510321928	39.12493956905346	-9.006501826770228	3470.625641025641	3601.465201465201	0.3499392466585662	0.0121654501216545	0.6116248348745046
3275.421142578125	-9.807692307692308	-0.5716496273942231	26.85171213894192	82.66610096193956	42.41095990671347	-8.973979981980831	3477.907692307692	3598.534798534799	0.347509113001215	0.008515815085158151	0.5997357992073976
3294.952392578125	-8.923076923076923	-0.3027960830202624	25.98595799716696	83.59937859102051	42.40726397904805	-7.758859921629928	3470.625641025641	3605.860805860806	0.3280680437424058	0	0.6050198150594451
3314.483642578125	-8.538461538461538	0.6796052226396503	26.48127732955595	84.99048022311347	43.3288939678252	-6.539064842144718	3450.235897435897	3604.395604395604	0.3244228432563791	-0.01581508515815085	0.6116248348745046
3334.014892578125	-8.076923076923077	2.112382213463078	25.53473548069225	84.06686998223829	44.27145284910776	-7.744892946841508	3480.820512820513	3604.395604395604	0.3280680437424058	-0.03163017031630171	0.6248348745046235
3353.546142578125	-7.961538461538462	2.87532333559155	25.73383322042249	84.55199099651306	44.28129395861693	-6.525155949970797	3472.082051282051	3608.791208791209	0.3086269744835966	-0.0340632603406326	0.6235138705416117
3373.077392578125	-6.653846153846154	3.493002093982879	24.31143376239453	83.17321083090961	43.36745668540102	-7.336833051659166	3488.102564102564	3607.326007326007	0.3037667071688943	-0.05231143552311435	0.6208718626155878
3392.608642578125	-6.615384615384616	4.185871774342551	24.24487282133399	83.64117668459197	42.90007360254037	-6.529860010412352	3489.558974358974	3611.721611721612	0.2952612393681652	-0.06690997566909976	0.6354029062087186
3412.139892578125	-6.115384615384616	5.718736527683685	24.02471207735419	82.75765938393363	40.60336843953044	-5.3195020931175	3491.015384615384	3614.652014652014	0.2916160388821385	-0.09002433090024331	0.6248348745046235
3431.671142578125	-5.153846153846154	6.671229291125208	23.51545852066269	81.89613093797061	39.25331894569889	-3.691734242371696	3496.841025641026	3620.51282051282	0.2721749696233293	-0.08880778588807786	0.6103038309114928
3451.202392578125	-5.269230769230769	7.552680606023279	23.78904662191291	81.48057949099459	36.48923069982831	-1.67440328383003	3467.71282051282	3617.582417582417	0.2697448359659781	-0.09854014598540146	0.6248348745046235
3470.733642578125	-5.461538461538462	8.685086530763073	23.13028884646178	78.78415202977075	37.03209168412311	-2.050173664680966	3499.753846153846	3623.443223443223	0.2563791008505468	-0.1192214111922141	0.6235138705416117
3490.264892578125	-4.884615384615385	8.667495534889451	23.43291556321981	78.32367394847503	37.03783600573645	-2.453674705957998	3488.102564102564	3620.51282051282	0.2624544349939246	-0.1265206812652068	0.6221928665785997
3509.796142578125	-4.269230769230769	9.696903676787583	23.27020077600542	76.11549604227423	34.32789590856419	-0.4178760013371005	3485.189743589744	3627.838827838828	0.2648845686512758	-0.1326034063260341	0.6155878467635403
3529.327392578125	-3.653846153846154	10.84563804890066	22.91040524727474	76.6054507506519	34.80716849488192	0.8065069733606676	3470.625641025641	3620.51282051282	0.244228432563791	-0.1545012165450122	0.619550858652576
3548.858642578125	-3.884615384615385	11.56847785921045	23.5376455010162	74.83263353030321	34.40747059789419	1.636564697206522	3477.907692307692	3623.443223443223	0.2503037667071689	-0.1557177615571776	0.607661822985469
3568.389892578125	-4.038461538461538	12.3929528237975	22.85235881012502	73.94115399479371	34.90397614905192	1.650444548073194	3486.646153846154	3627.838827838828	0.2417982989064398	-0.170316301703163	0.5984147952443858
3587.921142578125	-2.961538461538462	12.15682546036829	22.04334236620065	73.05498261585164	33.53834122409788	2.461976443225319	3491.015384615384	3626.373626373626	0.2272174969623329	-0.1861313868613139	0.6129458388375165
3607.452392578125	-2.423076923076923	12.33938689413069	21.992193755004	72.6147882358966	30.75866754710479	3.663071446173305	3483.733333333333	3629.304029304029	0.2272174969623329	-0.1982968369829684	0.6142668428005285
3626.983642578125	-2.423076923076923	13.87754049393361	22.00759068793497	71.22899476037111	27.97489708221585	3.240928410973549	3505.579487179487	3627.838827838828	0.212636695018226	-0.2068126520681265	0.607661822985469
3646.514892578125	-2.192307692307693	14.36797899858348	22.25489622467205	71.20700590567579	27.02824141303746	2.823518477522596	3505.579487179487	3636.630036630037	0.2174969623329283	-0.218978102189781	0.5957727873183619
3666.046142578125	-1.961538461538462	14.82993317731108	22.00334113444602	70.34547745971275	25.67819191920591	4.4512863282684	3498.297435897436	3635.164835164835	0.221142162818955	-0.2287104622871046	0.5997357992073976
3685.577392578125	-2.461538461538462	15.45494857424401	22.02180205703024	71.27392139469083	25.20506451473193	5.661760410792247	3472.082051282051	3630.769230769231	0.2150668286755771	-0.2360097323600973	0.5878467635402906
3705.108642578125	-1.807692307692308	14.89925016936626	22.22979922399458	69.46366531240903	27.11356042398079	4.474458134789185	3509.948717948718	3635.164835164835	0.2004860267314702	-0.2408759124087591	0.5812417437252312
3724.639892578125	-1.115384615384615	17.09268183777791	21.48129272648889	71.19781297993454	23.75780650649996	3.607232588326878	3507.035897435897	3635.164835164835	0.1968408262454435	-0.2457420924574209	0.5891677675033025
3744.171142578125	-1.153846153846154	17.03647533411345	20.48392560202008	71.54616717193453	17.61828212413019	2.317864006664813	3499.753846153846	3626.373626373626	0.1968408262454435	-0.2639902676399027	0.5865257595772787
3763.702392578125	-0.5	17.87804859272033	20.05910882552196	71.50967723493051	15.26333202452608	1.88651613973269	3486.646153846154	3629.304029304029	0.1871202916160389	-0.2700729927007299	0.5785997357992074
3783.233642578125	-0.9615384615384616	18.55003233355916	19.61376793742687	69.7412192462202	17.66463755726727	1.928213774947205	3502.666666666666	3629.304029304029	0.1944106925880923	-0.2931873479318735	0.5653896961690885
3802.764892578125	-0.576923076923077	20.20527960830203	19.15909650797561	68.86158671473567	20.50050777690661	1.557205537152321	3498.297435897436	3630.769230769231	0.1883353584447144	-0.2956204379562044	0.5759577278731837
3822.296142578125	-1.115384615384615	20.34990299932253	18.23561926464248	67.11028388661775	23.37903750201762	2.011667127990733	3482.276923076923	3626.373626373626	0.1859052247873633	-0.2956204379562044	0.5759577278731837
3841.827392578125	0.1923076923076923	19.04296514134385	18.81328139434624	65.79481620681652	26.23623747439279	2.053393804512497	3504.123076923077	3630.769230769231	0.1786148238153098	-0.3199513381995134	0.560105680317041
3861.358642578125	0.3461538461538462	20.70355515181376	18.32224240931206	65.8124458298735	24.38188971384226	3.259163826594789	3495.384615384615	3629.304029304029	0.1761846901579587	-0.316301703163017	0.560105680317041
3880.889892578125	1.423076923076923	21.6291263780255	19.04368109872513	66.29491276586452	25.32280106140733	4.080074801322774	3504.123076923077	3632.234432234432	0.1761846901579587	-0.329683698296837	0.5416116248348745
3900.421142578125	2.230769230769231	21.58540678696804	18.49889142082897	67.61786821805235	22.00396232778483	4.441820124770793	3511.405128205128	3635.164835164835	0.1688942891859052	-0.3406326034063261	0.5482166446499339
3919.952392578125	2.076923076923077	23.05501324136232	18.24933793188397	70.28794759294254	17.71344224458269	5.188540660802115	3482.276923076923	3633.699633699634	0.1749696233292831	-0.343065693430657	0.5323645970937913
3939.483642578125	1.384615384615385	23.4197819794297	18.01090102851512	69.41893137459289	16.82503151199847	6.412836511578137	3517.230769230769	3642.490842490842	0.1616038882138517	-0.3613138686131387	0.5363276089828269
3959.014892578125	1.923076923076923	22.88099710537661	17.48860626963109	70.87116587666888	20.11719703150223	8.880215413589149	3498.297435897436	3642.490842490842	0.1701093560145808	-0.3613138686131387	0.5363276089828269
3978.546142578125	2.115384615384615	23.25595091457782	17.77937734803227	70.04878144599358	20.1910273992189	11.3381571534098	3508.492307692307	3651.282051282051	0.1591737545565006	-0.3771289537712895	0.52443857331572
3998.077392578125	1.5	24.53146363244442	16.15758760854838	70.95523652627632	18.77124432556652	12.1312213024827	3524.51282051282	3654.212454212454	0.1591737545565006	-0.3856447688564477	0.5178335535006605
4017.608642578125	2.346153846153846	24.63094321611135	16.10668534827862	71.41448391668199	12.70185438324802	14.51491452099219	3514.317948717948	3657.142857142857	0.1640340218712029	-0.3978102189781022	0.5138705416116248
4037.139892578125	1.961538461538462	24.65550132413623	15.26339533164994	72.2039814135661	4.678859772030639	13.61046306929893	3527.425641025641	3655.677655677655	0.157958687727825	-0.4038929440389295	0.512549537648613
4056.671142578125	0.4230769230769231	24.86998059986451	13.77020077600542	74.39908162485186	-1.01421041998388	13.93974463057205	3521.6	3660.07326007326	0.1518833535844471	-0.4075425790754258	0.4966974900924703
4076.202392578125	0.5384615384615386	27.10255897025313	13.56435917965141	75.29321523864509	-2.441786209197507	14.3246908018481	3511.405128205128	3658.608058608058	0.1652490886998785	-0.4221411192214112	0.4861294583883752
4095.733642578125	-0.8461538461538463	27.04685286690891	11.96504896224672	73.90694730065502	-2.893984721166086	13.10954170018995	3528.882051282051	3658.608058608058	0.1603888213851762	-0.4330900243309003	0.4795244385733157
4115.264892578125	-1.5	27.36697819794297	11.99724394900536	73.47812546226042	-1.002721776757218	13.13274254801799	3512.861538461538	3657.142857142857	0.1616038882138517	-0.4355231143552312	0.4676354029062087
4134.796142578125	-0.6153846153846154	28.35178912360658	11.87208228120958	72.58617146428635	1.825355727320873	12.35361633242626	3511.405128205128	3657.142857142857	0.1567436208991495	-0.4501216545012166	0.4649933949801849
4154.327392578125	-0.1923076923076923	29.25567376978506	10.48554227997783	72.44675056372785	-3.392939526502173	9.44568473175076	3520.14358974359	3649.81684981685	0.1652490886998785	-0.4525547445255475	0.4478203434610304
4173.858642578125	-0.8846153846153847	29.21627301841473	11.22481061772495	71.90315075775379	-6.704386404793848	7.377189934496971	3507.035897435897	3642.490842490842	0.1616038882138517	-0.4683698296836983	0.4385733157199472
4193.389892578125	-1.269230769230769	29.83053365769539	9.742547884461416	70.06076397010637	-4.349837165420168	4.970179702930448	3511.405128205128	3636.630036630037	0.1688942891859052	-0.475669099756691	0.4332892998678996
4212.921142578125	-2.730769230769231	29.64393822750508	8.995396317053643	70.08929167225919	0.7983236483516166	4.205049503434393	3509.948717948718	3636.630036630037	0.1773997569866342	-0.4939172749391728	0.4227212681638045
4232.452392578125	-1.384615384615385	29.40863459998768	9.799039231385109	70.59327300048099	5.017462618015429	4.650364345154936	3480.820512820513	3629.304029304029	0.1688942891859052	-0.4866180048661801	0.4108322324966975
4251.983642578125	-1.153846153846154	30.02378826137833	9.579817700314097	71.43812074831614	3.558715966556797	3.40283860524363	3467.71282051282	3627.838827838828	0.1676792223572296	-0.5060827250608273	0.4095112285336856
4271.514892578125	-0.8846153846153847	29.69511763256759	8.436426063928066	70.89452094234208	0.2472690882651215	1.334343807989842	3489.558974358974	3620.51282051282	0.1664641555285541	-0.5060827250608273	0.3989431968295905
4291.046142578125	-0.5384615384615386	31.68216111350619	6.815021247767444	69.92958707036003	-1.634553606865006	-0.3074781414661278	3482.276923076923	3627.838827838828	0.1603888213851762	-0.5121654501216545	0.3791281373844121
4310.577392578125	-1	31.23324813697112	6.64528545913654	67.68349583976155	0.2952720551196891	-1.082045503152541	3496.841025641026	3624.908424908425	0.1761846901579587	-0.5218978102189781	0.3712021136063408
4330.108642578125	-0.6538461538461539	33.2634030301164	4.791386955718421	66.41200586935096	5.045783365851655	-0.2054989597288706	3489.558974358974	3623.443223443223	0.1713244228432564	-0.5231143552311436	0.3738441215323646
4349.639892578125	0.03846153846153846	33.67463971176942	4.691091334606147	62.93091460534591	14.08107043817242	0.3278280889405099	3502.666666666666	3629.304029304029	0.1628189550425273	-0.5304136253041363	0.3474240422721268
4369.171142578125	0.5	34.29137925725196	4.161806368171461	59.4974040539443	19.41545470495338	3.680813159571315	3496.841025641026	3633.699633699634	0.1701093560145808	-0.5352798053527981	0.3381770145310436
4388.702392578125	-0.07692307692307693	33.72003756851635	4.459660035720885	57.41803073516709	25.64809081382773	7.029239376296809	3491.015384615384	3639.560439560439	0.1616038882138517	-0.5450121654501217	0.3368560105680317
4408.233642578125	0.1153846153846154	35.05960922584222	2.673384861735542	54.84168939809016	29.5315211447113	9.542816684813149	3520.14358974359	3649.81684981685	0.1555285540704739	-0.5559610705596108	0.3342140026420079
4427.764892578125	0.7307692307692308	34.59397518014411	4.185856377409619	53.99077726526203	24.45719069865619	12.76588862412986	3502.666666666666	3654.212454212454	0.1591737545565006	-0.5559610705596108	0.3210039630118891
4447.296142578125	0.3461538461538462	33.91489345322411	1.986096569563343	54.01106096660271	21.67177270004977	14.37048466835488	3517.230769230769	3661.538461538461	0.1445929526123937	-0.5717761557177615	0.3130779392338177
4466.827392578125	0.6538461538461539	34.045828970869	2.823936071934471	52.60375309884644	15.60977461306208	14.32393776616256	3515.774358974359	3657.142857142857	0.1506682867557715	-0.5766423357664233	0.3157199471598415
4486.358642578125	-0.3461538461538462	34.75619726550472	0.9978290324567345	52.14592909583444	14.68444869661952	14.31926274702826	3528.882051282051	3658.608058608058	0.1652490886998785	-0.5839416058394161	0.3011889035667107
4505.889892578125	-0.9230769230769231	35.39659419843568	0.3241362320625731	51.23994847801625	13.77265981735154	14.31920466441376	3528.882051282051	3660.07326007326	0.1603888213851762	-0.586374695863747	0.2879788639365918
4525.421142578125	-1.461538461538462	35.94538707889389	0.3460306706903984	49.00665317637185	13.37870624197713	14.74576134698258	3505.579487179487	3657.142857142857	0.1725394896719319	-0.5875912408759124	0.2655217965653897
4544.952392578125	-0.8846153846153847	35.71223902198682	-0.1119510993410116	48.16881873845876	16.7073860851088	15.60375302040527	3511.405128205128	3658.608058608058	0.1603888213851762	-0.5924574209245742	0.2734478203434611
4564.483642578125	-1.5	36.52969298515735	0.01535074213216725	46.40083521221299	16.77711966492963	16.43845672207819	3525.969230769231	3661.538461538461	0.1664641555285541	-0.5839416058394161	0.2589167767503303
4584.014892578125	-1.884615384615385	35.48493410112706	-1.208243517891236	45.08536753241177	19.63431963730481	16.48018339859995	3533.251282051282	3665.934065934066	0.1664641555285541	-0.6046228710462287	0.261558784676354
4603.546142578125	-1.846153846153846	36.68205333497567	-1.487282133399027	45.52916491557962	16.8197791704013	17.26392655071148	3514.317948717948	3661.538461538461	0.1603888213851762	-0.597323600973236	0.2417437252311757
4623.077392578125	-1.153846153846154	36.98397179281887	-1.890897333251217	44.13370405184831	13.09714575189522	16.83249155985761	3501.210256410256	3663.003663003663	0.1786148238153098	-0.6058394160583942	0.2351387054161163
4642.608642578125	-2.653846153846154	37.33472162345261	-2.54377348032272	41.87045766065744	14.54974722151009	15.6451602425473	3530.338461538461	3658.608058608058	0.1737545565006075	-0.6070559610705596	0.2298546895640687
4662.139892578125	-4.307692307692308	37.97028391944325	-1.89881135677773	38.73819505111692	15.11393795854074	15.68212477601301	3541.989743589743	3660.07326007326	0.1725394896719319	-0.621654501216545	0.2206076618229855
4681.671142578125	-2.807692307692308	37.91438535443739	-2.526960029562111	40.6310983956125	18.85420520211724	17.74141474153443	3537.620512820513	3667.399267399267	0.1822600243013366	-0.6155717761557178	0.2060766182298547
4701.202392578125	-1.423076923076923	36.60438350680544	-1.873021494118372	44.13417851431287	10.76557379897487	17.62549762631601	3514.317948717948	3664.468864468864	0.1786148238153098	-0.6228710462287105	0.2007926023778071
4720.733642578125	-1.653846153846154	35.12931114122067	-2.888633984110365	46.57830495725694	-9.524580073524957	16.1736650272432	3534.707692307692	3664.468864468864	0.1822600243013366	-0.6265206812652069	0.190224570673712
4740.264892578125	-3.192307692307693	36.55552903861551	-3.430298084621543	49.50347494879839	-21.87910673969865	13.16372520352319	3514.317948717948	3657.142857142857	0.1919805589307412	-0.6277372262773723	0.1981505944517834
4759.796142578125	-4.730769230769231	37.57449805998645	-4.763364537784073	51.60967081637381	-26.69565570258604	10.23735489807571	3509.948717948718	3649.81684981685	0.18955042527339	-0.6301703163017032	0.1638044914134743
4779.327392578125	-4.769230769230769	37.75232493687258	-5.923939151321057	49.78566988020887	-17.80023665013736	6.262916444900618	3511.405128205128	3639.560439560439	0.1931956257594168	-0.6301703163017032	0.1624834874504623
4798.858642578125	-6.423076923076923	38.58111874114677	-7.24824474964587	46.28865414650149	-3.178528149481241	4.403287360713641	3488.102564102564	3632.234432234432	0.1931956257594168	-0.6338199513381996	0.1624834874504623
4818.389892578125	-5.269230769230769	39.25804489745643	-7.633014103590565	42.8742856750079	17.09194350400024	3.415645966045025	3507.035897435897	3633.699633699634	0.1968408262454435	-0.6326034063260341	0.1558784676354029
4837.921142578125	-4.346153846153847	39.22743579478968	-7.025635893330049	37.56673209305776	22.89535838735934	3.934918916004239	3495.384615384615	3633.699633699634	0.1931956257594168	-0.6374695863746959	0.1347424042272127
4857.452392578125	-3.076923076923077	39.17918950545052	-7.805629118679558	34.4569328006771	22.07463284064803	5.1822994493793	3488.102564102564	3633.699633699634	0.1944106925880923	-0.6447688564476886	0.1334214002642008
4876.983642578125	-2.923076923076923	38.16379257251955	-9.112705549054628	30.7455293730876	12.30928269394218	4.305433451575892	3491.015384615384	3627.838827838828	0.2017010935601458	-0.635036496350365	0.1202113606340819
4896.514892578125	-2.423076923076923	38.33710814805691	-8.663099710537662	27.91641255526636	-1.223007910458906	4.198401713710093	3498.297435897436	3630.769230769231	0.1834750911300122	-0.6338199513381996	0.1202113606340819
4916.046142578125	-3.576923076923077	39.27609010285151	-10.22758206565252	24.70415676179575	-7.238650564309512	3.762204579800171	3495.384615384615	3635.164835164835	0.2029161603888214	-0.6459854014598541	0.1202113606340819
4935.577392578125	-5.115384615384616	39.67610242039785	-11.38204409681591	20.68477384838408	-3.376950846392202	3.024688875501216	3501.210256410256	3632.234432234432	0.2017010935601458	-0.6399026763990268	0.1083223249669749
4955.108642578125	-4.269230769230769	39.24053858471392	-11.60385231261933	16.72386972667171	3.786354640307612	3.135930971585338	3505.579487179487	3629.304029304029	0.1968408262454435	-0.6374695863746959	0.1056803170409511
4974.639892578125	-4.384615384615385	39.50149350249431	-12.99775204779208	10.85868971890335	2.538456262028964	2.365777257267991	3489.558974358974	3627.838827838828	0.2065613608748481	-0.6496350364963504	0.1056803170409511
4994.171142578125	-4.807692307692308	38.54833867093675	-12.99385662376055	5.522133972335823	5.525282284536631	2.857174340264865	3499.753846153846	3627.838827838828	0.2004860267314702	-0.6545012165450121	0.1003963011889036
5013.702392578125	-3.76923076923077	39.7733725441892	-11.82247336330603	0.9820890325744808	2.35904688749995	2.054585905079867	3477.907692307692	3623.443223443223	0.1980558930741191	-0.656934306569343	0.1056803170409511
5033.233642578125	-5.153846153846154	38.87006528299563	-11.42634107285829	-5.379584531029058	-3.569629221689832	1.242589349011759	3493.928205128205	3621.978021978022	0.2004860267314702	-0.6581508515815085	0.1003963011889036
5052.764892578125	-5.576923076923078	39.78840764919628	-10.76653630596785	-8.039522055248888	-0.671818137790909	1.298166835092947	3486.646153846154	3623.443223443223	0.2017010935601458	-0.6447688564476886	0.09775429326287979
5072.296142578125	-5.153846153846154	40.69537168196095	-10.38396871343229	-10.79973646473949	-1.568422446166815	-0.724013390426518	3480.820512820513	3623.443223443223	0.2041312272174969	-0.6386861313868614	0.1030383091149273
5091.827392578125	-6.230769230769231	39.99690521648088	-10.92218390096693	-14.86575116582552	1.331036171449598	-2.695174983770106	3496.841025641026	3617.582417582417	0.2029161603888214	-0.6399026763990268	0.1043593130779392
5111.358642578125	-6.038461538461539	39.43495565683316	-8.017013610888711	-14.80774683659075	6.964213893152457	-2.639423249845425	3482.276923076923	3616.117216117216	0.2041312272174969	-0.6447688564476886	0.1175693527080581
5130.889892578125	-5.423076923076923	39.48819825090842	-7.448374083882491	-15.27087899617019	7.901028452821679	-3.441750313265183	3489.558974358974	3616.117216117216	0.1968408262454435	-0.6435523114355232	0.130779392338177
5150.421142578125	-4.076923076923078	39.38453839995073	-7.457689228305722	-14.50384481644593	1.262950125346257	-5.556617764867792	3482.276923076923	3610.25641025641	0.1919805589307412	-0.6472019464720195	0.1122853368560106
5169.952392578125	-5.653846153846154	39.16404662191292	-6.39463878795344	-13.23453446185451	-4.888062900250171	-6.038984263975793	3463.343589743589	3607.326007326007	0.2053462940461725	-0.6496350364963504	0.1321003963011889
5189.483642578125	-3.923076923076923	38.32679990145963	-4.724610457596847	-12.85329333606334	-3.078423039119226	-8.881843133765251	3483.733333333333	3602.930402930403	0.2053462940461725	-0.6399026763990268	0.1254953764861295
5209.014892578125	-5.576923076923078	39.20409404446635	-4.627779146394039	-11.12179974682157	-5.503106718544167	-10.14789470237029	3451.692307692307	3595.604395604395	0.1992709599027946	-0.6374695863746959	0.1215323645970938
5228.546142578125	-4.269230769230769	38.34982601465788	-5.529762271355546	-10.67459205694447	-0.8534998498780384	-11.73852377180688	3460.430769230769	3592.673992673992	0.2029161603888214	-0.6386861313868614	0.142668428005284
5248.077392578125	-3.038461538461539	37.43703424277884	-5.351712138941923	-8.524418479978428	-3.776737474408635	-13.83007421035246	3550.728205128205	3693.772893772893	0.1859052247873633	-0.6447688564476886	0.1334214002642008
5267.608642578125	-3.538461538461539	39.1513826445772	-5.953747613475396	-9.976178519589873	-9.400474946832752	-15.50444704590508	3552.184615384615	3690.84249084249	0.1883353584447144	-0.6411192214111923	0.1413474240422721
5287.139892578125	-2.769230769230769	38.22541109810926	-4.655170290078217	-11.67649032839509	-2.758700691691919	-14.60469965465338	3558.010256410256	3692.307692307692	0.1907654921020656	-0.6386861313868614	0.1413474240422721
5306.671142578125	-2.692307692307693	38.92598694340087	-5.145501016197573	-11.19885708650695	-2.287220820935427	-13.78843465775245	3547.815384615385	3690.84249084249	0.1968408262454435	-0.635036496350365	0.1334214002642008
5326.202392578125	-1.192307692307692	38.30964001970807	-6.597385600788323	-12.02389559546597	-1.282320215162863	-11.72931894007452	3456.061538461538	3591.208791208791	0.1761846901579587	-0.6313868613138687	0.1466314398943197
5345.733642578125	-1.884615384615385	38.31719991377717	-6.283072611935702	-13.7914046592472	-3.544158588262387	-10.10160917194321	3472.082051282051	3597.069597069597	0.1859052247873633	-0.6301703163017032	0.1519154557463673
5365.264892578125	-2	38.19939028145594	-6.046437149719776	-17.39068419754096	-7.1757286742118	-9.285605546807522	3472.082051282051	3601.465201465201	0.1773997569866342	-0.6338199513381996	0.1598414795244386
5384.796142578125	-2.807692307692308	38.03371158465234	-6.570194617232247	-20.55678266580177	-9.897558274841151	-9.281162858131209	3472.082051282051	3601.465201465201	0.1786148238153098	-0.6277372262773723	0.166446499339498
5404.327392578125	-3.807692307692308	38.12358348217035	-6.217635646979121	-25.88897918073095	-4.109728822604558	-9.578125863765672	3482.276923076923	3600	0.1822600243013366	-0.6362530413625305	0.166446499339498
5423.858642578125	-2.846153846153846	38.05295005234957	-5.570579540555522	-27.12928737070499	4.857873063843298	-9.067883497695332	3483.733333333333	3601.465201465201	0.1773997569866342	-0.6313868613138687	0.1717305151915456
5443.389892578125	-2.615384615384615	37.47330171829771	-5.665085914885754	-27.54047958604263	4.894788247701635	-7.838912627785004	3464.8	3601.465201465201	0.1737545565006075	-0.6180048661800487	0.1690885072655218
5462.921142578125	-2.384615384615385	37.09920243887418	-4.498583482170352	-28.45442243871201	6.776210082601332	-9.035448776827682	3485.189743589744	3601.465201465201	0.1798298906439854	-0.624087591240876	0.178335535006605
5482.452392578125	-2	37.87990392313851	-3.533657695387079	-27.13364660234334	2.056869634114372	-8.279523409063993	3451.692307692307	3598.534798534799	0.1798298906439854	-0.6301703163017032	0.1955085865257596
5501.983642578125	-1.346153846153846	37.6583189628626	-2.723640450822196	-28.57090555964609	-2.158573407884031	-9.939958311135438	3491.015384615384	3595.604395604395	0.1640340218712029	-0.6265206812652069	0.1928665785997358
5521.514892578125	-1.576923076923077	37.82763903430436	-3.266567099833713	-27.75941920806666	-9.234912349923018	-10.42699982937775	3463.343589743589	3597.069597069597	0.1773997569866342	-0.6192214111922141	0.2047556142668428
5541.046142578125	-3.038461538461539	37.28537445340889	-3.537953439674817	-29.64170623942735	-16.69946054572309	-10.89098570632826	3470.625641025641	3597.069597069597	0.1786148238153098	-0.6131386861313869	0.2060766182298547
5560.577392578125	-2.769230769230769	37.87744041386956	-2.641251462708628	-30.07583623438941	-12.94605712520244	-11.66543690278568	3476.451282051281	3594.139194139194	0.1713244228432564	-0.6094890510948905	0.2060766182298547
5580.108642578125	-3.576923076923077	36.93036737081973	-2.556830079448174	-31.02844863988196	-14.82008710477131	-12.89914087444481	3556.553846153846	3696.703296703297	0.1773997569866342	-0.6058394160583942	0.214002642007926
5599.639892578125	-2.961538461538462	37.87509238159759	-2.331542156802365	-32.83387102806083	-12.44215971871388	-14.08179717262081	3558.010256410256	3693.772893772893	0.1530984204131227	-0.6070559610705596	0.2232496697490093
5619.171142578125	-2.769230769230769	37.55102543573321	-1.705117940506251	-35.06280709806687	-10.03510986435936	-14.44360057868333	3546.358974358974	3687.912087912088	0.1701093560145808	-0.6192214111922141	0.2324966974900925
5638.702392578125	-2.346153846153846	36.75200929974749	-2.562003448912976	-36.40026363256341	-8.124565561162576	-14.81928383561252	3534.707692307692	3684.981684981685	0.1567436208991495	-0.6046228710462287	0.2351387054161163
5658.233642578125	-2.115384615384615	36.77746042988237	-2.142252263349141	-39.64029089976133	-10.89315145515944	-17.26354901371725	3550.728205128205	3687.912087912088	0.1555285540704739	-0.597323600973236	0.2523117569352708
5677.764892578125	-2.730769230769231	35.79501293342366	-2.404492825029254	-41.46722768017096	-11.79345169120076	-18.07060917888581	3521.6	3677.655677655677	0.1591737545565006	-0.5948905109489051	0.2457067371202114
5697.296142578125	-3.076923076923077	36.0374453408881	-0.7184208905586007	-43.30165223296722	-12.23211316599475	-19.28114134402415	3540.533333333333	3684.981684981685	0.1555285540704739	-0.5997566909975669	0.249669749009247
5716.827392578125	-3.115384615384615	35.31532148795959	-1.112228244133769	-46.40055344625201	-6.050330138383749	-20.00466103222744	3536.164102564102	3677.655677655677	0.1603888213851762	-0.6046228710462287	0.2628797886393659
5736.358642578125	-2.346153846153846	36.54646024511916	0.02314159019523321	-47.75345998798633	-0.8849363597719713	-21.98029435555459	3539.076923076923	3673.260073260073	0.1530984204131227	-0.5936739659367397	0.2747688243064729
5755.889892578125	-1.5	34.59198897579602	0.7467050563527746	-48.27990463336799	-3.719159045693823	-23.63602519718448	3539.076923076923	3671.794871794872	0.1616038882138517	-0.586374695863747	0.2774108322324967
5775.421142578125	-0.4230769230769231	33.99480353513579	0.6829001662868757	-48.3260619585778	-7.012972098915076	-24.07666501977072	3531.794871794872	3668.864468864469	0.1409477521263669	-0.5790754257907543	0.3011889035667107
5794.952392578125	0.6538461538461539	35.34994919012133	1.079463570856685	-48.80540035382055	-11.21652563745639	-23.70574390589758	3520.14358974359	3667.399267399267	0.1482381530984204	-0.5778588807785888	0.2959048877146632
5814.483642578125	0.6153846153846154	33.44688058138819	2.040586315206011	-50.66351891466675	-16.3339164492136	-24.14649989371281	3525.969230769231	3667.399267399267	0.1397326852976914	-0.5790754257907543	0.3077939233817701
5834.014892578125	0.6153846153846154	33.87645501016198	3.638787953439675	-49.32606238017021	-18.24446075241038	-23.77081663678363	3524.51282051282	3670.32967032967	0.1324422843256379	-0.5681265206812652	0.3196829590488772
5853.546142578125	1.153846153846154	34.28304181806984	3.924832173431053	-47.08698445949382	-22.04421960606811	-22.6067152086086	3523.05641025641	3671.794871794872	0.1409477521263669	-0.559610705596107	0.3223249669749009
5873.077392578125	1.692307692307693	32.45630350434193	4.338670936749399	-48.96396333428707	-31.37090827797996	-22.27304904127366	3540.533333333333	3673.260073260073	0.1385176184690158	-0.5559610705596108	0.3276089828269485
5892.608642578125	0.7692307692307693	33.53852312619326	4.996920613413808	-50.2591473127476	-31.29912630421121	-20.62672632052688	3543.446153846154	3677.655677655677	0.1433778857837181	-0.5559610705596108	0.3447820343461031
5912.139892578125	-0.07692307692307693	33.92558662314467	5.72066884276652	-52.94107369166274	-29.34797088949068	-20.98855876789664	3558.010256410256	3679.120879120879	0.1397326852976914	-0.5486618004866181	0.3553500660501981
5931.671142578125	-0.3076923076923077	33.4128225657449	6.589640943524049	-56.448987504466	-21.72877096315688	-20.87728763050527	3546.358974358974	3679.120879120879	0.1397326852976914	-0.5413625304136254	0.3606340819022457
5951.202392578125	-0.3076923076923077	33.16493194555645	7.445710414485435	-57.68664161615633	-13.69223931476491	-19.9682192422922	3523.05641025641	3676.190476190476	0.1421628189550425	-0.5389294403892945	0.3659180977542933
5970.733642578125	0.03846153846153846	32.63919597216235	8.386355238036582	-58.44713694842306	-2.852655842696097	-19.03589192363661	3553.641025641025	3686.446886446886	0.1312272174969623	-0.5194647201946472	0.3751651254953765
5990.264892578125	0.8076923076923077	31.16586345999876	10.12990392313851	-58.3736826119505	-0.4743275964082338	-17.38019012331396	3531.794871794872	3683.516483516483	0.1373025516403402	-0.5194647201946472	0.3698811096433289
6009.796142578125	0.7692307692307693	31.17971300117016	9.475888403030115	-56.15223431433108	-2.419738689515431	-17.42185871722123	3540.533333333333	3683.516483516483	0.1348724179829891	-0.5109489051094891	0.381770145310436
6029.327392578125	2.730769230769231	30.09539169797376	9.807338178234897	-55.82634343949095	-7.174346788143236	-19.92164329879264	3544.902564102564	3680.58608058608	0.1348724179829891	-0.5072992700729927	0.4029062087186262
6048.858642578125	2.615384615384615	29.69196895978321	10.8630904723779	-54.57371378302739	-16.13415595902984	-20.02376768706614	3536.164102564102	3677.655677655677	0.1360874848116646	-0.4939172749391728	0.3949801849405548
6068.389892578125	1.115384615384615	30.84181960953378	10.63978875408019	-54.56935455138905	-13.33315252930092	-20.81212777569748	3543.446153846154	3679.120879120879	0.1312272174969623	-0.5060827250608273	0.4187582562747688
6087.921142578125	1.423076923076923	29.57548346369403	10.18736527683685	-54.98585492329414	-11.4340968693308	-20.38080895007261	3527.425641025641	3677.655677655677	0.1287970838396112	-0.4878345498783455	0.4227212681638045
6107.452392578125	2.692307692307693	29.66734926402661	12.01715218328509	-55.76037687540502	-4.334379780608053	-18.66941349843978	3527.425641025641	3683.516483516483	0.1275820170109356	-0.4854014598540146	0.4359313077939234
6126.983642578125	1.615384615384615	28.57626100880705	11.87925725195541	-56.62673901547095	-6.15386075124817	-17.04629162552104	3537.620512820513	3684.981684981685	0.1300121506682868	-0.4793187347931874	0.4398943196829591
6146.514892578125	4.461538461538462	28.67537106608364	13.69298515735666	-55.67678068826211	-3.348760533623402	-16.21141367600463	3537.620512820513	3683.516483516483	0.1312272174969623	-0.4574209245742092	0.4412153236459709
6166.046142578125	3.384615384615385	28.04927018537907	13.38264457720022	-52.11569624032698	-5.804214215062919	-16.27157905729838	3539.076923076923	3686.446886446886	0.1251518833535844	-0.462287104622871	0.453104359313078
6185.577392578125	3.884615384615385	27.40038954240315	14.55744595676541	-50.36173933392535	-9.613814178229818	-16.32721462599406	3541.989743589743	3686.446886446886	0.1251518833535844	-0.4501216545012166	0.4623513870541612
6205.108642578125	4.307692307692308	25.99550409558416	13.22479522079202	-46.3911678240072	-15.83825671131249	-16.42916476642407	3553.641025641025	3684.981684981685	0.12636695018226	-0.4452554744525548	0.4689564068692206
6224.639892578125	4.115384615384616	26.45660374453409	13.43904354252633	-45.55285892362956	-21.49850850736452	-16.49415037338837	3540.533333333333	3683.516483516483	0.1239368165249089	-0.4379562043795621	0.4610303830911493
6244.171142578125	3.961538461538462	27.52435024943032	14.0517182977151	-46.95315348146376	-25.69057340267916	-16.9302313420693	3552.184615384615	3684.981684981685	0.1287970838396112	-0.4306569343065694	0.4715984147952444
6263.702392578125	1.807692307692308	26.86954948574244	14.3302180205703	-50.45215613448675	-25.52772809635374	-14.03647000533295	3540.533333333333	3693.772893772893	0.12636695018226	-0.4343065693430657	0.4834874504623514
6283.233642578125	2.807692307692308	25.17993625669767	15.11857178050132	-52.07465437518106	-13.70662216519612	-12.26938090238994	3566.748717948718	3701.098901098901	0.1287970838396112	-0.4221411192214112	0.4914134742404227
6302.764892578125	4.307692307692308	24.72063804890066	15.42963601650551	-50.25738498297721	-13.74518488277195	-11.4716126928755	3461.887179487179	3591.208791208791	0.1336573511543135	-0.4148418491484185	0.4927344782034346
6322.296142578125	2.615384615384615	25.45627271047608	16.87867216850404	-47.60446076867946	-18.51292915834391	-11.13765611246807	3460.430769230769	3595.604395604395	0.1287970838396112	-0.4087591240875912	0.4887714663143989
6341.827392578125	3.576923076923077	24.08536829463571	17.1546621912915	-46.20151213256153	-15.25193450108515	-10.30274912164442	3473.538461538461	3595.604395604395	0.1373025516403402	-0.3990267639902677	0.512549537648613
6361.358642578125	3.884615384615385	24.33793958243518	17.67994395516413	-44.43257968138666	-19.98481198674669	-9.551440690400538	3467.71282051282	3595.604395604395	0.1348724179829891	-0.4014598540145986	0.499339498018494
6380.889892578125	3.192307692307693	23.97135400628195	17.47076122436411	-44.88556999029576	-20.44070642638068	-9.551469731707787	3495.384615384615	3602.930402930403	0.1373025516403402	-0.3771289537712895	0.5178335535006605
6400.421142578125	3.26923076923077	23.77736804828478	17.47775143191477	-45.30424997802003	-19.94215248127502	-8.725970861767243	3480.820512820513	3602.930402930403	0.1336573511543135	-0.3746958637469586	0.5191545574636725
6419.952392578125	3.038461538461539	22.5763610888711	18.14348401798362	-43.89817280115383	-19.94380001499252	-6.699231782342467	3467.71282051282	3602.930402930403	0.1421628189550425	-0.3722627737226277	0.5284015852047557
6439.483642578125	2.730769230769231	23.24683593028269	17.61974194740408	-43.89068502876721	-20.40543877623983	-6.295759782372684	3482.276923076923	3610.25641025641	0.1530984204131227	-0.3771289537712895	0.5350066050198151
6459.014892578125	3.192307692307693	22.16991285335961	17.15820348586562	-43.0175913447402	-27.44281414047257	-4.742211411630792	3470.625641025641	3611.721611721612	0.1385176184690158	-0.3686131386861314	0.5217965653896962
6478.546142578125	2.884615384615385	21.61248229352713	16.49126993902815	-43.10943153269525	-36.36201219983543	-4.83048499034487	3477.907692307692	3613.186813186813	0.1543134872417983	-0.3527980535279806	0.5310435931307794
6498.077392578125	2.423076923076923	21.18743456303504	17.05134877132475	-46.27022184438861	-40.94598227657657	-4.028390257383103	3480.820512820513	3616.117216117216	0.1664641555285541	-0.3491484184914842	0.5270805812417437
6517.608642578125	1.230769230769231	22.28345753525898	19.21173862166656	-50.25917920578925	-41.2624095565689	-2.359011895344531	3492.471794871794	3617.582417582417	0.1616038882138517	-0.3467153284671533	0.5323645970937913
6537.139892578125	-0.4230769230769231	21.30773080002464	19.65192153722978	-52.25685418728175	-24.71786638902847	0.2753898779825328	3509.948717948718	3627.838827838828	0.1640340218712029	-0.3406326034063261	0.5455746367239102
6556.671142578125	0.3461538461538462	19.7420166902753	20.24531933238899	-48.98346552382811	-16.33168820445125	1.959170834418258	3486.646153846154	3630.769230769231	0.1664641555285541	-0.3345498783454988	0.5482166446499339
6576.202392578125	1.538461538461539	20.11024203978568	19.87251339533165	-46.7695049985953	-17.81546053631113	1.514030240541209	3474.994871794872	3620.51282051282	0.1737545565006075	-0.3260340632603406	0.5416116248348745
6595.733642578125	-1.384615384615385	20.13429204902383	19.67001293342366	-49.09075571902095	-21.99603678839912	0.2709471893062183	3492.471794871794	3626.373626373626	0.1786148238153098	-0.3150851581508516	0.5455746367239102
6615.264892578125	0	19.17303073227813	20.19461723224734	-49.57274819254743	-25.26852008888453	0.243042281036629	3493.928205128205	3629.304029304029	0.1846901579586877	-0.305352798053528	0.5614266842800528
6634.796142578125	0.1538461538461539	19.40093613352221	20.18396255465911	-51.39437681638963	-28.03096080103763	0.23363416015352	3491.015384615384	3629.304029304029	0.18955042527339	-0.305352798053528	0.5667107001321005
6654.327392578125	-1.576923076923077	19.94256174170106	19.8334513764858	-52.69268933559844	-24.69653663629264	0.6881247922991804	3499.753846153846	3627.838827838828	0.1846901579586877	-0.2871046228710462	0.571994715984148
6673.858642578125	-0.07692307692307693	17.56711523064606	19.79808462154339	-52.67771379082519	-25.61981415878728	1.495068792238746	3493.928205128205	3620.51282051282	0.1980558930741191	-0.2773722627737226	0.5653896961690885
6693.389892578125	0.7692307692307693	17.81055613721747	20.24142390835745	-50.97958159783916	-33.66209012879257	0.9895014453027107	3505.579487179487	3629.304029304029	0.1907654921020656	-0.2773722627737226	0.5680317040951123
6712.921142578125	-0.576923076923077	17.40919658803966	20.50170905955534	-53.27258638207295	-43.42129509365466	2.547492504720917	3496.841025641026	3626.373626373626	0.212636695018226	-0.2761557177615572	0.5785997357992074
6732.452392578125	-3	17.17390835745519	21.22765905031718	-54.94560117961539	-37.69500564544721	4.662301873709028	3476.451282051281	3626.373626373626	0.2089914945321993	-0.2603406326034063	0.5825627476882431
6751.983642578125	-2.307692307692308	16.2571595738129	22.14202130935518	-57.54535475878129	-27.76351512498097	4.379451049399227	3477.907692307692	3630.769230769231	0.2187120291616039	-0.2591240875912409	0.5759577278731837
6771.514892578125	-1.230769230769231	15.83088008868634	23.14830325799101	-54.00986216875429	-25.57141033170228	1.91703757959501	3489.558974358974	3627.838827838828	0.2284325637910085	-0.2518248175182482	0.5825627476882431
6791.046142578125	-2.307692307692308	14.04462031163392	23.15359980291926	-53.18122065658245	-32.17052508137144	1.8427600169766	3486.646153846154	3627.838827838828	0.235722964763062	-0.2360097323600973	0.5865257595772787
6810.577392578125	-3.346153846153846	14.89586284412145	23.93762702469668	-52.22813378862534	-32.62806705472293	3.869470055094126	3511.405128205128	3632.234432234432	0.2308626974483596	-0.2335766423357664	0.5852047556142669
6830.108642578125	-3.576923076923077	13.93196865184455	24.28618279238776	-52.20036231489804	-35.87512381457667	5.877538099288927	3502.666666666666	3635.164835164835	0.235722964763062	-0.2226277372262774	0.5970937912813739
6849.639892578125	-2.692307692307693	12.38090472377902	22.10860996489499	-52.59004013800492	-32.55998100861958	6.730912836191812	3515.774358974359	3641.025641025641	0.2503037667071689	-0.218978102189781	0.583883751651255
6869.171142578125	-4.115384615384616	11.7616631766952	21.80145654985527	-54.43147800072326	-34.86857567508662	5.90991473754208	3504.123076923077	3636.630036630037	0.2515188335358444	-0.2068126520681265	0.5891677675033025
6888.702392578125	-5.038461538461538	12.2772756666872	21.94390897333251	-56.64591298842061	-31.05323139030638	5.562049264960733	3492.471794871794	3635.164835164835	0.2515188335358444	-0.1897810218978102	0.5984147952443858
6908.233642578125	-6.153846153846154	12.44718852004681	22.25595861304428	-61.92228478993419	-21.03272593123139	5.715018037566619	3504.123076923077	3633.699633699634	0.267314702308627	-0.1873479318734793	0.5878467635402906
6927.764892578125	-5.653846153846154	11.46265473917596	22.90572457966373	-63.58345258345168	-12.96707181454234	7.444939317893174	3498.297435897436	3638.095238095238	0.2612393681652491	-0.170316301703163	0.5931307793923382
6947.296142578125	-4.615384615384616	11.10026482724641	22.67906632998707	-65.75343539929385	-9.589988144325675	8.724899778672128	3507.035897435897	3643.956043956044	0.2612393681652491	-0.1618004866180049	0.6036988110964333
6966.827392578125	-3.423076923076923	9.488444601835315	23.23161606208043	-66.66159563293124	-11.90227873845812	9.119021740373301	3501.210256410256	3642.490842490842	0.2612393681652491	-0.1605839416058394	0.6129458388375165
6986.358642578125	-4.884615384615385	9.578993964402292	24.01184024142391	-65.79333564300711	-19.40908557949942	10.66792413328814	3501.210256410256	3639.560439560439	0.275820170109356	-0.1447688564476886	0.6050198150594451
7005.889892578125	-5.807692307692308	8.383237359118063	25.10736281332758	-65.39664450997816	-20.85429519378348	9.425015329896638	3502.666666666666	3645.421245421245	0.2697448359659781	-0.1374695863746959	0.6050198150594451
7025.421142578125	-6.923076923076923	7.081973270924432	23.97825953070149	-66.7582695149892	-21.29090827462955	9.026102183832165	3517.230769230769	3642.490842490842	0.2782503037667071	-0.1119221411192214	0.6129458388375165
7044.952392578125	-7.115384615384616	7.302110919504835	24.70214633245058	-67.16026880458557	-17.98355818423372	9.471358942938212	3498.297435897436	3642.490842490842	0.2904009720534629	-0.1119221411192214	0.6116248348745046
7064.483642578125	-6.423076923076923	6.283742378518199	24.92826568947466	-66.71476626806312	-17.06602498335241	9.067915984275677	3517.230769230769	3643.956043956044	0.2904009720534629	-0.1046228710462287	0.6248348745046235
7084.014892578125	-5.307692307692308	4.932114922707397	24.08656155693786	-65.44858445421995	-19.95439581797259	7.393717396566554	3517.230769230769	3642.490842490842	0.2867557715674362	-0.09245742092457421	0.6103038309114928
7103.546142578125	-6.461538461538462	4.006528299562727	23.44281579109441	-65.6059167437964	-34.04513283779098	6.846220083958013	3495.384615384615	3639.560439560439	0.2867557715674362	-0.09002433090024331	0.6261558784676354
7123.077392578125	-7.038461538461539	3.750053889265258	23.38192092135247	-67.55587549259764	-48.08172170891105	6.317190517428702	3504.123076923077	3633.699633699634	0.3025516403402187	-0.06934306569343066	0.6221928665785997
7142.608642578125	-8.461538461538462	4.889142082897086	25.54289585514566	-71.98550169641787	-48.84625071297612	8.394657815956865	3512.861538461538	3646.886446886447	0.3122721749696233	-0.07299270072992702	0.6142668428005285
7162.139892578125	-11.38461538461539	5.273480322719714	24.6336761717066	-74.87901544505823	-34.60620542400688	11.83129952878194	3527.425641025641	3652.747252747252	0.3292831105710814	-0.04501216545012166	0.6116248348745046
7181.671142578125	-9.538461538461538	2.12748660466835	24.31797745889019	-77.29413972338492	-11.49946269065563	13.31100799481709	3520.14358974359	3649.81684981685	0.3183475091130012	-0.03649635036496351	0.607661822985469
7201.202392578125	-7.5	0.8153060910266676	24.42700314097432	-74.61316226939887	-8.787474199535451	12.08682830927006	3501.210256410256	3649.81684981685	0.3134872417982989	-0.02068126520681265	0.6050198150594451
7220.733642578125	-7.884615384615385	0.7444032148795958	26.43368540986636	-76.04388237924411	-8.801412096940462	9.243853274251606	3517.230769230769	3643.956043956044	0.3292831105710814	0.00121654501216545	0.6155878467635403
7240.264892578125	-8.038461538461538	-0.4327231015581696	25.82846277021617	-76.59089249192742	-19.57700631080177	9.549730698545949	3499.753846153846	3642.490842490842	0.3353584447144593	0.008515815085158151	0.6089828269484808
7259.796142578125	-7.730769230769231	-1.574344090657141	26.83258914824167	-76.58122510372162	-18.63814335718463	9.559022654200062	3509.948717948718	3646.886446886447	0.3377885783718104	0.0194647201946472	0.6129458388375165
7279.327392578125	-9.538461538461538	-1.6978813820287	27.12483833220422	-76.13259402645089	-20.98325234727957	10.34741178413865	3524.51282051282	3654.212454212454	0.3353584447144593	0.03284671532846716	0.6155878467635403
7298.858642578125	-10.5	-2.103783026421137	27.22761285951838	-76.05913968997832	-18.60492410099171	12.00311358446129	3521.6	3649.81684981685	0.3511543134872417	0.06204379562043796	0.6063408190224571
7318.389892578125	-9.5	-3.443885877933116	27.84814005050194	-75.53269504459667	-15.77070141506986	13.65884442609118	3525.969230769231	3655.677655677655	0.3414337788578372	0.06447688564476886	0.6116248348745046
7337.921142578125	-10.15384615384616	-3.732709244318532	27.55853913900351	-71.00231749304112	-13.54332897165032	14.45214090562207	3520.14358974359	3655.677655677655	0.3487241798298906	0.07785888077858881	0.5984147952443858
7357.452392578125	-8.961538461538462	-4.843359302826877	26.12950360288231	-71.15093131934086	-22.03205913201086	12.32792341575085	3504.123076923077	3651.282051282051	0.347509113001215	0.08637469586374696	0.6023778071334214
7376.983642578125	-9.884615384615385	-6.242355422799778	25.84854037075814	-69.47260836523095	-29.62048905633009	11.01076609104819	3485.189743589744	3645.421245421245	0.3511543134872417	0.09245742092457421	0.6010568031704096
7396.514892578125	-10.53846153846154	-6.824490361519985	26.7629796144608	-68.5719359039802	-26.84655970095033	10.21317212937724	3512.861538461538	3649.81684981685	0.3438639125151883	0.1058394160583942	0.6023778071334214
7416.046142578125	-8.961538461538462	-7.078993964402291	26.37277514319148	-62.33157915541366	-30.32209855905448	10.11601317331053	3509.948717948718	3649.81684981685	0.3681652490886999	0.121654501216545	0.5957727873183619
7435.577392578125	-9.26923076923077	-6.124445710414485	25.10690090533966	-63.34968366252759	-37.36766749907888	8.423085467756934	3507.035897435897	3642.490842490842	0.3633049817739976	0.1143552311435523	0.5865257595772787
7455.108642578125	-11.57692307692308	-6.740784935640821	25.53924678204102	-68.29826673934285	-41.42805795031313	9.248293924624988	3517.230769230769	3643.956043956044	0.3693803159173754	0.1472019464720195	0.5799207397622193
7474.639892578125	-13.03846153846154	-8.83890958920983	26.13778715279916	-70.73395648497122	-26.26268674490133	12.68961065658437	3528.882051282051	3654.212454212454	0.3839611178614824	0.159367396593674	0.5825627476882431
7494.171142578125	-12.15384615384616	-10.78490484695449	26.39908850157049	-70.57084157636278	-16.36566215411508	14.82776607993676	3527.425641025641	3654.212454212454	0.3766707168894289	0.170316301703163	0.5746367239101717
7513.702392578125	-12.11538461538462	-11.21370173061526	26.64662499230154	-67.82560271164542	-14.54578032324453	16.04300230551666	3509.948717948718	3660.07326007326	0.3851761846901579	0.1618004866180049	0.5693527080581242
7533.233642578125	-13.03846153846154	-12.70584929482047	25.25400320256205	-64.74963927798504	-17.01107511419322	14.7630999273522	3518.687179487179	3651.282051282051	0.3839611178614824	0.1909975669099757	0.560105680317041
7552.764892578125	-11.65384615384616	-11.93341596354006	25.6323366385416	-63.4592889936274	-17.55228856477054	13.11213122877836	3517.230769230769	3652.747252747252	0.3900364520048603	0.1982968369829684	0.5627476882430648
7572.296142578125	-12.80769230769231	-12.47330941676418	24.9347016074398	-62.16410501516687	-17.62407053853929	11.46580850803158	3498.297435897436	3645.421245421245	0.3803159173754556	0.2104622871046229	0.5535006605019816
7591.827392578125	-13.69230769230769	-12.48734372113075	24.59795528730677	-60.86408734260343	-17.22642103549947	9.824131765111854	3514.317948717948	3642.490842490842	0.3876063183475091	0.2214111922141119	0.5495376486129459
7611.358642578125	-13.42307692307692	-13.43651074705919	23.71015273757467	-59.04681795039959	-17.2649837530753	10.6218999746263	3502.666666666666	3642.490842490842	0.393681652490887	0.2214111922141119	0.5402906208718626
7630.889892578125	-13.07692307692308	-14.14316068239207	24.0811110426803	-59.05260056943159	-13.07127132404316	9.031241863882453	3524.51282051282	3645.421245421245	0.4094775212636695	0.2396593673965937	0.5429326287978864
7650.421142578125	-12.03846153846154	-14.35312095830511	23.92527868448605	-57.28897627482416	-15.94200833359292	8.984898250840882	3518.687179487179	3642.490842490842	0.3924665856622114	0.2481751824817518	0.5310435931307794
7669.952392578125	-12.03846153846154	-15.36469945186919	24.50420336269015	-57.28366811825671	-17.8041488097047	9.782550295126335	3502.666666666666	3643.956043956044	0.3912515188335358	0.2579075425790754	0.5138705416116248
7689.483642578125	-12.80769230769231	-16.26403430436657	22.16325367986697	-57.73931250544953	-17.3289730112828	9.383695231676359	3517.230769230769	3639.560439560439	0.3973268529769137	0.2627737226277372	0.5138705416116248
7709.014892578125	-11.84615384615385	-16.60334421383261	22.78259530701484	-55.89522056444748	-15.95144858287166	10.60351935246882	3502.666666666666	3646.886446886447	0.3912515188335358	0.267639902676399	0.5099075297225891
7728.546142578125	-11.42307692307692	-17.47857516782657	21.89029685286691	-55.90223387436955	-17.82138177454469	10.99305341895743	3515.774358974359	3651.282051282051	0.4155528554070473	0.2846715328467153	0.5006605019815059
7748.077392578125	-12.26923076923077	-16.79127147872144	21.06357393607194	-55.00279210400887	-21.1110980398701	12.17565163451894	3515.774358974359	3649.81684981685	0.4058323207776428	0.2907542579075426	0.4980184940554822
7767.608642578125	-11.57692307692308	-18.04906232678451	21.722347108456	-55.02601164959427	-28.12139932975367	13.73843387830044	3512.861538461538	3651.282051282051	0.4143377885783718	0.2980535279805353	0.4914134742404227
7787.139892578125	-12.69230769230769	-18.01310278992425	21.03975488082774	-55.49255411588296	-34.64873210565409	15.31047903642882	3530.338461538461	3660.07326007326	0.3997569866342648	0.3077858880778589	0.4834874504623514
7806.671142578125	-13.88461538461539	-18.6985049578124	19.96370942908173	-55.87161562585496	-35.05787025192057	17.75915786190261	3521.6	3658.608058608058	0.4204131227217496	0.3175182481751825	0.4861294583883752
7826.202392578125	-13.65384615384616	-18.47135400628195	19.91385416025128	-54.86753773858516	-31.75216769524223	20.23115370043343	3514.317948717948	3668.864468864469	0.4106925880923451	0.3248175182481752	0.4729194187582563
7845.733642578125	-13.23076923076923	-19.38507729260331	19.02309539939644	-55.28185849467108	-28.45261032040764	20.26829248174263	3528.882051282051	3671.794871794872	0.4106925880923451	0.3284671532846715	0.4702774108322325
7865.264892578125	-14.15384615384616	-20.67629488205949	19.122436410667	-56.611827256781	-27.00370477845818	20.29608122478323	3531.794871794872	3671.794871794872	0.4155528554070473	0.3442822384428224	0.4544253632760898
7884.796142578125	-13.30769230769231	-21.37822565744904	18.75743671860565	-57.1022564276232	-25.15140541185557	18.27869218362706	3514.317948717948	3665.934065934066	0.4240583232077764	0.3503649635036497	0.4451783355350066
7904.327392578125	-14.46153846153846	-21.59786290570919	17.43160682392067	-58.94246359945146	-21.39635445761743	15.47750190774487	3530.338461538461	3661.538461538461	0.416767922235723	0.364963503649635	0.4332892998678996
7923.858642578125	-14.76923076923077	-22.28000862228244	17.2312003448913	-59.82910944085807	-20.43041742965112	15.4960277364386	3520.14358974359	3657.142857142857	0.4143377885783718	0.3588807785888078	0.429326287978864
7943.389892578125	-13.34615384615385	-22.65155970930591	17.07798546529531	-58.73707613480703	-13.3380921962592	19.63766330877323	3496.841025641026	3663.003663003663	0.4216281895504253	0.3734793187347932	0.4240422721268164
7962.921142578125	-12.96153846153846	-21.43743456303504	17.52557430559833	-60.10306037145639	-16.5757087068342	20.0271102513401	3537.620512820513	3671.794871794872	0.4289185905224787	0.3795620437956205	0.4266842800528402
7982.452392578125	-12.53846153846154	-23.11484572273203	18.28074767506313	-58.75233344554125	-23.14160420031044	22.39692361898292	3515.774358974359	3674.725274725275	0.4119076549210206	0.3856447688564477	0.4095112285336856
8001.983642578125	-12.15384615384616	-23.8415039724087	17.69058323581943	-56.08225407065108	-27.43212428351258	23.14364415501424	3552.184615384615	3682.051282051282	0.4179829890643985	0.3892944038929441	0.4029062087186262
8021.514892578125	-13.92307692307692	-22.55390466219129	16.6183100326415	-52.97321100669594	-35.00661631042679	24.66946186533004	3541.989743589743	3684.981684981685	0.4204131227217496	0.3941605839416059	0.3936591809775429
8041.046142578125	-14.80769230769231	-24.04604452793004	17.10991870419413	-54.3027053063413	-35.88928272139768	25.49025667482902	3544.902564102564	3686.446886446886	0.4349939246658566	0.413625304136253	0.381770145310436
8060.577392578125	-14.34615384615385	-26.03754542095215	16.22342489376116	-52.39795495782077	-29.80965080933958	27.16465855168889	3555.097435897435	3690.84249084249	0.4216281895504253	0.4184914841849148	0.380449141347424
8080.108642578125	-12.76923076923077	-26.4098355607563	15.95331649935333	-48.8755400627088	-36.02055630524767	27.06732534777869	3546.358974358974	3689.377289377289	0.4143377885783718	0.440389294403893	0.3606340819022457
8099.639892578125	-12.38461538461539	-25.28578247213155	15.13527745273142	-43.17082088526515	-45.60075275581117	26.09814966088637	3517.230769230769	3679.120879120879	0.4119076549210206	0.4452554744525548	0.3527080581241744
8119.171142578125	-13.65384615384616	-25.58858625361828	14.23700498860627	-42.4499440307507	-55.53264413650784	23.54264238669753	3534.707692307692	3680.58608058608	0.4228432563791008	0.4428223844282239	0.3447820343461031
8138.702392578125	-14.84615384615385	-26.89987374514996	13.685994949806	-42.84180146967676	-53.61800304541522	24.79019716791608	3531.794871794872	3682.051282051282	0.4191980558930741	0.440389294403893	0.3342140026420079
8158.233642578125	-15.11538461538462	-25.81906294266182	13.7608394407834	-44.04249118189853	-45.5580932503395	26.92361948951967	3553.641025641025	3689.377289377289	0.4325637910085055	0.4574209245742092	0.3210039630118891
8177.764892578125	-14.26923076923077	-26.89898842150643	13.06480569070641	-43.9523561472981	-40.37096885876147	28.19907917900781	3533.251282051282	3684.981684981685	0.416767922235723	0.4610705596107056	0.3183619550858652
8197.296142578125	-15.15384615384616	-28.22869064482355	13.12683993348525	-43.9668572296068	-41.77926328918718	28.18514124552664	3547.815384615385	3687.912087912088	0.4216281895504253	0.4732360097323601	0.3064729194187583
8216.827392578125	-15.03846153846154	-29.54202592843506	13.29360411406048	-43.52135469308432	-40.86173008830587	27.78169828686411	3539.076923076923	3686.446886446886	0.416767922235723	0.4768856447688565	0.2906208718626156
8236.358642578125	-14.88461538461539	-29.19017521709676	12.85491470099156	-45.32677708126319	-38.48380270224843	26.5990419886881	3552.184615384615	3687.912087912088	0.425273390036452	0.4914841849148419	0.2840158520475561
8255.889892578125	-15.73076923076923	-30.29738406109503	13.29227997782842	-45.27360644613132	-33.32005645735414	26.65014774478573	3555.097435897435	3687.912087912088	0.4216281895504253	0.4829683698296837	0.2747688243064729
8275.421142578125	-14.96153846153846	-31.32266582496767	11.86406047915255	-43.40316641879561	-28.19487293003569	27.4990217103978	3552.184615384615	3684.981684981685	0.4191980558930741	0.5012165450121655	0.2536327608982827
8294.952392578125	-13.30769230769231	-31.09676972347108	12.37694771201577	-39.84378712421509	-34.38240027926002	28.62604243987812	3539.076923076923	3689.377289377289	0.4131227217496962	0.4975669099756691	0.2483487450462351
8314.483642578125	-13.07692307692308	-30.89194432469052	9.597216234526082	-35.97519765292233	-48.13333187240234	27.63352069862152	3543.446153846154	3686.446886446886	0.4094775212636695	0.4914841849148419	0.249669749009247
8334.014892578125	-14.34615384615385	-29.62580064051241	9.097724333312804	-37.90193685613819	-55.15961945363884	25.54170888831071	3540.533333333333	3683.516483516483	0.4119076549210206	0.51338199513382	0.2324966974900925
8353.546142578125	-16.61538461538462	-30.41380796945249	8.459629241855023	-39.22005861422313	-51.37134924320777	25.18460954268974	3541.989743589743	3687.912087912088	0.402187120291616	0.5085158150851582	0.2245706737120211
8373.077392578125	-16.19230769230769	-29.54379657572212	8.766751863028885	-42.2201063296308	-34.40043496456087	24.15982936671192	3541.989743589743	3680.58608058608	0.4058323207776428	0.5145985401459854	0.225891677675033
8392.608642578125	-15.34615384615385	-31.13951930775389	8.860580772310156	-39.88748306764473	-25.54892209107092	24.22501826282696	3528.882051282051	3676.190476190476	0.4082624544349939	0.5194647201946472	0.214002642007926
8412.139892578125	-13.57692307692308	-32.05374299439552	8.571765104391206	-39.41515798232404	-23.21530174420265	24.24363121544244	3541.989743589743	3680.58608058608	0.4034021871202916	0.5279805352798054	0.1822985468956407
8431.671142578125	-14.26923076923077	-31.75749060787091	7.912991932007144	-35.94325964406024	-35.52102372306091	24.49401827757734	3549.271794871795	3683.516483516483	0.4009720534629404	0.5218978102189781	0.1941875825627477
8451.202392578125	-14.15384615384616	-31.71127671367864	7.409989530085607	-34.17385273042082	-42.58547316164282	26.03833277527961	3530.338461538461	3686.446886446886	0.4009720534629404	0.5304136253041363	0.1928665785997358
8470.733642578125	-15.26923076923077	-32.37741731847017	7.217019769661883	-32.86634728547077	-42.64946241985032	24.80012803232967	3550.728205128205	3684.981684981685	0.3900364520048603	0.5352798053527981	0.1717305151915456
8490.264892578125	-14.26923076923077	-32.23017644885139	6.547283981030978	-29.78024200114005	-46.50746621010222	24.32252367627772	3543.446153846154	3683.516483516483	0.393681652490887	0.5304136253041363	0.1651254953764861
8509.796142578125	-14.26923076923077	-32.99001508899428	6.077677526636695	-27.66125020461056	-53.64779441034871	22.59727741508547	3544.902564102564	3684.981684981685	0.3961117861482381	0.5413625304136254	0.154557463672391
8529.327392578125	-15.92307692307692	-32.24128533596107	4.910420644207674	-25.56690134106012	-60.8037080417177	20.05579519829954	3539.076923076923	3673.260073260073	0.3851761846901579	0.5401459854014599	0.1532364597093791
8548.858642578125	-15.23076923076923	-32.11566176017737	3.706164931945557	-23.89123246523394	-67.46106772798103	18.33981185145416	3517.230769230769	3664.468864468864	0.3827460510328068	0.537712895377129	0.1387054161162483
8568.389892578125	-16.96153846153846	-31.98513426125516	4.679789985834822	-26.64974172136992	-64.62559836857211	15.13044551516063	3543.446153846154	3661.538461538461	0.3948967193195626	0.5474452554744526	0.1387054161162483
8587.921142578125	-18.03846153846154	-31.67818100634354	3.87058877871528	-24.2349456596346	-47.79375038933646	15.27461603433563	3518.687179487179	3660.07326007326	0.3948967193195626	0.5413625304136254	0.11889035667107
8607.452392578125	-16.88461538461539	-31.94200745211554	4.369603375007698	-26.22873587195329	-26.11663183914675	16.32765165257296	3512.861538461538	3660.07326007326	0.3827460510328068	0.5486618004866181	0.1096433289299868
8626.983642578125	-15.84615384615385	-30.89942723409497	5.048284781671491	-28.31749481297531	-10.09606915734366	16.10058160349509	3518.687179487179	3655.677655677655	0.3839611178614824	0.5474452554744526	0.1136063408190225
8646.514892578125	-14.46153846153846	-32.34954117139866	5.015520108394408	-28.81977098784248	-10.58313445922265	14.46808065100048	3520.14358974359	3651.282051282051	0.3815309842041312	0.5437956204379563	0.107001321003963
8666.046142578125	-14.61538461538462	-32.32570671922153	3.977643653384246	-28.45208201943091	-14.84493293435813	13.19729598064664	3524.51282051282	3661.538461538461	0.3754556500607533	0.5474452554744526	0.0964332892998679
8685.577392578125	-14.30769230769231	-32.22710476073166	4.509084190429267	-27.15907765678955	-16.31721662299135	11.94515330421553	3514.317948717948	3651.282051282051	0.3791008505467801	0.5535279805352799	0.08586525759577279
8705.108642578125	-14.23076923076923	-32.84219683439059	4.417534027221778	-24.47497166205523	-16.86787032284741	11.91280570726963	3502.666666666666	3649.81684981685	0.3766707168894289	0.5547445255474452	0.09247027741083223
8724.639892578125	-14.96153846153846	-32.34733171152307	5.405047114614769	-22.2535233644358	-18.81328141595461	11.87113711336236	3483.733333333333	3646.886446886447	0.3693803159173754	0.551094890510949	0.0726552179656539
8744.171142578125	-14.96153846153846	-32.78768399334852	4.34573812896471	-20.91483613904919	-14.66018009844622	10.26662819305909	3523.05641025641	3648.351648351648	0.3742405832320777	0.5547445255474452	0.07397622192866579
8763.702392578125	-14.96153846153846	-32.44510223563466	4.524342550963848	-18.61292019503514	-12.35732975359252	11.49112733298585	3496.841025641026	3648.351648351648	0.3778857837181044	0.5486618004866181	0.06605019815059446
8783.233642578125	-15.03846153846154	-32.3057753895424	5.327231015581696	-16.87223368005212	-11.51157852647996	9.441361653576536	3491.015384615384	3641.025641025641	0.3572296476306197	0.551094890510949	0.06472919418758256
8802.764892578125	-14.65384615384616	-33.63522356346616	4.107332019461723	-15.10254500045172	-7.849238438515969	7.41947184112956	3509.948717948718	3645.421245421245	0.370595382746051	0.5547445255474452	0.06605019815059446
8822.296142578125	-15.19230769230769	-32.85932592227628	4.312449959967974	-12.00990086866348	-7.505737084174479	5.759327352130604	3489.558974358974	3636.630036630037	0.3633049817739976	0.5535279805352799	0.05151915455746367
8841.827392578125	-13.96153846153846	-32.7759361335222	4.681422060725504	-9.821057738874259	-6.673522894236503	3.704944736201479	3509.948717948718	3632.234432234432	0.3645200486026731	0.5535279805352799	0.04359313077939234
8861.358642578125	-14.15384615384616	-33.61587731723841	4.563096631151074	-6.296937690407678	-9.152354722359771	2.420425421517213	3489.558974358974	3623.443223443223	0.3645200486026731	0.5498783454987835	0.05416116248348745
8880.889892578125	-14.03846153846154	-33.69514842643345	2.642036706288108	-2.809782041409651	-11.6545646971668	-0.08844782655757144	3501.210256410256	3626.373626373626	0.3620899149453219	0.5547445255474452	0.04491413474240423
8900.421142578125	-13.23076923076923	-34.25158588409189	2.733140358440599	0.2441925375554144	-15.06651515729388	-1.785760138172982	3498.297435897436	3620.51282051282	0.3669501822600243	0.5498783454987835	0.05416116248348745
8919.952392578125	-13.65384615384616	-33.31938627825337	2.700083143437827	3.736656343120888	-19.43086560821268	-3.496981341962315	3479.364102564102	3617.582417582417	0.3633049817739976	0.5474452554744526	0.05680317040951123
8939.483642578125	-14.19230769230769	-33.42034396748168	2.517198374083883	5.014685160989009	-19.97987177435126	-5.556068018332994	3492.471794871794	3610.25641025641	0.3633049817739976	0.5571776155717761	0.04227212681638045
8959.014892578125	-14.5	-32.98544219991378	2.233648457227321	6.843801557217824	-17.67906982344548	-5.143187897480101	3477.907692307692	3613.186813186813	0.3718104495747266	0.5571776155717761	0.05151915455746367
8978.546142578125	-14.07692307692308	-32.78442754203363	1.375223255527499	6.803708617001	-14.43980577915299	-7.559373919471743	3476.451282051281	3604.395604395604	0.3681652490886999	0.5462287104622872	0.04359313077939234
8998.077392578125	-13.84615384615385	-32.45103775327954	1.782656894746566	6.790912688046934	-12.11602654179388	-8.760497963726978	3470.625641025641	3598.534798534799	0.3693803159173754	0.5547445255474452	0.04227212681638045
9017.608642578125	-15.19230769230769	-33.19189967358502	1.710368294635709	7.201155978455486	-7.489797819811507	-11.5754809665541	3474.994871794872	3594.139194139194	0.3608748481166464	0.5450121654501217	0.04491413474240423
9037.139892578125	-15.26923076923077	-32.7515627886925	0.924293280778469	7.251672535303635	-1.394981336861328	-11.9232012325992	3476.451282051281	3594.139194139194	0.3742405832320777	0.5498783454987835	0.03830911492734478
9056.671142578125	-13.46153846153846	-32.34010285151198	1.620527190983556	8.152344996554389	1.378948018518435	-12.72079519427015	3563.835897435898	3696.703296703297	0.3778857837181044	0.5498783454987835	0.04623513870541612
9076.202392578125	-13.92307692307692	-33.08155755373529	0.693262302149412	9.034157143858101	-0.05642048625644444	-12.74396700079094	3540.533333333333	3698.168498168498	0.3681652490886999	0.5474452554744526	0.03302509907529723
9095.733642578125	-13.46153846153846	-32.75274065406171	1.098571164624007	9.017476445730235	-2.865216631546622	-12.36372488995644	3560.923076923077	3699.6336996337	0.370595382746051	0.5486618004866181	0.04359313077939234
9115.264892578125	-14.65384615384616	-32.17790386155078	0.4721161544620313	9.933598914218779	-3.346136751581856	-11.56136878522943	3473.538461538461	3597.069597069597	0.3730255164034022	0.5498783454987835	0.05019815059445178
9134.796142578125	-14.42307692307692	-31.88146671183101	0.8041048223193942	10.82337329637366	-7.574715970524411	-10.38806252532204	3456.061538461538	3592.673992673992	0.3888213851761846	0.551094890510949	0.05019815059445178
9154.327392578125	-14.65384615384616	-31.55663761778654	0.1780347354806924	10.82868145294111	-9.436856446636194	-9.590410481036587	3486.646153846154	3602.930402930403	0.3766707168894289	0.5437956204379563	0.047556142668428
9173.858642578125	-14.38461538461539	-31.38721746628071	1.053181006343537	10.81200075481324	-12.24565259192637	-9.210168370202089	3482.276923076923	3602.930402930403	0.3791008505467801	0.5413625304136254	0.05284015852047556
9193.389892578125	-13.88461538461539	-31.76280254973209	0.1016659481431299	9.053684616773259	-11.2370560584884	-8.366172712875065	3483.733333333333	3604.395604395604	0.3827460510328068	0.5401459854014599	0.05416116248348745
9212.921142578125	-14.15384615384616	-31.64968898195479	0.4844490977397302	8.184193935959064	-9.793894838152268	-7.934882928557439	3488.102564102564	3605.860805860806	0.370595382746051	0.5413625304136254	0.05284015852047556
9232.452392578125	-14.57692307692308	-32.05933208104946	0.2358348217035169	6.905690655626394	-6.913316719093338	-6.668802318645156	3469.169230769231	3607.326007326007	0.3839611178614824	0.5450121654501217	0.05680317040951123
9251.983642578125	-14.07692307692308	-31.69278499722855	0.6392498614276037	4.695614899567392	-0.2969690045841785	-7.805027879857842	3493.928205128205	3602.930402930403	0.3924665856622114	0.5486618004866181	0.059445178335535
9271.514892578125	-14.34615384615385	-32.34643868941307	0.8988575475765228	4.283948221765194	2.071518132194513	-7.36906307640591	3472.082051282051	3602.930402930403	0.3815309842041312	0.5450121654501217	0.05416116248348745
9291.046142578125	-14.38461538461539	-32.62436102728336	1.371897518014412	2.949145765552381	3.050992197335403	-7.345920311192373	3485.189743589744	3610.25641025641	0.3851761846901579	0.5413625304136254	0.05284015852047556
9310.577392578125	-13.88461538461539	-33.35792480137957	1.011624684362875	2.944312071449484	2.581560720526831	-7.350566289019429	3488.102564102564	3607.326007326007	0.3863912515188335	0.5450121654501217	0.0488771466314399
9330.108642578125	-14.53846153846154	-32.84302826876886	0.9206442076738315	2.932465067424515	0.2421960520452245	-6.965678200357874	3476.451282051281	3607.326007326007	0.3888213851761846	0.5364963503649636	0.05416116248348745
9349.639892578125	-14.61538461538462	-32.80763071996058	1.150766767259962	2.033497759528387	1.200340364450281	-7.355270349460985	3501.210256410256	3607.326007326007	0.3900364520048603	0.5437956204379563	0.05548216644649934
9369.171142578125	-14.30769230769231	-32.36028823058447	1.552873067684917	2.501463613210727	0.7329572815896296	-6.54829730821417	3482.276923076923	3608.791208791209	0.3985419198055893	0.5450121654501217	0.059445178335535
9388.702392578125	-13.38461538461539	-32.56411282872452	1.205641436225904	2.506297307313624	1.202388758398201	-6.543651330387113	3473.538461538461	3608.791208791209	0.3851761846901579	0.5328467153284672	0.0488771466314399
9408.233642578125	-14.15384615384616	-32.53039354560572	2.211984972593459	2.506297307313624	1.202388758398201	-6.543651330387113	3493.928205128205	3607.326007326007	0.3924665856622114	0.5450121654501217	0.05812417437252312
9427.764892578125	-14.26923076923077	-31.89298361766337	1.22610396009115	2.099938786078873	1.708735419065109	-5.310034482649728	3483.733333333333	3611.721611721612	0.3948967193195626	0.5413625304136254	0.05416116248348745
9447.296142578125	-14.38461538461539	-31.80139496212355	0.6082096446387879	2.57273833386411	1.710783813013029	-4.498415463575856	3483.733333333333	3616.117216117216	0.3912515188335358	0.5401459854014599	0.059445178335535
9466.827392578125	-13.73076923076923	-31.83051826076246	1.410528422738191	3.045537881649349	1.712832206960949	-3.686796444501986	3482.276923076923	3614.652014652014	0.3924665856622114	0.5316301703163017	0.04623513870541612
9486.358642578125	-14.26923076923077	-32.22016844244627	2.200729814620928	4.836459187519532	-2.073389609522198	-2.518078079807152	3473.538461538461	3616.117216117216	0.3973268529769137	0.5352798053527981	0.05812417437252312
9505.889892578125	-14.80769230769231	-32.58903276467327	1.951638233663855	3.920811181495538	-3.92404144240732	-2.527428118075763	3489.558974358974	3620.51282051282	0.3973268529769137	0.5425790754257908	0.05284015852047556
9525.421142578125	-14.30769230769231	-31.66819609533781	1.563650920736589	3.928298953882158	-4.38568020365464	-2.12395611810598	3495.384615384615	3619.047619047619	0.3900364520048603	0.5231143552311436	0.05548216644649934
9544.952392578125	-14.76923076923077	-32.04243394715773	1.506312742501694	3.543929287342718	-2.932677873809339	-0.4729293369176429	3479.364102564102	3621.978021978022	0.3997569866342648	0.537712895377129	0.0488771466314399
9564.483642578125	-14.46153846153846	-31.28484325922277	1.78062449959968	3.592740690836241	-0.5699350586439781	0.3665365078113202	3491.015384615384	3626.373626373626	0.3948967193195626	0.5413625304136254	0.05680317040951123
9584.014892578125	-14.34615384615385	-32.57816253002402	0.9465880396624994	3.156905542519556	-0.5486053059081446	0.7792714221279677	3501.210256410256	3626.373626373626	0.4034021871202916	0.5401459854014599	0.0488771466314399
9603.546142578125	-14.03846153846154	-32.0923277083205	1.347154646794359	3.602882541506584	-1.96264405794719	1.168834529923829	3489.558974358974	3624.908424908425	0.3948967193195626	0.5316301703163017	0.06472919418758256
9623.077392578125	-15.07692307692308	-32.57984849417996	1.761655478228737	3.17453516557652	-2.402953066458677	1.98504144421026	3498.297435897436	3627.838827838828	0.3912515188335358	0.5316301703163017	0.05812417437252312
9642.608642578125	-14.73076923076923	-32.34420613413808	1.171845168442446	3.179368859679417	-1.933521589650106	1.989687422037317	3493.928205128205	3630.769230769231	0.3912515188335358	0.5437956204379563	0.05019815059445178
9662.139892578125	-14.76923076923077	-32.44968282318163	0.7149103898503421	3.145058538494587	-2.887969974389752	1.164159510789524	3499.753846153846	3623.443223443223	0.3985419198055893	0.5413625304136254	0.05416116248348745
9681.671142578125	-15.19230769230769	-32.6560864075876	1.842781917841966	3.563738526218856	-3.386523919495407	0.3386606408489797	3502.666666666666	3632.234432234432	0.3863912515188335	0.5352798053527981	0.06340819022457067
9701.202392578125	-14.76923076923077	-32.46277021617294	1.369280039416149	4.455218061728363	-3.883029470653144	0.3247807899823073	3479.364102564102	3624.908424908425	0.3973268529769137	0.5389294403892945	0.06605019815059446
9720.733642578125	-15.15384615384616	-32.24882983309725	0.6722608856315822	4.425266972181883	-2.036474425663862	-1.289107209896825	3492.471794871794	3621.978021978022	0.3924665856622114	0.537712895377129	0.05812417437252312
9740.264892578125	-15.26923076923077	-32.48904508221963	1.2599464186734	3.541275209058995	-2.001607635753447	-0.8717553590603692	3486.646153846154	3624.908424908425	0.3888213851761846	0.537712895377129	0.05548216644649934
9759.796142578125	-15.42307692307692	-32.02485834821703	1.281378949313297	2.632640512957072	-1.982326276965533	-1.270639463817593	3511.405128205128	3629.304029304029	0.393681652490887	0.5401459854014599	0.04359313077939234
9779.327392578125	-14.80769230769231	-32.3072688920367	1.324983063373776	3.066296045454583	-3.40415774456583	-1.289194333818571	3498.297435897436	3624.908424908425	0.3973268529769137	0.5364963503649636	0.059445178335535
9798.858642578125	-15.15384615384616	-31.87776374946111	1.349725934593829	2.635294591240796	-2.913396515021425	-0.871813441674867	3491.015384615384	3626.373626373626	0.3876063183475091	0.5364963503649636	0.04623513870541612
9818.389892578125	-14.76923076923077	-31.742193755004	1.87891851943093	2.167328737558455	-2.446013432160774	-1.678786482921682	3509.948717948718	3623.443223443223	0.3900364520048603	0.5462287104622872	0.06208718626155878
9837.921142578125	-15.46153846153846	-31.64456180328878	1.535782472131551	2.640128285343693	-2.443965038212853	-0.8671674638478103	3477.907692307692	3616.117216117216	0.4009720534629404	0.5304136253041363	0.05416116248348745
9857.452392578125	-14.5	-32.14322996859026	0.5076522756666873	1.741160977447565	-1.485820725807797	-1.256759612950921	3482.276923076923	3620.51282051282	0.3876063183475091	0.5413625304136254	0.05416116248348745
9876.983642578125	-15.03846153846154	-31.6144531009423	1.530347354806922	2.209126831129905	-1.953203808668449	-0.449786571704106	3463.343589743589	3619.047619047619	0.3973268529769137	0.5450121654501217	0.05812417437252312
9896.514892578125	-14.96153846153846	-32.96936780193386	1.891467019769662	0.8373599754485395	-0.9971078902113126	-1.650997739881088	3495.384615384615	3627.838827838828	0.3997569866342648	0.5316301703163017	0.05548216644649934
9916.046142578125	-15.23076923076923	-32.45054505142576	1.219560263595492	0.8400140537322623	-1.928178128267204	-1.252171717738362	3498.297435897436	3623.443223443223	0.3985419198055893	0.5486618004866181	0.05680317040951123
9935.577392578125	-15.15384615384616	-32.28270308554536	2.365923508037199	1.314993217336675	-0.5256280194548209	-0.8347327429801598	3480.820512820513	3623.443223443223	0.3948967193195626	0.5340632603406327	0.0607661822985469
9955.108642578125	-15.03846153846154	-32.56829309601527	1.145424031532919	1.300017672563434	0.3976495030398198	-1.641676742919726	3488.102564102564	3620.51282051282	0.3851761846901579	0.5364963503649636	0.06472919418758256
9974.639892578125	-14.65384615384616	-31.50967697234711	1.676156309663115	0.8470273636543343	-0.05824493659416952	-1.641705784226975	3482.276923076923	3621.978021978022	0.3961117861482381	0.5364963503649636	0.05812417437252312
9994.171142578125	-14.84615384615385	-32.46663484633861	1.639434624622775	0.8223844306752989	-0.07383036771667204	-2.457941739820654	3493.928205128205	3617.582417582417	0.3851761846901579	0.5425790754257908	0.05151915455746367
10013.70239257813	-15.53846153846154	-32.5422183900967	2.264765658680791	1.731019126777222	-0.09311172650458524	-2.05905763506343	3470.625641025641	3616.117216117216	0.3851761846901579	0.5328467153284672	0.06472919418758256
10033.23364257813	-15.23076923076923	-32.29965510870235	1.367370819732709	1.250731806605363	0.3664786407948148	-3.274148654107085	3492.471794871794	3617.582417582417	0.4009720534629404	0.5340632603406327	0.05284015852047556
10052.76489257813	-14.96153846153846	-32.03862320625731	1.508083389788754	1.698888421411566	0.3529416036202325	-3.278765590626893	3482.276923076923	3617.582417582417	0.3876063183475091	0.5401459854014599	0.05151915455746367
10072.29614257813	-15.03846153846154	-32.34965664839564	1.752063189012749	1.272720661300676	1.313134309973209	-2.856738720656131	3495.384615384615	3621.978021978022	0.3912515188335358	0.5425790754257908	0.047556142668428
10091.82739257813	-14.65384615384616	-32.86229753033196	1.999491901213278	1.725710970209776	1.769028749607199	-2.856709679348882	3496.841025641026	3619.047619047619	0.3948967193195626	0.5316301703163017	0.05416116248348745
10111.35864257813	-14.80769230769231	-31.91541694894377	0.9631551394962123	2.184009435686322	0.3627827131294041	-2.059028593756181	3476.451282051281	3608.791208791209	0.393681652490887	0.5425790754257908	0.04359313077939234
10130.88989257813	-14.42307692307692	-32.46962954979368	1.36609287429944	2.176521663299702	0.8244214743767244	-2.462500593725964	3474.994871794872	3617.582417582417	0.3924665856622114	0.5352798053527981	0.05812417437252312
10150.42114257813	-14.5	-32.02082435178913	2.079679127917719	2.171687969196804	0.3549899975681528	-2.467146571553021	3492.471794871794	3619.047619047619	0.3961117861482381	0.5340632603406327	0.06340819022457067
10169.95239257813	-14.42307692307692	-33.01468097554967	1.695587239021987	2.661642677574457	0.8342625838858959	-1.242763596855253	3482.276923076923	3620.51282051282	0.3791008505467801	0.5450121654501217	0.06208718626155878
10189.48364257813	-14.73076923076923	-32.34266644084499	1.094860503787645	2.205998290381634	1.309438382307798	-1.641618660305228	3499.753846153846	3623.443223443223	0.3876063183475091	0.537712895377129	0.0607661822985469
10209.01489257813	-14.26923076923077	-32.28406571410975	1.549439551641313	2.213486062768255	0.8477996210604781	-1.238146660335445	3492.471794871794	3623.443223443223	0.3900364520048603	0.5364963503649636	0.06340819022457067
10228.54614257813	-14.88461538461539	-31.99857578370389	1.351866108271232	1.753007981472534	0.8535439426738091	-1.641647701612477	3512.861538461538	3626.373626373626	0.3912515188335358	0.5413625304136254	0.05416116248348745
10248.07739257813	-14.53846153846154	-31.85762456118741	1.650458828601343	2.651975289368662	-0.1046003697312472	-1.252055552509366	3491.015384615384	3623.443223443223	0.4034021871202916	0.5364963503649636	0.059445178335535
10267.60864257813	-14.26923076923077	-32.0923738991193	1.580233417503234	2.198984980459562	-0.5604948093652366	-1.252084593816615	3479.364102564102	3613.186813186813	0.3888213851761846	0.5437956204379563	0.05812417437252312
10287.13989257813	-14.88461538461539	-32.15793403953933	1.627471207735419	2.191497208072942	-0.09885604811791622	-1.655556593786398	3493.928205128205	3621.978021978022	0.3997569866342648	0.5413625304136254	0.06605019815059446
10306.67114257813	-14.73076923076923	-32.18638757159574	0.9732247336330602	1.755662059756257	-0.07752629538208272	-1.24282167946975	3482.276923076923	3621.978021978022	0.3912515188335358	0.5364963503649636	0.06208718626155878
10326.20239257813	-15.19230769230769	-31.53903892344645	1.759638480014781	2.65680898347156	0.3648311070773244	-1.24740957468231	3485.189743589744	3623.443223443223	0.4034021871202916	0.5437956204379563	0.0607661822985469
10345.73364257813	-14.84615384615385	-31.57900166286876	1.488544681899366	1.726185432674324	-0.5625432033131568	-2.063703612890487	3488.102564102564	3617.582417582417	0.3985419198055893	0.5401459854014599	0.04491413474240423
10365.26489257813	-15.03846153846154	-31.30420490238345	1.402552811479953	1.721351738571427	-1.031974680121728	-2.068349590717543	3493.928205128205	3617.582417582417	0.3985419198055893	0.5486618004866181	0.06340819022457067
10384.79614257813	-14.80769230769231	-31.35111935702408	1.594429389665579	2.188843129789219	0.8322141899379756	-2.054382615929124	3485.189743589744	3616.117216117216	0.3924665856622114	0.5401459854014599	0.07133421400264201
10404.32739257813	-14.11538461538462	-31.66507821641929	1.215449282502926	2.198510517995014	1.771077143555119	-2.045090660275011	3496.841025641026	3619.047619047619	0.3900364520048603	0.5340632603406327	0.059445178335535
10423.85864257813	-14.34615384615385	-32.01771417133707	1.770323951468868	3.092644131788245	0.3435013543414909	-1.660144488998957	3480.820512820513	3613.186813186813	0.402187120291616	0.5486618004866181	0.05548216644649934
10443.38989257813	-13.69230769230769	-31.91673338670937	1.836669335468375	3.068475661273757	-2.003656029701367	-1.683374378134241	3472.082051282051	3620.51282051282	0.3985419198055893	0.5340632603406327	0.0607661822985469
10462.92114257813	-15.03846153846154	-30.83613814128226	1.076137833343598	2.605343501694314	-1.066841470032144	-2.485701441553999	3486.646153846154	3616.117216117216	0.3948967193195626	0.5450121654501217	0.06605019815059446
10482.45239257813	-15	-31.69758884030301	1.802518938227505	3.959955196783265	-2.500161580859103	-1.697254229000913	3474.994871794872	3620.51282051282	0.393681652490887	0.537712895377129	0.05019815059445178
10501.98364257813	-14.80769230769231	-32.38502340333805	1.366554782287368	2.610177195797212	-0.5974099932235725	-2.481055463726942	3492.471794871794	3619.047619047619	0.3851761846901579	0.5304136253041363	0.05284015852047556
10521.51489257813	-14.73076923076923	-31.89076645932131	1.576784504526698	2.171687969196804	0.3549899975681528	-2.467146571553021	3489.558974358974	3619.047619047619	0.3876063183475091	0.5352798053527981	0.06208718626155878
10541.04614257813	-14.5	-32.28719129149474	1.936487651659789	1.726185432674324	-0.5625432033131568	-2.063703612890487	3498.297435897436	3619.047619047619	0.4009720534629404	0.5462287104622872	0.06340819022457067
10560.57739257813	-14.80769230769231	-31.7683762394531	1.303427357270432	1.721351738571427	-1.031974680121728	-2.068349590717543	3488.102564102564	3616.117216117216	0.3839611178614824	0.5413625304136254	0.0726552179656539
10580.10864257813	-14.15384615384616	-32.37180513641683	1.974872205456673	2.632640512957072	-1.982326276965533	-1.270639463817593	3474.994871794872	3616.117216117216	0.4046172539489671	0.5437956204379563	0.06737120211360634
10599.63989257813	-15.69230769230769	-31.82629180267291	1.237667056722301	1.731019126777222	-0.09311172650458524	-2.05905763506343	3496.841025641026	3619.047619047619	0.3851761846901579	0.5425790754257908	0.0607661822985469
10619.17114257813	-14.34615384615385	-31.64587824105438	2.409296668103714	1.753007981472534	0.8535439426738091	-1.641647701612477	3485.189743589744	3621.978021978022	0.393681652490887	0.5340632603406327	0.05284015852047556
10638.70239257813	-14.42307692307692	-32.51043142206073	1.483109564574737	2.647141595265765	-0.5740318465398188	-1.256701530336423	3477.907692307692	3621.978021978022	0.3912515188335358	0.5316301703163017	0.059445178335535
10658.23364257813	-15.38461538461539	-32.77237174354868	2.080125638972717	2.17699612576425	-1.507150478543631	-1.669494527267568	3499.753846153846	3623.443223443223	0.3900364520048603	0.5364963503649636	0.0488771466314399
10677.76489257813	-15.80769230769231	-31.91330756913223	1.857686148919135	2.17699612576425	-1.507150478543631	-1.669494527267568	3501.210256410256	3620.51282051282	0.3876063183475091	0.5364963503649636	0.05548216644649934
10697.29614257813	-15.19230769230769	-31.69069871281641	1.650320256204964	2.159840965171834	-1.984374670913454	-2.082258482891465	3499.753846153846	3619.047619047619	0.4009720534629404	0.537712895377129	0.05284015852047556
10716.82739257813	-14.76923076923077	-32.31188027344953	1.517090595553366	2.62998643467335	-1.051256038909642	-1.66946548596032	3491.015384615384	3620.51282051282	0.3912515188335358	0.5291970802919708	0.06340819022457067
10736.35864257813	-14.84615384615385	-32.31805444355484	1.902722177742194	2.62998643467335	-1.051256038909642	-1.66946548596032	3476.451282051281	3621.978021978022	0.3924665856622114	0.5389294403892945	0.06737120211360634
10755.88989257813	-14.80769230769231	-32.14945032949436	1.12636262856439	2.181829819867147	-1.037719001735059	-1.664848549440512	3485.189743589744	3621.978021978022	0.3948967193195626	0.5389294403892945	0.059445178335535
10775.42114257813	-15.42307692307692	-31.26271016813451	1.63550840672538	2.617664968183832	-1.059048754470893	-2.077583463757159	3485.189743589744	3617.582417582417	0.3912515188335358	0.5389294403892945	0.0726552179656539
10794.95239257813	-13.57692307692308	-31.64341473178543	1.516890435425263	1.72400581685515	-1.96304491817762	-1.669523568574817	3479.364102564102	3621.978021978022	0.3948967193195626	0.537712895377129	0.04491413474240423
10814.48364257813	-14.73076923076923	-31.52816868879719	0.7545882860134263	0.8470273636543343	-0.05824493659416952	-1.641705784226975	3496.841025641026	3620.51282051282	0.3948967193195626	0.537712895377129	0.0488771466314399
10834.01489257813	-15.03846153846154	-31.19026759869434	1.474918396255466	1.295183978460537	-0.07178197376875174	-1.646322720746783	3499.753846153846	3620.51282051282	0.3888213851761846	0.5450121654501217	0.05416116248348745
10853.54614257813	-14.34615384615385	-31.5804412760978	1.060525343351604	1.307505444950055	-0.06398925820750048	-1.238204742949943	3486.646153846154	3620.51282051282	0.4034021871202916	0.5401459854014599	0.0488771466314399
10873.07739257813	-14.73076923076923	-32.42657972531872	1.444370881320441	1.300017672563434	0.3976495030398198	-1.641676742919726	3496.841025641026	3620.51282051282	0.3985419198055893	0.537712895377129	0.06340819022457067
10892.60864257813	-14.57692307692308	-31.64669427849972	0.757790848063066	1.745994671550462	-1.016389248999226	-1.252113635123864	3482.276923076923	3624.908424908425	0.3985419198055893	0.5462287104622872	0.05151915455746367
10912.13989257813	-15.11538461538462	-31.57905555213402	1.760469914393053	0.4037044429510291	0.4247235773889843	-1.63244286988011	3498.297435897436	3620.51282051282	0.3912515188335358	0.5413625304136254	0.06340819022457067
10931.67114257813	-14.61538461538462	-32.00160128102482	1.233910205087147	1.322006527258747	1.344305172218214	-1.224266809468773	3492.471794871794	3621.978021978022	0.3924665856622114	0.537712895377129	0.0607661822985469
10951.20239257813	-14.76923076923077	-31.72756666871959	1.147564205210322	1.748648749834185	-1.947459487055118	-0.8532876129811378	3470.625641025641	3621.978021978022	0.3912515188335358	0.5218978102189781	0.05680317040951123
10970.73364257813	-17.34615384615385	-31.76580495165363	1.79024758268153	1.295658440925085	-2.403353926689107	-0.8533166542883867	3489.558974358974	3620.51282051282	0.393681652490887	0.5291970802919708	0.05812417437252312
10990.26489257813	-15.42307692307692	-31.83855545975242	1.58161914146702	1.319826911439572	-0.05619654264624922	-0.830086765153103	3477.907692307692	3620.51282051282	0.393681652490887	0.5316301703163017	0.047556142668428
11009.79614257813	-15.42307692307692	-32.14803381166472	1.670921352466589	0.4085381370539266	0.8941550541975558	-1.627796892053053	3514.317948717948	3623.443223443223	0.4009720534629404	0.537712895377129	0.04623513870541612
11029.32739257813	-14.76923076923077	-32.95393237667057	0.927388064297592	0.3817155882557166	-0.5219320917894101	-2.049852803331063	3493.928205128205	3617.582417582417	0.3876063183475091	0.5389294403892945	0.05151915455746367
11048.85864257813	-15.03846153846154	-31.6675725195541	2.263241362320626	1.278028817868122	-0.5490061661385746	-2.059086676370679	3474.994871794872	3619.047619047619	0.3888213851761846	0.5316301703163017	0.05812417437252312
11068.38989257813	-15.15384615384616	-32.35814805690707	2.29201822996859	1.289875821893091	1.790358502343032	-2.443974765032235	3507.035897435897	3620.51282051282	0.3900364520048603	0.524330900243309	0.05548216644649934
11087.92114257813	-14.42307692307692	-32.05314251401121	1.695587239021987	2.191497208072942	-0.09885604811791622	-1.655556593786398	3479.364102564102	3620.51282051282	0.3924665856622114	0.5340632603406327	0.06472919418758256
11107.45239257813	-14.84615384615385	-32.27494303134816	1.670228490484695	2.625152740570452	-1.520687515718213	-1.674111463787376	3480.820512820513	3620.51282051282	0.3924665856622114	0.5413625304136254	0.0607661822985469
11126.98364257813	-15.03846153846154	-32.53057061033442	1.182376670567223	3.536441514956098	-2.471039112562018	-0.8764013368874259	3463.343589743589	3619.047619047619	0.3900364520048603	0.5364963503649636	0.05680317040951123
