Time Stamp	Accelerometer X	Accelerometer Y	Accelerometer Z	Gyroscope X	Gyroscope Y	Gyroscope Z	VSenseReg	VSenseBatt	Magnetometer X	Magnetometer Y	Magnetometer Z
1969.757080078125	-16.92307692307692	-32.21531071010654	0.7655355053273387	-81.07290120941234	-7.146780733777911	-9.464820427896715	3463.343589743589	3592.673992673992	0.4082624544349939	0.5364963503649636	0.08586525759577279
1989.288330078125	-15.07692307692308	-31.79922399458028	1.191968959783211	-0.4111922153376494	0.03691518385833602	1.228970869910327	3491.015384615384	3624.908424908425	0.4155528554070473	0.5328467153284672	0.06737120211360634
2008.819580078125	-15.07692307692308	-32.63604729937796	0.7254418919751186	3.092644131788245	0.3435013543414909	-1.660144488998957	3460.430769230769	3617.582417582417	0.4046172539489671	0.5486618004866181	0.06737120211360634
2028.350830078125	-14.65384615384616	-32.43888187473056	0.05947835191229922	2.627332356389627	-0.1201858008537497	-2.068291508103046	3486.646153846154	3616.117216117216	0.4131227217496962	0.5364963503649636	0.07133421400264201
2047.882080078125	-15.92307692307692	-31.93719591057462	1.244410913346062	2.206472752846183	-1.022133570612557	-0.8486125938468322	3477.907692307692	3621.978021978022	0.4094775212636695	0.5340632603406327	0.0726552179656539
2067.413330078125	-15.73076923076923	-32.08188858779331	0.5944293896655787	2.201639058743285	-1.491565047421129	-0.853258571673889	3489.558974358974	3617.582417582417	0.4058323207776428	0.5218978102189781	0.06472919418758256
2086.944580078125	-15.38461538461539	-32.00945371681961	0.4726858409804767	2.179175741583424	-0.1066487636791675	-2.063674571583238	3489.558974358974	3619.047619047619	0.4082624544349939	0.5328467153284672	0.06472919418758256
2106.475830078125	-14.46153846153846	-32.28102481985589	-0.3333743918211491	2.19633090217584	0.3705754286906554	-1.650910615959341	3488.102564102564	3623.443223443223	0.4204131227217496	0.5279805352798054	0.07793923381770146
2126.007080078125	-15.15384615384616	-32.60757837038862	1.301995442507852	1.753007981472534	0.8535439426738091	-1.641647701612477	3493.928205128205	3620.51282051282	0.4119076549210206	0.5231143552311436	0.0726552179656539
2145.538330078125	-15.30769230769231	-32.51214818008253	0.5304859272033011	2.198984980459562	-0.5604948093652366	-1.252084593816615	3467.71282051282	3616.117216117216	0.4119076549210206	0.5316301703163017	0.06605019815059446
2165.069580078125	-15.65384615384616	-31.84553027037014	0.2380519800455752	2.18448389815087	-1.968789239790951	-1.266022527297785	3467.71282051282	3617.582417582417	0.4106925880923451	0.5364963503649636	0.06605019815059446
2184.600830078125	-15.57692307692308	-32.19348555767691	0.251200960768615	1.280682896151845	-1.480076404194467	-1.660260654227953	3495.384615384615	3619.047619047619	0.416767922235723	0.5364963503649636	0.06869220607661823
2204.132080078125	-15.96153846153846	-32.26515828047053	0.373298638911129	1.738506899163842	-0.5547504877519056	-1.655585635093647	3470.625641025641	3619.047619047619	0.4094775212636695	0.5364963503649636	0.06605019815059446
2223.663330078125	-15.92307692307692	-31.73087700929975	0.5438504649873746	2.191497208072942	-0.09885604811791622	-1.655556593786398	3464.8	3617.582417582417	0.4058323207776428	0.537712895377129	0.05680317040951123
2243.194580078125	-14.96153846153846	-32.29421229291125	0.8259992609472192	1.275374739584399	0.3820640719173173	-2.457912698513405	3483.733333333333	3620.51282051282	0.4131227217496962	0.5316301703163017	0.06208718626155878
2262.725830078125	-14.96153846153846	-32.0640281455934	0.8552534335160436	1.282862511971019	-0.079574689330003	-2.054440698543622	3486.646153846154	3616.117216117216	0.4034021871202916	0.5401459854014599	0.06340819022457067
2282.257080078125	-15	-31.68681098725134	1.2636262856439	1.285516590254742	-1.010644927385895	-1.655614676400896	3495.384615384615	3620.51282051282	0.4094775212636695	0.5364963503649636	0.05812417437252312
2301.788330078125	-16.03846153846154	-32.03421968343906	0.4417534027221779	1.745994671550462	-1.016389248999226	-1.252113635123864	3485.189743589744	3619.047619047619	0.4070473876063183	0.5364963503649636	0.059445178335535
2321.319580078125	-15.30769230769231	-32.53447373283242	1.646763564697912	1.748174287369637	0.3841124658652376	-1.646293679439534	3491.015384615384	3621.978021978022	0.4070473876063183	0.537712895377129	0.05812417437252312
2340.850830078125	-15.88461538461539	-32.24127763749461	1.025420336269015	1.755662059756257	-0.07752629538208272	-1.24282167946975	3483.733333333333	3619.047619047619	0.4131227217496962	0.5304136253041363	0.06208718626155878
2360.382080078125	-15.23076923076923	-32.0871774342551	0.3588717127548193	2.198984980459562	-0.5604948093652366	-1.252084593816615	3473.538461538461	3619.047619047619	0.4228432563791008	0.5304136253041363	0.06208718626155878
2379.913330078125	-16.46153846153846	-33.15212169735788	0.9907002525097003	2.181829819867147	-1.037719001735059	-1.664848549440512	3485.189743589744	3620.51282051282	0.4143377885783718	0.5291970802919708	0.06737120211360634
2399.444580078125	-15.57692307692308	-31.80240346123053	-0.07213463078154847	3.09046451596907	-1.057000360522973	-1.265964444683288	3474.994871794872	3619.047619047619	0.4216281895504253	0.5304136253041363	0.06737120211360634
2418.975830078125	-15.07692307692308	-32.06636078093244	1.087269815852682	2.634820128776247	-0.58182456210107	-1.664819508133263	3485.189743589744	3620.51282051282	0.4264884568651275	0.5328467153284672	0.06208718626155878
2438.507080078125	-15.69230769230769	-31.39363798731293	0.7588224425694403	2.186663513970045	-0.5682875249264878	-1.660202571613455	3498.297435897436	3623.443223443223	0.4106925880923451	0.5425790754257908	0.06340819022457067
2458.038330078125	-15.19230769230769	-31.76845322411776	-0.2311849479583668	2.654629367652385	-1.035670607787139	-0.8532295303666401	3477.907692307692	3620.51282051282	0.4082624544349939	0.5255474452554745	0.06605019815059446
2477.569580078125	-15.96153846153846	-32.38987343721131	0.8398257067192215	1.32466060554247	0.4132349341623223	-0.8254407873260463	3486.646153846154	3621.978021978022	0.4228432563791008	0.5389294403892945	0.06737120211360634
2497.100830078125	-15.30769230769231	-32.16879657572211	0.6705980168750385	1.319826911439572	-0.05619654264624922	-0.830086765153103	3493.928205128205	3620.51282051282	0.4155528554070473	0.5389294403892945	0.06472919418758256
2516.632080078125	-15.11538461538462	-32.51133984110366	0.2977612859518384	1.770637604529498	-1.000803817876723	-0.4358776795301846	3474.994871794872	3617.582417582417	0.4094775212636695	0.5316301703163017	0.07133421400264201
2536.163330078125	-14.80769230769231	-31.91387725565068	0.8861704748414117	0.859348830143852	-0.05045222103291825	-1.233587806430135	3493.928205128205	3621.978021978022	0.4119076549210206	0.5304136253041363	0.06737120211360634
2555.694580078125	-15.65384615384616	-31.66384646178481	0.7692461661637002	1.300017672563434	0.3976495030398198	-1.641676742919726	3495.384615384615	3620.51282051282	0.4204131227217496	0.5279805352798054	0.07397622192866579
2575.225830078125	-15.34615384615385	-31.85778622898319	0.5431576030054814	1.738506899163842	-0.5547504877519056	-1.655585635093647	3501.210256410256	3623.443223443223	0.4119076549210206	0.5364963503649636	0.06340819022457067
2594.757080078125	-15.46153846153846	-31.55987867216851	1.147779762271356	1.75082836565336	-0.5469577721906543	-1.247467657296807	3489.558974358974	3621.978021978022	0.4046172539489671	0.5328467153284672	0.06605019815059446
2614.288330078125	-15.84615384615385	-32.33981030978629	0.1443616431606825	1.327314683826192	-0.5178353038935696	-0.42661476518332	3473.538461538461	3617.582417582417	0.416767922235723	0.5316301703163017	0.05680317040951123
2633.819580078125	-15.42307692307692	-32.60763225965388	1.57392067500154	0.3940370547452343	-0.5141393762281589	-1.641734825534224	3493.928205128205	3621.978021978022	0.4119076549210206	0.5352798053527981	0.06737120211360634
2653.350830078125	-15.15384615384616	-32.56523680482848	1.107994087577755	0.8421936695514368	-0.5276764134027411	-1.646351762054031	3482.276923076923	3620.51282051282	0.4106925880923451	0.5340632603406327	0.06869220607661823
2672.882080078125	-15.30769230769231	-32.44286198189321	0.912329863891113	1.292529900176814	0.85928826428714	-2.045148742889508	3474.994871794872	3614.652014652014	0.4119076549210206	0.5413625304136254	0.0726552179656539
2692.413330078125	-15.15384615384616	-31.74381043296175	0.4212908788569316	2.661642677574457	0.8342625838858959	-1.242763596855253	3463.343589743589	3617.582417582417	0.4228432563791008	0.5364963503649636	0.07133421400264201
2711.944580078125	-15.26923076923077	-32.34739329925479	1.869664962739422	2.201164596278737	0.8400069054992269	-1.646264638132285	3486.646153846154	3621.978021978022	0.402187120291616	0.5352798053527981	0.07397622192866579
2731.475830078125	-15.23076923076923	-32.20650366447003	0.5559524542711092	1.726185432674324	-0.5625432033131568	-2.063703612890487	3508.492307692307	3620.51282051282	0.4131227217496962	0.5304136253041363	0.07133421400264201
2751.007080078125	-15.19230769230769	-31.98093089856501	0.7773141590195234	3.088284900149896	-2.457502075387436	-0.8717844003676181	3476.451282051281	3617.582417582417	0.4191980558930741	0.5389294403892945	0.06869220607661823
2770.538330078125	-15.03846153846154	-32.25496551087024	0.8636601588963477	3.095298210071968	-0.587568883714401	-1.261318466856231	3480.820512820513	3613.186813186813	0.4155528554070473	0.5364963503649636	0.06869220607661823
2790.069580078125	-15.42307692307692	-32.89709459875593	0.6624222454886986	3.560609985470585	-0.1238817285191604	-0.8531714477521423	3461.887179487179	3619.047619047619	0.4034021871202916	0.537712895377129	0.06472919418758256
2809.600830078125	-14.80769230769231	-32.78380396624992	0.1517367740346125	1.753007981472534	0.8535439426738091	-1.641647701612477	3492.471794871794	3619.047619047619	0.4228432563791008	0.5450121654501217	0.06737120211360634
2829.132080078125	-15.34615384615385	-32.46365553981647	0.0673923754388126	2.216140141051977	-0.08327061699541369	-0.8393206381927187	3477.907692307692	3619.047619047619	0.4082624544349939	0.537712895377129	0.06737120211360634
2848.663330078125	-15.34615384615385	-32.35433731600666	0.3707119541787276	1.763149832142877	-0.5391650566294031	-0.8393496794999676	3488.102564102564	3620.51282051282	0.4070473876063183	0.537712895377129	0.07397622192866579
2868.194580078125	-15.57692307692308	-32.38979645254666	0.4513610888710968	1.770637604529498	-1.000803817876723	-0.4358776795301846	3477.907692307692	3619.047619047619	0.4082624544349939	0.5401459854014599	0.0607661822985469
2887.725830078125	-15.38461538461539	-32.93096015273758	0.3941614830325799	1.307505444950055	-0.06398925820750048	-1.238204742949943	3491.015384615384	3619.047619047619	0.4119076549210206	0.5364963503649636	0.07397622192866579
2907.257080078125	-15.80769230769231	-32.85021093798115	0.6259315144423231	1.304851366666332	0.8670809798483913	-1.637030765092669	3493.928205128205	3620.51282051282	0.4082624544349939	0.5352798053527981	0.05416116248348745
2926.788330078125	-15.03846153846154	-32.09714694832789	0.6650397240869619	1.755662059756257	-0.07752629538208272	-1.24282167946975	3479.364102564102	3616.117216117216	0.4119076549210206	0.524330900243309	0.07529722589167767
2946.319580078125	-15.07692307692308	-32.36275173985342	0.5222023772864444	2.657283445936108	-1.966740845843031	-0.4544035082239138	3460.430769230769	3617.582417582417	0.4119076549210206	0.5364963503649636	0.08058124174372523
2965.850830078125	-14.65384615384616	-32.37883383629981	0.9032302765289155	1.304851366666332	0.8670809798483913	-1.637030765092669	3492.471794871794	3619.047619047619	0.4155528554070473	0.5364963503649636	0.06737120211360634
2985.382080078125	-15.69230769230769	-32.53763010408326	0.2661205887787155	2.206472752846183	-1.022133570612557	-0.8486125938468322	3474.994871794872	3623.443223443223	0.4046172539489671	0.5401459854014599	0.08058124174372523
3004.913330078125	-15.11538461538462	-32.12333713124345	0.1283950237112768	1.312339139052952	0.4054422186010711	-1.233558765122886	3492.471794871794	3620.51282051282	0.4106925880923451	0.5389294403892945	0.06869220607661823
3024.444580078125	-15.34615384615385	-31.82006374330234	0.5801102420397856	1.743340593266739	-0.08531901094333398	-1.65093965726659	3485.189743589744	3620.51282051282	0.4155528554070473	0.5352798053527981	0.07133421400264201
3043.975830078125	-15.76923076923077	-33.16661021124592	1.022818254603683	1.304851366666332	0.8670809798483913	-1.637030765092669	3504.123076923077	3621.978021978022	0.4034021871202916	0.537712895377129	0.06208718626155878
3063.507080078125	-15.61538461538462	-31.58069532549116	0.4193816591734927	1.295183978460537	-0.07178197376875174	-1.646322720746783	3496.841025641026	3620.51282051282	0.4191980558930741	0.537712895377129	0.06737120211360634
3083.038330078125	-15.96153846153846	-32.85178142514011	0.8583020262363738	2.206472752846183	-1.022133570612557	-0.8486125938468322	3469.169230769231	3617.582417582417	0.4094775212636695	0.5364963503649636	0.06605019815059446
3102.569580078125	-15.23076923076923	-31.94629549793681	1.007082589148242	1.278028817868122	-0.5490061661385746	-2.059086676370679	3499.753846153846	3616.117216117216	0.4046172539489671	0.5437956204379563	0.06869220607661823
3122.100830078125	-14.80769230769231	-32.09941029746874	0.5474379503602882	2.17699612576425	-1.507150478543631	-1.669494527267568	3472.082051282051	3619.047619047619	0.4119076549210206	0.5255474452554745	0.07397622192866579
3141.632080078125	-15.19230769230769	-32.44591827308	0.9497598078462771	2.198984980459562	-0.5604948093652366	-1.252084593816615	3474.994871794872	3617.582417582417	0.4058323207776428	0.5304136253041363	0.06605019815059446
3161.163330078125	-15.88461538461539	-32.07422091519369	0.3648919135308248	1.718697660287704	-0.1009044420658365	-2.46717561286027	3492.471794871794	3617.582417582417	0.3973268529769137	0.5218978102189781	0.06737120211360634
3180.694580078125	-15.15384615384616	-32.06945556445156	-0.6041448543450145	1.312339139052952	0.4054422186010711	-1.233558765122886	3492.471794871794	3617.582417582417	0.4094775212636695	0.5279805352798054	0.06737120211360634
3200.225830078125	-14.92307692307692	-33.02170967543265	0.6239453100942293	0.8421936695514368	-0.5276764134027411	-1.646351762054031	3507.035897435897	3621.978021978022	0.4119076549210206	0.5352798053527981	0.06340819022457067
3219.757080078125	-15.57692307692308	-31.93866631766952	0.9717774219375501	1.753482443937083	-1.478028010246546	-0.8486416351540811	3470.625641025641	3619.047619047619	0.4106925880923451	0.5364963503649636	0.06340819022457067
3239.288330078125	-15.23076923076923	-32.46825152429636	0.1818069840487775	1.743340593266739	-0.08531901094333398	-1.65093965726659	3480.820512820513	3621.978021978022	0.4216281895504253	0.537712895377129	0.07133421400264201
3258.819580078125	-15.07692307692308	-31.89545482539878	0.2342797314774898	0.8347058971648166	-0.06603765215542078	-2.049823762023814	3488.102564102564	3614.652014652014	0.4131227217496962	0.5340632603406327	0.06472919418758256
3278.350830078125	-15.96153846153846	-32.35984941799593	1.26170166902753	1.755662059756257	-0.07752629538208272	-1.24282167946975	3480.820512820513	3619.047619047619	0.416767922235723	0.5389294403892945	0.06340819022457067
3297.882080078125	-15.30769230769231	-32.48674324074644	1.183315883476012	1.755662059756257	-0.07752629538208272	-1.24282167946975	3470.625641025641	3621.978021978022	0.4034021871202916	0.5401459854014599	0.05680317040951123
3317.413330078125	-15.73076923076923	-33.24127763749461	0.8715741824228614	0.386549282358614	-0.05250061498083854	-2.045206825504006	3489.558974358974	3619.047619047619	0.4058323207776428	0.5304136253041363	0.06869220607661823
3336.944580078125	-16	-31.30516721069163	0.4891297653507423	0.366740043482476	0.4013454307052305	-2.856796803270629	3486.646153846154	3616.117216117216	0.4106925880923451	0.5340632603406327	0.07001321003963013
3356.475830078125	-15.96153846153846	-32.46454856192646	0.7274280963232126	1.267886967197779	0.8437028331646376	-2.861384698483188	3485.189743589744	3619.047619047619	0.4058323207776428	0.5328467153284672	0.06340819022457067
3376.007080078125	-14.84615384615385	-32.58904046313974	0.06740777237174367	1.270066583016953	2.244204548029101	-3.255564742798858	3485.189743589744	3616.117216117216	0.4082624544349939	0.5340632603406327	0.06340819022457067
3395.538330078125	-14.57692307692308	-31.87456888587794	0.6130596785120406	2.612356811616386	0.8030917216408909	-2.875235508042612	3470.625641025641	3614.652014652014	0.4046172539489671	0.5340632603406327	0.06605019815059446
3415.069580078125	-15.30769230769231	-32.13184393668781	0.7460429882367432	1.686566954922048	0.3451488880589813	-3.686883568423732	3496.841025641026	3611.721611721612	0.416767922235723	0.5352798053527981	0.05548216644649934
3434.600830078125	-15	-32.00398780562912	-0.1852251031594507	1.701542499695289	-0.5781286344356593	-2.879939568484166	3493.928205128205	3617.582417582417	0.425273390036452	0.5401459854014599	0.059445178335535
3454.132080078125	-15.5	-31.92941276097801	0.4321765104391206	2.627332356389627	-0.1201858008537497	-2.068291508103046	3467.71282051282	3614.652014652014	0.4034021871202916	0.5304136253041363	0.07661822985468957
3473.663330078125	-15.57692307692308	-31.88246751247152	0.08491408511424536	2.636999744595422	0.8186771527633934	-2.058999552448932	3458.974358974359	3613.186813186813	0.402187120291616	0.5328467153284672	0.06737120211360634
3493.194580078125	-15.34615384615385	-31.94015982016382	0.8156833158834761	1.745520209085914	1.31518270392113	-2.04511970158226	3464.8	3613.186813186813	0.4094775212636695	0.5340632603406327	0.06472919418758256
3512.725830078125	-15.69230769230769	-31.89249861427604	0.7018537907248877	0.8293977405973708	1.796102823956363	-2.847475806309267	3486.646153846154	3616.117216117216	0.4119076549210206	0.5328467153284672	0.06340819022457067
3532.257080078125	-16.15384615384615	-31.8055983248137	0.6645316253002402	1.263053273094881	0.374271356356066	-2.866030676310245	3485.189743589744	3613.186813186813	0.4131227217496962	0.5413625304136254	0.07001321003963013
3551.788330078125	-15.30769230769231	-32.17803473548069	1.132506004803843	1.708555809617361	1.291804557237376	-3.269473634972779	3479.364102564102	3620.51282051282	0.4204131227217496	0.5389294403892945	0.06605019815059446
3571.319580078125	-15.88461538461539	-32.80249584282811	2.163253679866971	2.585059800353628	1.71857652857428	-4.090297485779017	3482.276923076923	3610.25641025641	0.4131227217496962	0.5316301703163017	0.06605019815059446
3590.850830078125	-16.03846153846154	-31.46145377840734	2.572688920367063	3.483552645785208	3.092004169089579	-4.493711403134302	3470.625641025641	3610.25641025641	0.4143377885783718	0.5413625304136254	0.07926023778071334
3610.382080078125	-16.42307692307692	-31.23365615569379	3.105884707766213	4.430382432245762	9.159746577690594	-4.85066554221902	3473.538461538461	3611.721611721612	0.4119076549210206	0.5304136253041363	0.06737120211360634
3629.913330078125	-17.26923076923077	-32.34856346615754	3.928173307877071	6.780160854824241	18.48848364355036	-4.372712690480085	3454.605128205128	3605.860805860806	0.4179829890643985	0.5352798053527981	0.06472919418758256
3649.444580078125	-17	-32.01208659235081	4.142791156001724	8.103872535437615	23.5648624835534	-6.784165610722923	3480.820512820513	3604.395604395604	0.4119076549210206	0.5364963503649636	0.07001321003963013
3668.975830078125	-16.76923076923077	-32.96972962985773	3.717250723655848	11.65699474852158	23.90261951628156	-8.040809058444847	3498.297435897436	3602.930402930403	0.4264884568651275	0.5316301703163017	0.07397622192866579
3688.507080078125	-15.57692307692308	-32.57686918765782	4.035767075198621	14.75058780523892	19.58297696478234	-8.114941414527014	3483.733333333333	3602.930402930403	0.4082624544349939	0.5352798053527981	0.08586525759577279
3708.038330078125	-15.65384615384616	-32.75625885323644	3.466788815667919	18.21935760275445	10.53989717690032	-9.056386440993233	3461.887179487179	3601.465201465201	0.4240583232077764	0.5425790754257908	0.08322324966974901
3727.569580078125	-17.26923076923077	-32.20229260331342	2.383860934901768	19.50316903965457	5.797178581729605	-9.524815006620065	3441.497435897436	3595.604395604395	0.4191980558930741	0.5291970802919708	0.08190224570673713
3747.100830078125	-17.30769230769231	-31.41628687565437	3.506651475026175	19.03908795514603	11.39713704723954	-11.91315420295661	3470.625641025641	3591.208791208791	0.4289185905224787	0.5328467153284672	0.09379128137384413
3766.632080078125	-17.57692307692308	-31.10455287306768	3.573797499538092	18.22760160356661	18.47347598927853	-11.42611268471431	3458.974358974359	3594.139194139194	0.4228432563791008	0.5316301703163017	0.09379128137384413
3786.163330078125	-17.61538461538462	-31.71350926895362	3.290848063065837	17.3861641624407	27.3963699763068	-12.55295916635113	3566.748717948718	3699.6336996337	0.416767922235723	0.5304136253041363	0.1017173051519155
3805.694580078125	-16.69230769230769	-32.28224117755743	3.881289647102297	17.39317747236277	29.26630316797983	-12.94249323283975	3559.466666666666	3695.238095238095	0.4143377885783718	0.5231143552311436	0.107001321003963
3825.225830078125	-15.61538461538462	-31.68847385600788	3.885231261932623	19.58296952708108	25.4353734520771	-13.41086371585208	3552.184615384615	3692.307692307692	0.425273390036452	0.5340632603406327	0.1056803170409511
3844.757080078125	-16.88461538461539	-31.42390065898873	3.464263718667242	21.2736139476805	17.85473624331912	-14.3199030627579	3553.641025641025	3692.307692307692	0.4264884568651275	0.5170316301703163	0.1096433289299868
3864.288330078125	-18.26923076923077	-31.30947065344584	4.896609595368603	23.92824331533288	16.81906563553198	-15.17313259312454	3523.05641025641	3683.516483516483	0.4228432563791008	0.5231143552311436	0.1136063408190225
3883.819580078125	-17.92307692307692	-31.43796575722116	5.205980168750385	24.35877030708212	18.65987635890793	-16.38351955172664	3556.553846153846	3687.912087912088	0.4301336573511543	0.5231143552311436	0.1241743725231176
3903.350830078125	-19.19230769230769	-30.96784350557369	6.04602143253064	24.35829584461758	20.99144831182829	-17.17652561818503	3540.533333333333	3683.516483516483	0.4264884568651275	0.5255474452554745	0.1268163804491413
3922.882080078125	-19.23076923076923	-31.46363244441707	5.873929913161299	27.07576323560763	26.05838690255258	-17.96935743679994	3533.251282051282	3682.051282051282	0.44228432563791	0.5158150851581509	0.1162483487450462
3942.413330078125	-17.42307692307692	-31.08912514627086	6.494718852004681	28.37796052399024	27.85653812045687	-20.00521422403533	3544.902564102564	3677.655677655677	0.4313487241798298	0.524330900243309	0.130779392338177
3961.944580078125	-17.69230769230769	-30.86053458151137	6.872882921721994	30.05362939981641	21.19917843419353	-21.72119757088072	3527.425641025641	3670.32967032967	0.4386391251518833	0.5145985401459854	0.1241743725231176
3981.475830078125	-17.84615384615385	-31.24779823859088	7.159142698774405	34.47671675617912	17.7622022936652	-22.61612473646187	3528.882051282051	3673.260073260073	0.4228432563791008	0.5012165450121655	0.142668428005284
4001.007080078125	-18.57692307692308	-30.70212323705118	7.529238775635894	35.80886513410821	17.7137984665802	-23.03809352381813	3533.251282051282	3673.260073260073	0.4447144592952612	0.5048661800486618	0.1532364597093791
4020.538330078125	-18.26923076923077	-31.27482755435117	8.933685409866355	38.94596143775163	17.61903920635813	-23.07041207945679	3518.687179487179	3665.934065934066	0.4483596597812879	0.5012165450121655	0.1677675033025099
4040.069580078125	-17.61538461538462	-31.09994149165486	9.150920736589271	41.10798201874264	17.03516625030914	-25.54685060666392	3539.076923076923	3670.32967032967	0.4580801944106925	0.5012165450121655	0.1598414795244386
4059.600830078125	-18.15384615384615	-30.08154215680236	8.769415532425942	41.92600721777959	14.16033245286354	-27.21643225785324	3533.251282051282	3664.468864468864	0.4544349939246658	0.4951338199513382	0.178335535006605
4079.132080078125	-19.65384615384615	-30.67847354806922	9.346754326538154	45.08461791365377	17.34380081474021	-27.62434694649933	3508.492307692307	3663.003663003663	0.4580801944106925	0.4902676399026764	0.1704095112285337
4098.663330078125	-19.07692307692308	-29.45122251647472	8.945741208351297	46.03628139421722	23.8809747001498	-27.976655107757	3527.425641025641	3664.468864468864	0.4495747266099635	0.4854014598540146	0.1822985468956407
4118.194580078125	-19.19230769230769	-29.65987405308863	9.878318039046622	46.48879724066178	26.66844109270414	-28.76963213290814	3525.969230769231	3661.538461538461	0.4471445929526123	0.4720194647201947	0.1994715984147953
4137.725830078125	-18.92307692307692	-29.39807230399704	9.980538276775265	47.38463600780963	28.97293897127533	-29.57187207240616	3530.338461538461	3660.07326007326	0.4580801944106925	0.4902676399026764	0.1994715984147953
4157.257080078125	-18.46153846153846	-28.79442015150582	10.10562295990639	50.05158684195153	27.94506107904945	-30.01698362497595	3524.51282051282	3654.212454212454	0.4580801944106925	0.475669099756691	0.2113606340819023
4176.788330078125	-17.88461538461539	-29.1399658188089	11.42136786352159	55.36397411800457	22.61107767249892	-30.53161059710811	3507.035897435897	3652.747252747252	0.4678007290400972	0.4695863746958638	0.225891677675033
4196.319580078125	-19.42307692307692	-28.49360257436719	11.41089794912853	57.0669400050935	15.0382331793022	-31.03253196621709	3537.620512820513	3654.212454212454	0.4678007290400972	0.4647201946472019	0.2324966974900925
4215.850830078125	-19.34615384615385	-28.29342704933177	10.94058323581943	58.40705061787377	12.19661863804952	-30.25802268714518	3524.51282051282	3652.747252747252	0.4787363304981774	0.4598540145985401	0.2391017173051519
4235.382080078125	-19.53846153846154	-28.17952823797499	13.13025805259592	60.7014787895012	14.96110774415054	-29.4369955471882	3499.753846153846	3657.142857142857	0.4714459295261239	0.4525547445255475	0.2457067371202114
4254.913330078125	-20.46153846153846	-26.18504033996428	12.40586315206011	59.36354779254011	19.20322400026768	-30.60568487057578	3518.687179487179	3652.747252747252	0.4787363304981774	0.4464720194647202	0.2549537648612946
4274.444580078125	-21.26923076923077	-26.74642021309355	12.4363952700622	58.90477486459902	22.94104198966583	-32.19637202262688	3511.405128205128	3649.81684981685	0.4665856622114216	0.4391727493917275	0.2668428005284016
4293.975830078125	-20.26923076923077	-27.42753433516043	12.79979368109873	59.36164994268192	28.5295118119491	-33.77770913640936	3531.794871794872	3648.351648351648	0.4811664641555285	0.4343065693430657	0.2813738441215324
4313.507080078125	-18.42307692307692	-26.23852158649997	13.04146394038308	61.15427640190673	28.47536366325077	-33.7961768824886	3517.230769230769	3646.886446886447	0.4811664641555285	0.4306569343065694	0.2813738441215324
4333.038330078125	-20.03846153846154	-26.00712108148057	12.7022079201823	62.89373222599967	23.25746926965816	-33.86575038466545	3486.646153846154	3639.560439560439	0.4823815309842041	0.4172749391727494	0.2985468956406869
4352.569580078125	-19.30769230769231	-25.26792202993164	13.47302457350496	62.42358675649815	22.32435063765434	-34.2785433815966	3520.14358974359	3646.886446886447	0.4787363304981774	0.402676399026764	0.3064729194187583
4372.100830078125	-20.65384615384615	-24.17269969822011	13.9042156802365	63.33004183678091	20.90456756400197	-33.4854792325237	3495.384615384615	3643.956043956044	0.4908869987849331	0.4075425790754258	0.309114927344782
4391.632080078125	-20.11538461538462	-24.12409158095707	14.78150212477674	63.79051991807663	20.89882324238864	-33.08197819124667	3502.666666666666	3651.282051282051	0.4957472660996354	0.3953771289537713	0.3196829590488772
4411.163330078125	-20.5	-23.82469822011456	15.58106485188151	64.65517690478792	18.98623054524393	-33.51791395339135	3509.948717948718	3646.886446886447	0.4945321992709599	0.3844282238442823	0.3447820343461031
4430.694580078125	-19.84615384615385	-23.14248321734311	15.43185317484757	64.62304619942226	19.43228387536875	-34.73762190895481	3517.230769230769	3643.956043956044	0.5030376670716888	0.3734793187347932	0.3394980184940555
4450.225830078125	-20.5	-22.82928650612798	15.81047915255281	64.13527110686378	20.35351300391547	-36.35618492796825	3515.774358974359	3643.956043956044	0.4872417982989064	0.3795620437956205	0.3500660501981506
4469.757080078125	-19.65384615384615	-22.12624715156741	16.35081911683193	64.58077364338627	21.27104620479678	-36.75962788663079	3502.666666666666	3636.630036630037	0.5006075334143377	0.3710462287104623	0.3487450462351387
4489.288330078125	-20.38461538461539	-20.91850403399643	16.30981708443678	63.68446041377386	21.29812027914595	-36.75039401359117	3492.471794871794	3636.630036630037	0.4933171324422843	0.3576642335766423	0.3712021136063408
4508.819580078125	-19.73076923076923	-20.68049054628318	17.21683500646671	61.95998013445417	25.59273715024392	-35.87387651147476	3508.492307692307	3642.490842490842	0.5006075334143377	0.3333333333333333	0.3619550858652576
4528.350830078125	-19.65384615384615	-20.0638279854653	17.07601465788015	61.97713529504658	26.06996134261374	-35.46111255585085	3514.317948717948	3641.025641025641	0.5078979343863912	0.3199513381995134	0.3923381770145311
4547.882080078125	-19.88461538461539	-19.36870265443124	17.16590195233109	62.92008031233333	27.00512836856548	-34.23670053984584	3499.753846153846	3645.421245421245	0.5030376670716888	0.3199513381995134	0.3870541611624835
4567.413330078125	-18.88461538461539	-19.21530301164008	16.18822750508099	63.80890576955913	27.43969305546363	-34.64940641285524	3504.123076923077	3639.560439560439	0.496962332928311	0.3004866180048662	0.4095112285336856
4586.944580078125	-18.92307692307692	-18.47933731600665	17.8899427234095	63.30757851962104	22.28948384774393	-34.69589523243305	3496.841025641026	3645.421245421245	0.5006075334143377	0.2980535279805353	0.4174372523117569
4606.475830078125	-19.07692307692308	-17.55324259407526	17.89289893453224	62.42140714067898	20.92384892278988	-33.88436333728093	3509.948717948718	3643.956043956044	0.5066828675577156	0.2822384428223844	0.4108322324966975
4626.007080078125	-19.34615384615385	-17.82582219621851	18.32957134938721	61.14024978206258	24.7354972799047	-33.01710874951137	3518.687179487179	3649.81684981685	0.5066828675577156	0.2761557177615572	0.4266842800528402
4645.538330078125	-18.61538461538462	-17.0242655662992	17.90558600726735	61.63285856872396	24.28369962816655	-31.39389975267088	3507.035897435897	3652.747252747252	0.5030376670716888	0.2712895377128954	0.4398943196829591
4665.069580078125	-19.42307692307692	-16.19992147564205	17.88068916671799	59.42373173759405	26.236903436835	-30.94411318096677	3514.317948717948	3654.212454212454	0.5078979343863912	0.2445255474452555	0.4332892998678996
4684.600830078125	-18.65384615384615	-14.51919227689844	19.61345999876825	57.6777370660436	27.25329268583423	-29.69199954584291	3521.6	3657.142857142857	0.5042527339003645	0.2542579075425791	0.4412153236459709
4704.132080078125	-18.69230769230769	-14.52766828847694	18.15264519307754	55.95373124918845	29.21633760401185	-28.02247597726809	3517.230769230769	3661.538461538461	0.5006075334143377	0.2445255474452555	0.4491413474240423
4723.663330078125	-19.03846153846154	-13.90108240438505	19.86181252694463	54.23939282053909	32.11824547580661	-26.34366045303916	3536.164102564102	3665.934065934066	0.4933171324422843	0.2396593673965937	0.4491413474240423
4743.194580078125	-19	-13.39528545913654	21.45658064913469	54.72451383481384	32.12808658531579	-25.12392345616845	3523.05641025641	3661.538461538461	0.4993924665856622	0.2262773722627737	0.4504623513870542
4762.725830078125	-18.46153846153846	-13.02411159696989	21.59019523310956	55.62082706442625	32.10101251096662	-25.13315732920806	3540.533333333333	3663.003663003663	0.4896719319562576	0.208029197080292	0.4610303830911493
4782.257080078125	-19.07692307692308	-11.45682700006159	22.68750384923323	56.54709138358513	30.22738339162817	-23.52850320236855	3525.969230769231	3664.468864468864	0.4933171324422843	0.2007299270072993	0.476882430647292
4801.788330078125	-19.38461538461539	-11.65704871589579	23.39089733325121	58.40350479107671	31.61270053560056	-21.90056110377925	3511.405128205128	3667.399267399267	0.4823815309842041	0.1982968369829684	0.476882430647292
4821.319580078125	-18.30769230769231	-10.73994580279608	22.61267475518877	59.26550769950429	30.63117807651176	-22.73532288806666	3540.533333333333	3673.260073260073	0.4799513973268529	0.1776155717761557	0.4927344782034346
4840.850830078125	-18.53846153846154	-10.0748444909774	22.2806860873314	60.57614168520261	27.30454662732801	-22.78169554241548	3523.05641025641	3668.864468864469	0.4775212636695018	0.1545012165450122	0.4914134742404227
4860.382080078125	-19	-9.548361766336145	23.34116523988421	61.38449949603376	23.49084987626526	-24.46056914925891	3520.14358974359	3670.32967032967	0.4690157958687727	0.1605839416058394	0.5059445178335535
4879.913330078125	-18.11538461538462	-9.321849787522327	22.66941245303936	62.27067087497583	24.85648480121931	-25.27210104441103	3515.774358974359	3658.608058608058	0.4714459295261239	0.145985401459854	0.5019815059445179
4899.444580078125	-19.65384615384615	-8.723986881813142	23.1608825521956	62.26005456184094	28.58076575344288	-26.86740513298193	3534.707692307692	3664.468864468864	0.4775212636695018	0.135036496350365	0.5165125495376486
4918.975830078125	-18.19230769230769	-7.411105807723102	23.36298269384739	62.71039079246631	29.96773043113276	-27.26620211381741	3521.6	3661.538461538461	0.4775212636695018	0.1289537712895377	0.5046235138705416
4938.507080078125	-18.53846153846154	-7.077061649319456	24.31462092751124	63.16821479547831	30.89305634757532	-27.26152709468311	3533.251282051282	3665.934065934066	0.4714459295261239	0.1228710462287105	0.5336856010568032
4958.038330078125	-16.76923076923077	-7.142144484818624	23.87645501016198	65.45828373546739	30.85654202394741	-25.65213986609479	3515.774358974359	3664.468864468864	0.4605103280680437	0.1070559610705596	0.5270805812417437
4977.569580078125	-17.5	-6.042949744410914	23.49364106669951	65.46577150785402	30.3949032627001	-25.24866786612501	3520.14358974359	3663.003663003663	0.465370595382746	0.09489051094890512	0.5363276089828269
4997.100830078125	-16.38461538461539	-5.332927880766151	23.41562480753834	65.44378265315869	29.4482475935217	-25.66607779957596	3530.338461538461	3668.864468864469	0.4507897934386391	0.08394160583941607	0.5429326287978864
5016.632080078125	-16.26923076923077	-4.565367678758392	23.38376855330418	65.47856743680808	28.07112402534099	-24.04754382186977	3512.861538461538	3667.399267399267	0.4532199270959902	0.07420924574209246	0.5363276089828269
5036.163330078125	-14.69230769230769	-3.422599618156063	22.3607501385724	64.14376498059527	29.05059809048188	-24.02440105665623	3530.338461538461	3668.864468864469	0.4434993924665856	0.05352798053527981	0.5389696169088507
5055.694580078125	-15.26923076923077	-3.237182053334976	23.28217958982571	62.80678290856328	28.62957044075831	-23.60707824712703	3531.794871794872	3665.934065934066	0.4483596597812879	0.05961070559610706	0.5508586525759578
5075.225830078125	-14.96153846153846	-3.263295251585884	22.3570702716019	61.5014570794324	30.09406141383027	-22.76305354849275	3539.076923076923	3671.794871794872	0.433778857837181	0.04501216545012166	0.5521796565389696
5094.757080078125	-14.76923076923077	-1.122313235203547	22.80796945248506	59.30730579307574	31.12398770000408	-21.50632297684908	3541.989743589743	3676.190476190476	0.4313487241798298	0.02676399026763991	0.5561426684280053
5114.288330078125	-15.34615384615385	-0.9045621112274435	22.11272094598756	58.50425613881203	33.07554397495503	-19.0297973257202	3524.51282051282	3679.120879120879	0.425273390036452	0.024330900243309	0.5468956406869221
5133.819580078125	-13.42307692307692	-0.6362705549054628	22.15968159142699	56.28811599776005	33.15881459195045	-18.19047668752748	3552.184615384615	3686.446886446886	0.4228432563791008	0.009732360097323601	0.5667107001321005
5153.350830078125	-12.80769230769231	0.8311803288784874	23.17175278684486	54.96175023886296	29.01350599000331	-16.17784978942737	3525.969230769231	3686.446886446886	0.4216281895504253	0.007299270072992701	0.5640686922060766
5172.882080078125	-13.03846153846154	1.398511116585576	21.95905955533658	52.73376309378601	26.75741193851711	-14.95364106257309	3540.533333333333	3690.84249084249	0.4106925880923451	-0.02068126520681265	0.5693527080581242
5192.413330078125	-11	1.90393853544374	21.57230399704379	52.28390132562517	23.03887530790688	-13.76183801527922	3537.620512820513	3690.84249084249	0.4131227217496962	-0.0170316301703163	0.5733157199471598
5211.944580078125	-10.80769230769231	1.663015027406541	21.88771016813451	50.43156538381098	13.72777206711753	-12.61193589235061	3558.010256410256	3696.703296703297	0.4058323207776428	-0.03771289537712896	0.5667107001321005
5231.475830078125	-11.80769230769231	3.438081234218144	20.67286136601589	48.62007861063912	9.57262235566122	-11.81904599112121	3488.102564102564	3595.604395604395	0.4119076549210206	-0.03771289537712896	0.5785997357992074
5251.007080078125	-12.34615384615385	3.022256266551703	20.84872513395332	44.20808202987585	6.953745591045622	-8.53580867051075	3473.538461538461	3601.465201465201	0.4106925880923451	-0.03163017031630171	0.5640686922060766
5270.538330078125	-12.26923076923077	4.173962246720453	20.87881074090041	41.19372592866306	9.458003959800564	-5.215316403362094	3466.25641025641	3611.721611721612	0.3912515188335358	-0.05596107055961071	0.571994715984148
5290.069580078125	-11.23076923076923	4.127209459875592	20.25491162160498	37.20476856726241	9.141576679808239	-3.545938041323521	3483.733333333333	3614.652014652014	0.4082624544349939	-0.04987834549878346	0.5746367239101717
5309.600830078125	-11.19230769230769	4.334305906263472	19.47701237913408	33.48853144557001	-1.09320494370618	-4.427450016953985	3485.189743589744	3616.117216117216	0.3912515188335358	-0.05231143552311435	0.5693527080581242
5329.132080078125	-12.23076923076923	5.887648580402783	19.77141713370697	27.65330252734814	-4.18765836697411	-3.583715731392202	3474.994871794872	3617.582417582417	0.3924665856622114	-0.06447688564476886	0.5799207397622193
5348.663330078125	-14.34615384615385	5.536944940567839	20.1912145100696	21.41512539460075	0.6883822059945063	-3.880736819641164	3480.820512820513	3613.186813186813	0.402187120291616	-0.06082725060827251	0.5746367239101717
5368.194580078125	-14.30769230769231	5.755589086653938	20.75900720576462	14.85664730954168	19.18367992802503	-4.446525592182512	3488.102564102564	3613.186813186813	0.3900364520048603	-0.06569343065693431	0.5693527080581242
5387.725830078125	-13.30769230769231	6.20845907495227	22.11550779084806	10.47440912182133	27.77660959788639	-3.908610648300573	3473.538461538461	3608.791208791209	0.4082624544349939	-0.06690997566909976	0.5746367239101717
5407.257080078125	-12.30769230769231	5.54120219252325	21.78604421999138	7.401855994870202	37.70605172440471	-5.003080491684246	3486.646153846154	3607.326007326007	0.3851761846901579	-0.0705596107055961	0.570673712021136
5426.788330078125	-10.73076923076923	5.293627209459876	22.97248568085237	7.828023754981092	36.74585901805173	-5.425107361655007	3460.430769230769	3604.395604395604	0.3839611178614824	-0.0705596107055961	0.571994715984148
5446.319580078125	-10.19230769230769	5.218290016628687	24.27780686087331	7.718553943969077	29.68100871923941	-6.719150962451377	3445.866666666666	3598.534798534799	0.3766707168894289	-0.07299270072992702	0.5680317040951123
5465.850830078125	-9.76923076923077	4.875023095399397	21.78730676849172	7.605955592208792	25.87880061140333	-9.205026651848868	3458.974358974359	3595.604395604395	0.3657351154313487	-0.07177615571776155	0.5812417437252312
5485.382080078125	-8.923076923076923	4.196187719406295	22.19061402968529	8.324178368439522	16.87797946876255	-12.15935994818044	3539.076923076923	3695.238095238095	0.3742405832320777	-0.07907542579075426	0.5825627476882431
5504.913330078125	-10.19230769230769	6.258352836115046	22.2746658865554	5.986246949886013	9.888607071384381	-13.02220088858093	3565.292307692307	3699.6336996337	0.3693803159173754	-0.07177615571776155	0.5799207397622193
5524.444580078125	-9.692307692307693	6.02134014904231	22.08683870173061	3.804417130018866	10.92632607311944	-11.35735233914042	3469.169230769231	3594.139194139194	0.3669501822600243	-0.08029197080291971	0.5825627476882431
5543.975830078125	-9.615384615384617	5.942831188027345	22.08920982940198	0.7702517899299382	13.88443048756046	-8.848450049758387	3492.471794871794	3601.465201465201	0.3560145808019441	-0.08637469586374696	0.5799207397622193
5563.507080078125	-8.923076923076923	5.777452731415901	23.89659419843567	-1.879069421155001	13.05796061923581	-7.197568475106295	3482.276923076923	3602.930402930403	0.3560145808019441	-0.08515815085158152	0.5852047556142669
5583.038330078125	-8.923076923076923	6.052287984233541	23.61637001909219	-1.4347975755226	7.911848199411946	-5.620819256536368	3472.082051282051	3608.791208791209	0.3547995139732685	-0.08394160583941607	0.5918097754293263
5602.569580078125	-9.076923076923077	4.925971546467943	24.31680729198744	-1.515265221917229	3.663586761451048	-6.886986990370398	3488.102564102564	3605.860805860806	0.3535844471445929	-0.09245742092457421	0.5799207397622193
5622.100830078125	-9.461538461538462	5.584113444601836	24.48663546221593	-0.6061560633507581	1.312733449742779	-5.695096819154778	3476.451282051281	3608.791208791209	0.3523693803159174	-0.08759124087591241	0.5931307793923382
5641.632080078125	-10.42307692307692	6.55700714417688	24.88041202192524	-2.374614052061081	3.714038982483966	-5.653399183940263	3477.907692307692	3608.791208791209	0.3535844471445929	-0.09124087591240876	0.583883751651255
5661.163330078125	-9.346153846153847	6.279308061834082	26.14998152368048	-3.650937716574577	7.995118816407359	-4.781498618343649	3472.082051282051	3610.25641025641	0.3572296476306197	-0.08637469586374696	0.5865257595772787
5680.694580078125	-9.961538461538462	5.831903984726242	26.05864691753403	-4.052462543706431	8.970896953882839	-3.543235792779209	3477.907692307692	3611.721611721612	0.3511543134872417	-0.07785888077858881	0.5891677675033025
5700.225830078125	-8.653846153846155	4.588093551764488	25.40301471946788	-2.693491616979131	10.33858027278481	-3.543148668857462	3498.297435897436	3613.186813186813	0.3560145808019441	-0.08515815085158152	0.5865257595772787
5719.757080078125	-7.807692307692308	5.339633245057584	25.4414146701977	-1.816038701313768	6.102208338281001	-2.777960386746909	3488.102564102564	3614.652014652014	0.3487241798298906	-0.08150851581508516	0.5931307793923382
5739.288330078125	-9.26923076923077	5.173053827677527	25.61653938535444	-0.9799094167553062	-0.9585451726354862	-2.448765949395536	3477.907692307692	3617.582417582417	0.3572296476306197	-0.08515815085158152	0.5891677675033025
5758.819580078125	-8.346153846153847	5.273318654923939	25.44945186918766	-1.856887869956122	0.9462548089479645	-2.420948165047693	3492.471794871794	3617.582417582417	0.3547995139732685	-0.07542579075425791	0.5997357992073976
5778.350830078125	-8.807692307692308	6.365638664777976	25.14114368417812	-1.413090486788268	-1.868285657955545	-1.637205012936162	3485.189743589744	3617.582417582417	0.3560145808019441	-0.08150851581508516	0.5970937912813739
5797.882080078125	-9.461538461538462	5.793511732462894	23.63210568454764	-0.9376368607193073	-2.797307502063517	-0.4267599717195645	3476.451282051281	3619.047619047619	0.3462940461725395	-0.08394160583941607	0.5944517833553501
5817.413330078125	-9.307692307692308	5.276975426495042	24.30507482909405	-1.794806075043985	-1.346353566166135	0.4126477903949009	3461.887179487179	3621.978021978022	0.3584447144592952	-0.08150851581508516	0.5984147952443858
5836.944580078125	-8.846153846153847	5.177757590687935	24.9582743117571	-2.729788857479569	-5.074731306285542	0.3847138408180627	3482.276923076923	3626.373626373626	0.3499392466585662	-0.09002433090024331	0.5904887714663144
5856.475830078125	-9.423076923076923	6.047568824290201	24.35232801625916	-3.187612860491567	-6.000057222728104	0.380038821683757	3488.102564102564	3624.908424908425	0.3535844471445929	-0.07542579075425791	0.5865257595772787
5876.007080078125	-9.730769230769232	6.007475210937981	24.74162406848556	-5.440717401012097	-5.940164752416444	-0.00499447351404346	3495.384615384615	3626.373626373626	0.3511543134872417	-0.08637469586374696	0.5825627476882431
5895.538330078125	-10.07692307692308	5.491608671552627	25.88110488390712	-4.052269847202864	-4.087464525583402	0.8159745838284395	3476.451282051281	3624.908424908425	0.3596597812879708	-0.07785888077858881	0.6023778071334214
5915.069580078125	-10.42307692307692	4.866423908357454	24.79418919751186	-5.372571221106985	-1.699696030016797	0.8530552825231467	3464.8	3621.978021978022	0.3487241798298906	-0.07785888077858881	0.5931307793923382
5934.600830078125	-9.653846153846155	5.212239021986821	24.04189505450514	-6.707373677319798	-0.7202219648759071	0.8761980477366836	3492.471794871794	3623.443223443223	0.3560145808019441	-0.07177615571776155	0.5918097754293263
5954.132080078125	-9.423076923076923	4.780401244072181	24.24916856562173	-8.482844975952192	-0.1888496238077554	1.307429749439812	3480.820512820513	3619.047619047619	0.347509113001215	-0.08515815085158152	0.5825627476882431
5973.663330078125	-8.961538461538462	4.458697727412699	24.48819055244195	-10.69149734461755	-0.5672177680596621	2.550222387602313	3496.841025641026	3627.838827838828	0.3499392466585662	-0.07542579075425791	0.5918097754293263
5993.194580078125	-9.307692307692308	4.885123483402107	24.66690275297161	-11.08553439936279	-0.05307839183150315	4.191957213136536	3498.297435897436	3632.234432234432	0.3523693803159174	-0.06690997566909976	0.5944517833553501
6012.725830078125	-9.461538461538462	4.215326107039478	23.69523310956457	-12.01084979359258	-2.842593178333768	4.173315219213811	3507.035897435897	3632.234432234432	0.3560145808019441	-0.05596107055961071	0.5904887714663144
6032.257080078125	-9.76923076923077	4.40618648765166	24.07529100203239	-12.49985557704113	-7.985009670492222	4.534944377432836	3493.928205128205	3626.373626373626	0.3572296476306197	-0.05717761557177616	0.5865257595772787
6051.788330078125	-9.346153846153847	5.025997721253926	23.43088316807292	-14.74983157681339	-11.18775939115681	5.341743170836157	3485.189743589744	3633.699633699634	0.3572296476306197	-0.06204379562043796	0.5944517833553501
6071.319580078125	-9.653846153846155	3.39232154954733	22.73007636878734	-17.91375042925502	-12.5090872769217	4.952005815196801	3505.579487179487	3633.699633699634	0.3633049817739976	-0.06082725060827251	0.5918097754293263
6090.850830078125	-9.615384615384617	3.187550040032026	21.39172876762949	-20.1567131191052	-13.84190380591325	5.369270542111511	3499.753846153846	3629.304029304029	0.3633049817739976	-0.04866180048661801	0.5970937912813739
6110.382080078125	-10.15384615384616	4.226735234341319	21.89400751370327	-23.34262082624214	-16.10988736085653	4.562123253021202	3492.471794871794	3629.304029304029	0.3730255164034022	-0.03892944038929441	0.5904887714663144
6129.913330078125	-11.11538461538462	3.704586746320133	22.03989345322412	-26.93318190125921	-14.1394505873481	3.801406700894213	3496.841025641026	3630.769230769231	0.3681652490886999	-0.05109489051094891	0.5878467635402906
6149.444580078125	-10.30769230769231	3.481492886616986	22.77150951530455	-30.92043410930523	-10.7238041995556	4.283598952158719	3495.384615384615	3630.769230769231	0.3791008505467801	-0.0413625304136253	0.5891677675033025
6168.975830078125	-11.30769230769231	3.296529531317362	23.40429266490115	-33.02274520770685	-0.7746798540189346	5.62860310251647	3496.841025641026	3633.699633699634	0.370595382746051	-0.03649635036496351	0.5812417437252312
6188.507080078125	-10.57692307692308	2.874799839871897	24.5292387756359	-34.71774885994462	4.004953925010115	7.326002538053628	3511.405128205128	3638.095238095238	0.3730255164034022	-0.0218978102189781	0.5865257595772787
6208.038330078125	-9.384615384615385	1.888864938104329	24.55675309478352	-34.65348744921331	3.11284726476048	9.765418449180553	3492.471794871794	3639.560439560439	0.3742405832320777	-0.0194647201946472	0.5970937912813739
6227.569580078125	-8.884615384615385	0.7434332081049453	25.55910882552196	-34.22153707007041	-2.041057870624636	10.93404968995364	3509.948717948718	3646.886446886447	0.3742405832320777	-0.00364963503649635	0.5984147952443858
6247.100830078125	-9.346153846153847	0.3437904169489437	24.84894069101435	-34.29840171325223	-11.88353345248214	11.65272011117913	3505.579487179487	3649.81684981685	0.370595382746051	-0.00121654501216545	0.5904887714663144
6266.632080078125	-10.84615384615385	-0.6519215372297837	24.2114614768738	-34.7729064143921	-15.61765551421487	12.02828720287932	3504.123076923077	3649.81684981685	0.370595382746051	-0.006082725060827251	0.5865257595772787
6286.163330078125	-11.76923076923077	-0.4781209583051057	24.13681714602451	-35.22637118576574	-13.74197800092851	11.23525209511368	3517.230769230769	3643.956043956044	0.3730255164034022	0.008515815085158151	0.5904887714663144
6305.694580078125	-10.03846153846154	0.1619680359672354	23.09390589394592	-36.15652027409843	-17.00092426423935	11.2119641233639	3505.579487179487	3643.956043956044	0.3657351154313487	0.008515815085158151	0.5904887714663144
6325.225830078125	-11.84615384615385	-0.01391882736958799	24.08055675309478	-40.22206051271991	-16.43303759954329	10.0338085964787	3520.14358974359	3646.886446886447	0.3754556500607533	0.02676399026763991	0.5931307793923382
6344.757080078125	-13.34615384615385	-1.483856315821889	24.0774311757098	-40.14377248214445	-13.58527787644685	11.6941563746284	3501.210256410256	3649.81684981685	0.3900364520048603	0.024330900243309	0.5772787318361955
6364.288330078125	-11.34615384615385	-1.941514750261748	23.80650674385662	-40.96492622192967	-7.447801888025007	12.1719059372166	3491.015384615384	3645.421245421245	0.3863912515188335	0.02311435523114355	0.5852047556142669
6383.819580078125	-10.69230769230769	-1.317038245981401	24.6211430683008	-41.00937839378484	-7.009541273461441	10.54408000385629	3514.317948717948	3645.421245421245	0.3791008505467801	0.0413625304136253	0.5812417437252312
6403.350830078125	-11.65384615384616	-2.499715156740777	25.10114245242348	-40.57790247710651	-9.831874455926203	10.91970517817098	3504.123076923077	3641.025641025641	0.393681652490887	0.05109489051094891	0.5812417437252312
6422.882080078125	-10.92307692307692	-3.274804458951777	24.66329987066576	-40.11524477999161	-8.437117062675069	10.92902617513235	3507.035897435897	3648.351648351648	0.3924665856622114	0.05352798053527981	0.5825627476882431
6442.413330078125	-11.19230769230769	-3.755242655662992	23.95444047545729	-40.62889349641921	-13.59511898595603	10.47441937775769	3509.948717948718	3649.81684981685	0.3900364520048603	0.06326034063260341	0.5852047556142669
6461.944580078125	-12.57692307692308	-3.620796637309848	24.38598571164624	-42.88104911201064	-18.19837042148507	11.67539821547668	3502.666666666666	3651.282051282051	0.3985419198055893	0.0705596107055961	0.5812417437252312
6481.475830078125	-12.96153846153846	-4.209806306583729	25.37493071380181	-44.55937206612054	-10.60994049716585	12.99255554017934	3518.687179487179	3648.351648351648	0.402187120291616	0.07542579075425791	0.5852047556142669
6501.007080078125	-12.57692307692308	-4.455310402167888	25.72705856993287	-44.96838466563901	-9.172523598443048	13.827346365774	3521.6	3655.677655677655	0.3948967193195626	0.08394160583941607	0.5693527080581242
6520.538330078125	-12.92307692307692	-5.35071133830141	24.68941306891667	-44.47842995726136	-8.693251012125304	15.05172934047177	3507.035897435897	3654.212454212454	0.393681652490887	0.09732360097323602	0.5865257595772787
6540.069580078125	-12.46153846153846	-5.911837162037322	25.36108887109688	-44.48809734546716	-9.632113965742448	15.04243738481765	3520.14358974359	3655.677655677655	0.4009720534629404	0.1034063260340633	0.5746367239101717
6559.600830078125	-13.03846153846154	-6.166002032395148	25.18471700437273	-44.07908474594868	-11.06953086446525	14.207646559223	3514.317948717948	3657.142857142857	0.3997569866342648	0.121654501216545	0.5680317040951123
6579.132080078125	-13.19230769230769	-7.283850157048716	25.46173862166657	-43.61424743301462	-8.274271756349652	13.82278751186869	3515.774358974359	3655.677655677655	0.4070473876063183	0.1192214111922141	0.571994715984148
6598.663330078125	-13.5	-7.360896409435241	23.85251277945433	-43.18807967290372	-9.234464462702627	13.40076064189793	3496.841025641026	3652.747252747252	0.3985419198055893	0.1240875912408759	0.570673712021136
6618.194580078125	-13.11538461538462	-8.959790909650797	22.64339163638604	-44.12619099608758	-9.700200011845791	12.18099460371997	3521.6	3651.282051282051	0.4046172539489671	0.1374695863746959	0.5587846763540291
6637.725830078125	-12.65384615384616	-8.057438258298946	23.21806676110119	-45.96279516470301	-11.53936320150425	11.36464248289729	3509.948717948718	3643.956043956044	0.4106925880923451	0.1423357664233577	0.5614266842800528
6657.257080078125	-14.30769230769231	-8.420367062881073	23.78758391328447	-48.18689754060615	-8.66288187034116	11.00748505466183	3520.14358974359	3646.886446886447	0.4034021871202916	0.1532846715328467	0.5521796565389696
6676.788330078125	-12.80769230769231	-10.87510777853052	23.87077354191045	-46.2869808861885	-3.052681435091625	12.67724095369464	3496.841025641026	3648.351648351648	0.402187120291616	0.1581508515815085	0.5535006605019816
6696.319580078125	-12.19230769230769	-10.46311664716389	23.8096785120404	-46.78394890448823	-5.401887213082404	11.84239204548549	3530.338461538461	3649.81684981685	0.4106925880923451	0.1800486618004866	0.5495376486129459
6715.850830078125	-13.19230769230769	-9.480222639650179	23.74190121327832	-46.37398738004066	-11.50244801764591	12.59361335280762	3511.405128205128	3646.886446886447	0.4009720534629404	0.1739659367396594	0.5693527080581242
6735.382080078125	-13.19230769230769	-11.66966650243272	23.59870973702039	-45.87701936174094	-9.153242239655134	13.42846226101677	3509.948717948718	3652.747252747252	0.4082624544349939	0.1788321167883212	0.5508586525759578
6754.913330078125	-12.88461538461539	-10.86896440229106	23.64052780686087	-46.79532144604866	-10.07282383448437	13.02028620060544	3521.6	3649.81684981685	0.4058323207776428	0.1909975669099757	0.5495376486129459
6774.444580078125	-13.03846153846154	-12.08997197758207	25.22936810987251	-45.44819752334632	-11.044505184064	13.40526141318874	3511.405128205128	3651.282051282051	0.4143377885783718	0.2007299270072993	0.5521796565389696
6793.975830078125	-14.92307692307692	-12.59536860257437	25.46073782102605	-45.46099345230039	-8.720725946704899	12.2041373689335	3520.14358974359	3649.81684981685	0.3997569866342648	0.218978102189781	0.5270805812417437
6813.507080078125	-14.34615384615385	-13.00404169489438	24.16362320625731	-44.58136092081585	-11.55659616634424	12.57514560672839	3509.948717948718	3645.421245421245	0.4058323207776428	0.2165450121654501	0.5416116248348745
6833.038330078125	-12.57692307692308	-13.5318023649689	23.7824259407526	-40.99876208064995	-10.73382222568501	12.1393840924272	3499.753846153846	3648.351648351648	0.4179829890643985	0.2299270072992701	0.5350066050198151
6852.569580078125	-13.38461538461539	-13.98540370758145	24.19326230214941	-40.58709540284776	-13.1023093624637	11.70341928897527	3521.6	3649.81684981685	0.4082624544349939	0.2396593673965937	0.5323645970937913
6872.100830078125	-13.69230769230769	-14.51742932807785	24.17915871158466	-40.08481922798058	-12.61524406058471	13.33592024146988	3509.948717948718	3654.212454212454	0.4155528554070473	0.2360097323600973	0.5257595772787318
6891.632080078125	-14.23076923076923	-14.6206965572458	22.18867401613598	-39.62699522496859	-11.68991814414214	13.34059526060418	3514.317948717948	3654.212454212454	0.4034021871202916	0.2445255474452555	0.5270805812417437
6911.163330078125	-13.65384615384616	-15.27495072981462	21.63215187534643	-40.12130916498459	-14.97019416018882	12.90457237453775	3514.317948717948	3648.351648351648	0.4131227217496962	0.2627737226277372	0.5178335535006605
6930.694580078125	-14.23076923076923	-15.57607624561187	21.88073535751678	-40.138464325577	-15.44741835255864	12.49180841891386	3521.6	3651.282051282051	0.4179829890643985	0.2603406326034063	0.5151915455746368
6950.225830078125	-14.57692307692308	-15.29053242594075	21.41123668165301	-41.46359939358403	-13.52908133380061	12.52424313978151	3520.14358974359	3649.81684981685	0.4191980558930741	0.2700729927007299	0.5019815059445179
6969.757080078125	-13.65384615384616	-16.01939243702654	22.31577569748106	-41.90208862018443	-12.57668134300888	12.53815203195543	3520.14358974359	3649.81684981685	0.425273390036452	0.281021897810219	0.5006605019815059
6989.288330078125	-12.61538461538462	-17.13238282934039	21.15760300548131	-39.23949701768088	-16.40556266496369	12.88140056801697	3496.841025641026	3646.886446886447	0.4204131227217496	0.2798053527980535	0.5033025099075297
7008.819580078125	-13.11538461538462	-16.8799732093367	20.57558354375809	-38.48696392026532	-24.45193542286483	10.75259518293319	3511.405128205128	3648.351648351648	0.4191980558930741	0.2871046228710462	0.5033025099075297
7028.350830078125	-15.15384615384616	-16.68945925971546	20.78065529346554	-38.50146500257401	-25.86022985329055	10.73865724945202	3502.666666666666	3649.81684981685	0.4216281895504253	0.2919708029197081	0.4834874504623514
7047.882080078125	-15.34615384615385	-17.14678666009731	20.76240992794235	-38.4236514344631	-20.68089817727376	11.60599896114332	3504.123076923077	3648.351648351648	0.4204131227217496	0.3029197080291971	0.476882430647292
7067.413330078125	-14	-17.91174478043973	21.12570056044836	-38.36033894866089	-16.90986093168268	12.45940273935345	3520.14358974359	3651.282051282051	0.425273390036452	0.3138686131386861	0.4808454425363276
7086.944580078125	-13.34615384615385	-19.26885354437396	21.01960029562111	-37.97767443547608	-22.0949369293128	11.99556206893918	3517.230769230769	3649.81684981685	0.4228432563791008	0.3236009732360097	0.4742404227212682
7106.475830078125	-14.57692307692308	-18.14435394469421	19.871543388557	-37.52951782066987	-22.10847396648738	11.99094513241937	3530.338461538461	3651.282051282051	0.4204131227217496	0.3223844282238443	0.4663143989431968
7126.007080078125	-14.80769230769231	-18.27450421875962	20.84059555336577	-37.97018666308946	-22.55657569056012	12.39903406890896	3517.230769230769	3649.81684981685	0.4386391251518833	0.3345498783454988	0.4597093791281374
7145.538330078125	-15.03846153846154	-19.66797283981031	19.59094968282318	-37.49255342120132	-22.08509581980363	13.21529906580989	3504.123076923077	3652.747252747252	0.4362089914945322	0.3284671532846715	0.4570673712021136
7165.069580078125	-14.69230769230769	-20.59556876270247	19.47074582743118	-37.01804872006145	-18.35097375807089	12.8397319741097	3520.14358974359	3646.886446886447	0.4313487241798298	0.3333333333333333	0.4372523117569353
7184.600830078125	-14.38461538461539	-19.75098540370758	19.24157787768677	-35.24959073135113	-20.75227929081208	12.79803433889519	3511.405128205128	3649.81684981685	0.4349939246658566	0.3345498783454988	0.4491413474240423
7204.132080078125	-14.73076923076923	-20.51628225657449	19.3910359056476	-34.83526997526521	-24.05183666564666	12.76089555758598	3511.405128205128	3649.81684981685	0.4325637910085055	0.3467153284671533	0.4478203434610304
7223.663330078125	-14.03846153846154	-20.57080279608302	17.57860134261255	-34.39460113284562	-23.60373494157392	12.35280662109639	3518.687179487179	3651.282051282051	0.4301336573511543	0.3491484184914842	0.4227212681638045
7243.194580078125	-14.15384615384616	-21.07969452485065	16.21549547330172	-32.17267837276166	-27.88071798760148	13.10414409364752	3505.579487179487	3652.747252747252	0.4398541919805589	0.3576642335766423	0.4266842800528402
7262.725830078125	-15.26923076923077	-21.27853821518754	15.73460306706904	-38.90782352380876	-25.35388319262364	11.9722740971894	3517.230769230769	3651.282051282051	0.4362089914945322	0.3613138686131387	0.4266842800528402
7282.257080078125	-15	-21.20765843443986	15.76753710660836	-42.79309369322939	-14.4117477447715	13.3450379492805	3517.230769230769	3655.677655677655	0.4410692588092345	0.3673965936739659	0.4161162483487451
7301.788330078125	-14.30769230769231	-21.57627640573998	16.19843567161421	-45.82820795824741	-6.790499424489775	14.26792810574574	3509.948717948718	3655.677655677655	0.4325637910085055	0.3710462287104623	0.4068692206076618
7321.319580078125	-13.73076923076923	-21.78940844983679	16.66273018414732	-46.76366520314755	-8.187305211688827	13.4469880897105	3536.164102564102	3655.677655677655	0.4349939246658566	0.378345498783455	0.4081902245706737
7340.850830078125	-13.65384615384616	-23.10121173862167	16.79135616185256	-45.46971191557709	-14.32273280616275	13.78085754619618	3524.51282051282	3652.747252747252	0.4374240583232077	0.3868613138686132	0.3976221928665786
7360.382080078125	-14.19230769230769	-23.52781455933978	17.50611258237359	-43.20333698363795	-19.03797646675387	16.16002095210762	3514.317948717948	3657.142857142857	0.4386391251518833	0.3892944038929441	0.3896961690885073
7379.913330078125	-14.73076923076923	-24.70963694032149	17.52030855453594	-41.74096063089161	-17.13851994655332	19.42969787623114	3495.384615384615	3660.07326007326	0.4398541919805589	0.4063260340632603	0.3910171730515192
7399.444580078125	-14.23076923076923	-25.32541417749584	17.03993964402291	-41.26380185146802	-14.33546812287648	19.45295680667367	3536.164102564102	3664.468864468864	0.4277035236938031	0.4087591240875912	0.3751651254953765
7418.975830078125	-15.07692307692308	-26.33100326414978	16.24247089979676	-39.0278524715399	-14.87258478555796	19.42522614624757	3523.05641025641	3661.538461538461	0.4410692588092345	0.4063260340632603	0.3751651254953765
7438.507080078125	-14.61538461538462	-25.90826507359734	15.79786906448236	-37.34517028579165	-19.66001128014826	17.31970873291357	3533.251282051282	3664.468864468864	0.4459295261239368	0.4148418491484185	0.3698811096433289
7458.038330078125	-14.46153846153846	-26.27776067007452	14.88803350372606	-34.6825786832881	-23.48889260210307	17.66295726897511	3509.948717948718	3660.07326007326	0.4349939246658566	0.4160583941605839	0.3725231175693527
7477.569580078125	-14.61538461538462	-25.68116031286568	14.05801564328386	-35.16722523509831	-25.8303056645326	17.2362263385628	3528.882051282051	3663.003663003663	0.4313487241798298	0.4343065693430657	0.35667107001321
7497.100830078125	-14.80769230769231	-26.43718821210815	13.59017983617664	-33.38161208579557	-27.75438700490397	17.60729265897218	3511.405128205128	3658.608058608058	0.4240583232077764	0.4416058394160584	0.3474240422721268
7516.632080078125	-14.76923076923077	-26.17620250046191	13.96397117694155	-32.08500471994139	-34.82088483743379	18.33998813760059	3514.317948717948	3661.538461538461	0.433778857837181	0.4233576642335767	0.3394980184940555
7536.163330078125	-14.53846153846154	-25.73426433454456	12.79013980415101	-32.1069935746367	-35.76754050661218	17.92257820414963	3533.251282051282	3665.934065934066	0.4313487241798298	0.440389294403893	0.332892998678996
7555.694580078125	-14.88461538461539	-25.93449374884523	11.60930282687689	-29.36829355737687	-38.14916382033502	20.32035456267654	3509.948717948718	3668.864468864469	0.4228432563791008	0.4452554744525548	0.3289299867899604
7575.225830078125	-16.38461538461539	-25.50752910020324	12.91491654862351	-33.82085754082151	-35.19720458773777	20.39439979483696	3530.338461538461	3668.864468864469	0.433778857837181	0.4549878345498783	0.3196829590488772
7594.757080078125	-16.69230769230769	-26.15580156432839	12.94392437026544	-35.46003647964368	-26.18489480187032	22.54173100861447	3539.076923076923	3671.794871794872	0.4349939246658566	0.4647201946472019	0.3157199471598415
7614.288330078125	-15.26923076923077	-27.49658957935579	13.17563281394346	-34.04258676121705	-21.51560571418585	23.39057593291929	3527.425641025641	3677.655677655677	0.4349939246658566	0.4732360097323601	0.2945838837516512
7633.819580078125	-14.34615384615385	-28.26009268953624	11.96617293835068	-30.52500556020801	-28.19594268690251	23.28859675118203	3509.948717948718	3673.260073260073	0.4277035236938031	0.4695863746958638	0.3104359313077939
7653.350830078125	-13.53846153846154	-28.06131058693108	10.83476011578494	-26.18674508187828	-38.68218369512066	21.91586194039818	3518.687179487179	3674.725274725275	0.4289185905224787	0.4683698296836983	0.2932628797886394
7672.882080078125	-16.30769230769231	-28.9294820471762	10.85871774342551	-29.00013012650075	-44.74253424839085	19.8425759587811	3520.14358974359	3668.864468864469	0.4289185905224787	0.4793187347931874	0.2945838837516512
7692.413330078125	-17.15384615384615	-28.74026913838763	9.936533842458582	-30.69608270366761	-35.2997565635211	19.95396326140146	3528.882051282051	3671.794871794872	0.4216281895504253	0.4793187347931874	0.2734478203434611
7711.944580078125	-15.96153846153846	-28.31276559709306	8.522895239268339	-33.26683411821611	-22.55167718220342	19.698988304054	3536.164102564102	3671.794871794872	0.4264884568651275	0.4817518248175183	0.2681638044914135
7731.475830078125	-15.11538461538462	-29.57745427110919	9.372713555459752	-32.82133158169363	-21.63414398132211	19.29554534539147	3539.076923076923	3663.003663003663	0.425273390036452	0.4927007299270073	0.261558784676354
7751.007080078125	-12.15384615384616	-31.20970622651968	9.177619018291557	-28.52392027200625	-37.2763385188733	18.27982275630684	3518.687179487179	3663.003663003663	0.4325637910085055	0.4963503649635037	0.2655217965653897
7770.538330078125	-10.88461538461539	-29.17859672353267	8.275990022787461	-23.91417024485835	-63.74457949131872	16.33638978508641	3511.405128205128	3660.07326007326	0.4216281895504253	0.4951338199513382	0.2324966974900925
7790.069580078125	-15.03846153846154	-28.89458489868818	7.84462954979368	-26.07776045911619	-93.77300943617522	14.01692506124982	3491.015384615384	3652.747252747252	0.416767922235723	0.5048661800486618	0.2417437252311757
7809.600830078125	-16.92307692307692	-28.8533904046314	7.669520231569871	-32.26712618837004	-86.53422604804125	14.55936981772982	3512.861538461538	3655.677655677655	0.4325637910085055	0.4987834549878346	0.2126816380449141
7829.132080078125	-20.96153846153846	-29.40925817577139	6.809062634723163	-35.54425337512431	-62.44596085560119	16.87384006805237	3523.05641025641	3664.468864468864	0.4386391251518833	0.5024330900243309	0.214002642007926
7848.663330078125	-19.84615384615385	-30.20967543265381	7.253002401921537	-38.61258279052489	-22.83528606623326	20.97409949785516	3536.164102564102	3670.32967032967	0.4325637910085055	0.5072992700729927	0.1955085865257596
7868.194580078125	-18.15384615384615	-29.79207981770032	7.757837038861859	-38.33781845508526	-4.472909461770203	24.01211847768825	3540.533333333333	3676.190476190476	0.4240583232077764	0.5121654501216545	0.1994715984147953
7887.725830078125	-15.53846153846154	-30.87088132044097	7.159450637433023	-34.73588483850777	-1.772409613876683	23.59494087469529	3537.620512820513	3676.190476190476	0.425273390036452	0.5121654501216545	0.1915455746367239
7907.257080078125	-15.23076923076923	-30.75611258237359	6.882552195602636	-33.19337978174355	-20.17334893591556	21.35469010437664	3539.076923076923	3673.260073260073	0.4179829890643985	0.5206812652068127	0.1822985468956407
7926.788330078125	-16.11538461538462	-30.95798946849788	6.322550347970685	-31.09590237744484	-30.5919047582608	20.00503997619184	3507.035897435897	3668.864468864469	0.4216281895504253	0.5194647201946472	0.1875825627476883
7946.319580078125	-17.61538461538462	-30.95598016875038	5.799008437519246	-30.72868787149781	-32.52213128047593	17.9412492393796	3504.123076923077	3661.538461538461	0.4143377885783718	0.5145985401459854	0.1638044914134743
7965.850830078125	-17.5	-30.67804243394716	5.248275543511733	-34.72172269857583	-24.91277246365129	16.83278337990026	3517.230769230769	3660.07326007326	0.4301336573511543	0.5206812652068127	0.166446499339498
7985.382080078125	-16.80769230769231	-32.10673923754388	4.836961877194063	-36.32318100950391	-7.481866957474564	17.43127028337743	3515.774358974359	3663.003663003663	0.4119076549210206	0.5291970802919708	0.1585204755614267
8004.913330078125	-15.11538461538462	-31.54287275974626	5.720561064236004	-37.54415442306637	3.36346083620758	17.960096560756	3528.882051282051	3661.538461538461	0.4070473876063183	0.5218978102189781	0.1558784676354029
8024.444580078125	-14.88461538461539	-32.25955379688367	4.785382151875346	-35.65295623192542	3.371654411999262	21.20657263705149	3521.6	3671.794871794872	0.4119076549210206	0.5267639902676399	0.1413474240422721
8043.975830078125	-13.69230769230769	-32.91599433392868	5.645870542587916	-34.38412033979854	-0.4477866606768116	19.93120007148509	3537.620512820513	3667.399267399267	0.4143377885783718	0.5328467153284672	0.1268163804491413
8063.507080078125	-13.53846153846154	-32.43557923261687	4.548192400073905	-31.82303631345584	-14.13472899561163	20.17688307317844	3528.882051282051	3667.399267399267	0.3961117861482381	0.5352798053527981	0.1321003963011889
8083.038330078125	-12.92307692307692	-33.16988975796021	4.109872513395332	-28.81161605648775	-26.43470665285657	20.02376909403631	3521.6	3670.32967032967	0.3924665856622114	0.5328467153284672	0.1254953764861295
8102.569580078125	-14.11538461538462	-32.69359333620743	2.641205271909835	-26.70977942055068	-34.05225904547287	17.88575887722016	3534.707692307692	3665.934065934066	0.4009720534629404	0.5425790754257908	0.1228533685601057
8122.100830078125	-14	-33.09696988359919	3.463878795343968	-23.64784260673445	-40.25742021976763	17.38492463203293	3512.861538461538	3658.608058608058	0.3961117861482381	0.5340632603406327	0.1162483487450462
8141.632080078125	-13.84615384615385	-33.97841350003079	3.151444232308924	-21.52183750028289	-45.52781522834109	15.27014430435207	3512.861538461538	3657.142857142857	0.3900364520048603	0.5462287104622872	0.107001321003963
8161.163330078125	-13.96153846153846	-32.46414824167026	2.55356592966681	-19.3818057739872	-47.05834385356847	12.37629584369398	3514.317948717948	3652.747252747252	0.3924665856622114	0.5486618004866181	0.107001321003963
8180.694580078125	-14.69230769230769	-33.43815052041634	1.98444909773973	-18.95611247634086	-45.68696460700109	11.16126290726482	3517.230769230769	3648.351648351648	0.393681652490887	0.5462287104622872	0.0845442536327609
8200.225830078125	-14.34615384615385	-32.99618925909959	2.617155262671676	-18.43014229342375	-40.52116996815889	12.02398768243632	3483.733333333333	3646.886446886447	0.3948967193195626	0.5450121654501217	0.08850726552179657
8219.757080078125	-15.23076923076923	-32.96480261131983	1.932438258298947	-20.17756035236785	-32.51006486039859	10.897083118185	3515.774358974359	3643.956043956044	0.3888213851761846	0.5535279805352799	0.07926023778071334
8239.288330078125	-14.80769230769231	-33.36272864445402	2.174893761162776	-18.75527693983834	-27.37134429590556	11.75057402031688	3505.579487179487	3649.81684981685	0.3827460510328068	0.5425790754257908	0.07397622192866579
8258.819580078125	-13.61538461538462	-33.70353205641436	2.638141282256575	-18.7315829317884	-22.69261495894234	10.98079784299376	3511.405128205128	3645.421245421245	0.3961117861482381	0.5474452554744526	0.059445178335535
8278.350830078125	-14.07692307692308	-34.13319886678574	1.50609718544066	-17.34048129969544	-21.77098497016519	12.20059292247897	3514.317948717948	3652.747252747252	0.3827460510328068	0.5559610705596108	0.06472919418758256
8297.882080078125	-14.11538461538462	-34.13012717866602	3.314051240992794	-16.43450068187724	-20.85919609089721	12.20065100509347	3502.666666666666	3649.81684981685	0.3888213851761846	0.5498783454987835	0.0488771466314399
8317.413330078125	-13.42307692307692	-33.00601250230955	2.185240500092382	-15.55316299703808	-19.96299264275173	11.38447313211429	3521.6	3649.81684981685	0.3718104495747266	0.5547445255474452	0.05019815059445178
8336.944580078125	-14.19230769230769	-34.14399981523681	2.161529223378703	-14.21883500328982	-18.61089475497227	10.56832430044236	3509.948717948718	3645.421245421245	0.3718104495747266	0.5462287104622872	0.04227212681638045
8356.475830078125	-13.53846153846154	-34.78438135123484	0.8344521771263163	-12.86517223312996	-15.38107095995852	9.770759380078651	3514.317948717948	3645.421245421245	0.370595382746051	0.5535279805352799	0.059445178335535
8376.007080078125	-13.76923076923077	-35.30253433516043	1.972870604175648	-11.04572322510694	-14.01913196266988	10.17434754527743	3509.948717948718	3648.351648351648	0.3730255164034022	0.559610705596107	0.04227212681638045
8395.538330078125	-13.53846153846154	-32.94213832604546	1.02999322534951	-9.250917150062955	-12.67277839650375	9.761699754882528	3491.015384615384	3642.490842490842	0.3742405832320777	0.5523114355231144	0.04359313077939234
8415.069580078125	-13.57692307692308	-33.04068639527007	0.2266274558108026	-8.372233543507514	-10.84550471030238	8.546695859760622	3521.6	3643.956043956044	0.3730255164034022	0.5620437956204379	0.02774108322324967
8434.600830078125	-13.76923076923077	-33.65429266490115	0.3300178604421999	-5.685473470489473	-12.32722864821434	8.913174284957444	3499.753846153846	3643.956043956044	0.3754556500607533	0.5583941605839417	0.03434610303830912
8454.132080078125	-14.07692307692308	-33.38105869310834	0.4375500400320256	-3.491322184132809	-13.35715493438814	7.656443713313772	3496.841025641026	3635.164835164835	0.3608748481166464	0.5571776155717761	0.03434610303830912
8473.663330078125	-14.80769230769231	-33.23108486789431	-0.5611412206688429	-2.631973353988957	-13.40760715542106	6.422855906883637	3509.948717948718	3639.560439560439	0.3742405832320777	0.5474452554744526	0.02906208718626156
8493.194580078125	-14.07692307692308	-33.56120280840057	-0.1706288107409004	-0.9057879213146329	-13.97015035873422	4.35915229399315	3492.471794871794	3627.838827838828	0.3596597812879708	0.5583941605839417	0.035667107001321
8512.725830078125	-13.96153846153846	-33.52730646055306	-0.05775389542403153	-0.4479639183026355	-13.04482444229166	4.363827313127456	3496.841025641026	3627.838827838828	0.3645200486026731	0.5620437956204379	0.03434610303830912
8532.257080078125	-14.23076923076923	-33.09316684116524	-0.3416579417380057	0.8885436912648036	-10.29222483964773	3.153498437139854	3498.297435897436	3629.304029304029	0.3645200486026731	0.5669099756690997	0.023778071334214
8551.788330078125	-14.15384615384616	-33.35797869064482	-0.6395270062203611	1.336225843606458	-7.974189923901956	2.35587543416165	3483.733333333333	3626.373626373626	0.3596597812879708	0.5620437956204379	0.03302509907529723
8571.319580078125	-13.92307692307692	-32.97377902321858	-0.8495103775327957	1.744763980660384	-7.0800348697044	0.7280785421085969	3492.471794871794	3626.373626373626	0.3596597812879708	0.5523114355231144	0.023778071334214
8590.850830078125	-14.11538461538462	-33.42725719036768	-1.060217404692985	2.177945050693346	-6.170294384384341	-0.08348239435077688	3483.733333333333	3621.978021978022	0.3584447144592952	0.5620437956204379	0.02906208718626156
8610.382080078125	-13.42307692307692	-33.38169766582497	-2.107424401059309	3.960429659247814	-4.831733533779458	-0.9042481625425175	3486.646153846154	3624.908424908425	0.3535844471445929	0.5547445255474452	0.0369881109643329
8629.913330078125	-13.11538461538462	-33.60951068547145	-0.639850341811911	3.945454114474573	-3.908456011284818	-1.711192162482083	3488.102564102564	3619.047619047619	0.3572296476306197	0.5535279805352799	0.02774108322324967
8649.444580078125	-13.61538461538462	-34.23395639588594	-1.609872513395332	4.33465747511691	-4.892026864321548	-3.357572965843364	3482.276923076923	3616.117216117216	0.3657351154313487	0.5669099756690997	0.01453104359313078
8668.975830078125	-13.69230769230769	-33.49337931883969	-0.1002648272464126	4.738836380532487	-6.79887523985292	-4.197009769265078	3488.102564102564	3613.186813186813	0.3620899149453219	0.5523114355231144	0.03302509907529723
8688.507080078125	-13.11538461538462	-33.60951068547145	-0.639850341811911	5.176851144668347	-5.419703277724288	-5.003924727897394	3480.820512820513	3610.25641025641	0.3645200486026731	0.5669099756690997	0.03434610303830912
8708.038330078125	-12.92307692307692	-34.14297591919689	-1.081973270924432	5.181684838771244	-4.950271800915717	-4.999278750070338	3472.082051282051	3611.721611721612	0.3693803159173754	0.5620437956204379	0.023778071334214
8727.569580078125	-13.73076923076923	-33.51186333682331	-1.060679312680914	4.277409374307671	-2.129987012398877	-6.186522943458901	3488.102564102564	3605.860805860806	0.3681652490886999	0.5571776155717761	0.03170409511228534
8747.100830078125	-13.23076923076923	-32.97210075752911	-1.625731354314221	3.887731551200786	1.185155793558208	-5.333148206556016	3488.102564102564	3607.326007326007	0.3791008505467801	0.5583941605839417	0.01453104359313078
8766.632080078125	-12.76923076923077	-34.27458890189074	-0.4244010593089855	3.931709260591411	3.078467131914997	-4.49832833965411	3472.082051282051	3614.652014652014	0.3608748481166464	0.5571776155717761	0.02774108322324967
8786.163330078125	-12.92307692307692	-33.33309724702839	-1.191291494734249	3.03757564679818	4.506042921128625	-4.883274510930164	3486.646153846154	3613.186813186813	0.3645200486026731	0.559610705596107	0.03434610303830912
8805.694580078125	-12.53846153846154	-33.18674939951961	-1.200991562480754	3.89739893940658	2.124018747175351	-5.323856250901903	3470.625641025641	3610.25641025641	0.3669501822600243	0.5523114355231144	0.02113606340819023
8825.225830078125	-12.5	-33.71947558046437	-1.526220976781425	3.454076018703275	2.606987261158506	-5.314593336555038	3499.753846153846	3607.326007326007	0.3669501822600243	0.5523114355231144	0.03038309114927345
8844.757080078125	-14.03846153846154	-33.55503633676172	-0.517413931144916	4.784044780813191	1.158081719209044	-5.342382079595632	3477.907692307692	3607.326007326007	0.3669501822600243	0.5583941605839417	0.03170409511228534
8864.288330078125	-12.38461538461539	-33.25446511054997	-1.815206010962616	5.227367701516496	0.6751132052258899	-5.351644993942497	3472.082051282051	3605.860805860806	0.370595382746051	0.551094890510949	0.02774108322324967
8883.819580078125	-12.34615384615385	-33.93962092751124	-2.211261316745705	4.737412993138842	0.1958406189081468	-6.576027968640266	3491.015384615384	3608.791208791209	0.3633049817739976	0.5450121654501217	0.023778071334214
8903.350830078125	-12.26923076923077	-33.79102512779455	-2.02566668719591	5.181210376306695	-2.618699847995362	-5.792284816528734	3473.538461538461	3605.860805860806	0.3791008505467801	0.5559610705596108	0.03038309114927345
8922.882080078125	-12.5	-33.44310063435363	-1.883429820779701	5.230021779800218	-0.2559570328300019	-4.952818971799771	3477.907692307692	3613.186813186813	0.3633049817739976	0.5583941605839417	0.03302509907529723
8942.413330078125	-12.73076923076923	-32.96045297776684	-0.7850434193508653	5.722630566461594	-0.7077546845681507	-3.329609974959277	3461.887179487179	3614.652014652014	0.3742405832320777	0.5559610705596108	0.04359313077939234
8961.944580078125	-12.96153846153846	-33.36466865800333	-1.497336330602944	3.484027108249756	0.7604322161692239	-3.700705336675907	3479.364102564102	3610.25641025641	0.3730255164034022	0.559610705596107	0.02906208718626156
8981.475830078125	-13.07692307692308	-33.74961507667673	-1.365400012317546	3.043358265830174	0.3123304920964859	-3.292616400186316	3504.123076923077	3617.582417582417	0.3742405832320777	0.5437956204379563	0.04359313077939234
9001.007080078125	-13.19230769230769	-34.05526729075569	-1.352020077600542	3.939671495442579	0.2852564177473214	-3.301850273225932	3488.102564102564	3620.51282051282	0.3730255164034022	0.559610705596107	0.03434610303830912
9020.538330078125	-12.26923076923077	-33.94653415039724	-1.942523249368726	3.937491879623404	-1.115245297117142	-2.907670228910262	3470.625641025641	3614.652014652014	0.3791008505467801	0.551094890510949	0.02642007926023778
9040.069580078125	-13.53846153846154	-34.31631459013365	-1.415039724086962	2.597855729307694	-0.6052027087848237	-2.889173441523782	3485.189743589744	3616.117216117216	0.370595382746051	0.5413625304136254	0.03302509907529723
9059.600830078125	-11.57692307692308	-32.93096785120405	-1.490068978259531	2.151878730320666	0.8088360432542219	-3.278736549319643	3492.471794871794	3619.047619047619	0.3633049817739976	0.5547445255474452	0.03830911492734478
9079.132080078125	-12.96153846153846	-33.25765997413315	-1.078539754880828	2.646667132801217	1.757540106380537	-2.049707596794819	3472.082051282051	3616.117216117216	0.3791008505467801	0.5559610705596108	0.02906208718626156
9098.663330078125	-12.26923076923077	-33.02964679435857	-1.633044897456426	1.745520209085914	1.31518270392113	-2.04511970158226	3488.102564102564	3614.652014652014	0.3718104495747266	0.5535279805352799	0.03963011889035667
9118.194580078125	-12.34615384615385	-33.03813050440353	-1.131936318285397	3.087810437685347	-0.1259301224670807	-1.664790466826014	3474.994871794872	3617.582417582417	0.3766707168894289	0.5559610705596108	0.04095112285336856
9137.725830078125	-12.88461538461539	-33.03361920305476	-0.8190398472624252	2.186663513970045	-0.5682875249264878	-1.660202571613455	3485.189743589744	3620.51282051282	0.370595382746051	0.5656934306569343	0.03830911492734478
9157.257080078125	-13.11538461538462	-32.9559108825522	-0.627532795467143	2.174342047480527	-0.576080240487739	-2.068320549410295	3488.102564102564	3614.652014652014	0.3742405832320777	0.5425790754257908	0.03170409511228534
9176.788330078125	-13.11538461538462	-33.94978290324568	-0.9339317607932498	3.073309355376655	-1.534224552892796	-1.678728400307184	3473.538461538461	3617.582417582417	0.3681652490886999	0.5559610705596108	0.03963011889035667
9196.319580078125	-12.69230769230769	-32.99354868510193	-1.091796514134385	2.593022035204796	-1.074634185593395	-2.893819419350839	3493.928205128205	3617.582417582417	0.3730255164034022	0.5571776155717761	0.03170409511228534
9215.850830078125	-13.19230769230769	-33.33623052287985	-0.76539693293096	3.041178650010999	-1.088171222767978	-2.898436355870647	3485.189743589744	3619.047619047619	0.3827460510328068	0.5571776155717761	0.035667107001321
9235.382080078125	-13.65384615384616	-33.17927418858163	-0.4593674939951962	3.486681186533479	-0.170638021886668	-3.30187931453318	3485.189743589744	3617.582417582417	0.3766707168894289	0.5498783454987835	0.03830911492734478
9254.913330078125	-13.76923076923077	-33.85753217958983	-1.046467943585638	3.031036799340656	0.3045377765352346	-3.700734377983156	3486.646153846154	3613.186813186813	0.3754556500607533	0.5535279805352799	0.02642007926023778
9274.444580078125	-12.88461538461539	-33.33308954856192	-1.230137956519061	3.491514880636376	0.2987934549219036	-3.297233336706124	3476.451282051281	3616.117216117216	0.3657351154313487	0.5401459854014599	0.02906208718626156
9293.975830078125	-13.19230769230769	-33.45016782656895	-0.8377625177064729	4.787173321561461	-2.104560471767203	-4.15054999099451	3469.169230769231	3600	0.3681652490886999	0.5523114355231144	0.03963011889035667
9313.507080078125	-13.46153846153846	-33.28624438011948	-1.072396378641375	3.890860091949056	-2.077486397418039	-4.141316117954895	3479.364102564102	3613.186813186813	0.3803159173754556	0.5474452554744526	0.03434610303830912
9333.038330078125	-12.88461538461539	-33.57097216234526	-0.8744688058138821	4.361005561450572	-1.144367765414227	-3.72852312102375	3470.625641025641	3608.791208791209	0.3754556500607533	0.5523114355231144	0.03963011889035667
9352.569580078125	-13.88461538461539	-33.64199821395578	-0.1693200714417686	4.373327027940089	-1.136575049852976	-3.32040514322691	3463.343589743589	3614.652014652014	0.3669501822600243	0.5547445255474452	0.02906208718626156
9372.100830078125	-13.26923076923077	-33.30545205395085	-0.3043203793804272	4.387828110248782	0.2717193805727391	-3.30646720974574	3476.451282051281	3616.117216117216	0.3718104495747266	0.5498783454987835	0.03170409511228534
9391.632080078125	-13.03846153846154	-33.0575152429636	-1.393468621050686	4.395315882635402	-0.1899193806745812	-2.902995209775956	3479.364102564102	3614.652014652014	0.3693803159173754	0.5486618004866181	0.04491413474240423
9411.163330078125	-13.15384615384616	-33.42013610888711	-0.4547330171829771	3.930004107236784	-0.6536065358698218	-3.311142228880045	3483.733333333333	3617.582417582417	0.3742405832320777	0.551094890510949	0.03302509907529723
9430.694580078125	-13.53846153846154	-33.4864199051549	-0.602081665332266	3.883372319562436	-1.615847636170719	-4.544788117924678	3479.364102564102	3610.25641025641	0.3645200486026731	0.5498783454987835	0.05019815059445178
9450.225830078125	-13.23076923076923	-33.39936564636325	-1.416333066453162	3.875884547175816	-1.154208874923398	-4.948260117894461	3488.102564102564	3611.721611721612	0.3742405832320777	0.5571776155717761	0.023778071334214
9469.757080078125	-14	-33.35948759007206	-0.7179281887048099	3.437395320575408	-0.201808884131673	-4.93435122572054	3489.558974358974	3611.721611721612	0.3730255164034022	0.5498783454987835	0.02906208718626156
9489.288330078125	-14.15384615384616	-32.48420274681283	-0.09755496705056332	3.023549026954036	0.7661765377825549	-4.104206377952939	3461.887179487179	3610.25641025641	0.3827460510328068	0.5608272506082725	0.0369881109643329
9508.819580078125	-13.23076923076923	-33.78120958305106	0.3681714602451192	1.713389503720258	1.761236034045947	-3.264827657145722	3488.102564102564	3610.25641025641	0.3766707168894289	0.551094890510949	0.03170409511228534
9528.350830078125	-13.57692307692308	-32.7943354683747	-0.5524573504957813	3.060513426422589	0.7895546844663087	-2.879852444562419	3482.276923076923	3617.582417582417	0.3851761846901579	0.5486618004866181	0.03963011889035667
9547.882080078125	-13.34615384615385	-33.453278007021	-0.5284073412576216	3.068001198809209	0.3279159232189884	-2.476380444592636	3476.451282051281	3617.582417582417	0.3815309842041312	0.5474452554744526	0.04227212681638045
9567.413330078125	-12.80769230769231	-33.44778130196465	0.5813727905401245	3.065347120525487	1.25898616127488	-2.875206466735363	3483.733333333333	3616.117216117216	0.3876063183475091	0.5425790754257908	0.03434610303830912
9586.944580078125	-13.88461538461539	-33.76055459752417	-0.01073166225287925	3.533312974207827	0.7916030784142289	-2.068233425488548	3472.082051282051	3605.860805860806	0.3742405832320777	0.5547445255474452	0.035667107001321
9606.475830078125	-12.80769230769231	-33.75571996058385	-1.32938658619203	3.068001198809209	0.3279159232189884	-2.476380444592636	3493.928205128205	3617.582417582417	0.3839611178614824	0.559610705596107	0.03434610303830912
9626.007080078125	-13.73076923076923	-33.59577662129703	-0.7111689351481183	3.526299664285755	-1.078330113258806	-1.678699358999935	3485.189743589744	3617.582417582417	0.3766707168894289	0.5547445255474452	0.0369881109643329
9645.538330078125	-13.38461538461539	-33.23926833774712	-1.5750446511055	3.981944051478578	-1.553505911680709	-1.27984429554996	3473.538461538461	3619.047619047619	0.3766707168894289	0.5462287104622872	0.04095112285336856
9665.069580078125	-13.07692307692308	-33.41473178542834	-0.8018722670444047	3.100131904174865	-0.1181374069058294	-1.256672489029174	3491.015384615384	3621.978021978022	0.3803159173754556	0.5437956204379563	0.03963011889035667
9684.600830078125	-13.19230769230769	-32.72035320564144	-0.7900320256204962	3.100131904174865	-0.1181374069058294	-1.256672489029174	3476.451282051281	3619.047619047619	0.3803159173754556	0.5437956204379563	0.03170409511228534
9704.132080078125	-12.19230769230769	-32.69782749276344	-0.9932407464433084	2.678797838166872	1.311486776255719	-0.8299996412313563	3486.646153846154	3621.978021978022	0.3766707168894289	0.551094890510949	0.03963011889035667
9723.663330078125	-13.46153846153846	-32.71347847508776	-0.8645377840734128	3.141929997746316	0.374672216586496	-0.02767257781159819	3466.25641025641	3620.51282051282	0.3827460510328068	0.5462287104622872	0.03038309114927345
9743.194580078125	-13.30769230769231	-33.26234834021063	-0.4979676048531132	2.220973835154875	0.3861608598131578	-0.834674660365662	3491.015384615384	3632.234432234432	0.3766707168894289	0.5413625304136254	0.02642007926023778
9762.725830078125	-13.26923076923077	-33.46558015643284	0.009777052411159781	2.220973835154875	0.3861608598131578	-0.834674660365662	3493.928205128205	3619.047619047619	0.3839611178614824	0.5474452554744526	0.03434610303830912
9782.257080078125	-13.11538461538462	-33.26846862105069	-0.3842612551579725	2.65680898347156	0.3648311070773244	-1.24740957468231	3485.189743589744	3617.582417582417	0.3778857837181044	0.5486618004866181	0.03963011889035667
9801.788330078125	-13.23076923076923	-32.90820348586562	-0.9744410913346062	2.649321211084939	0.8264698683246446	-1.650881574652093	3477.907692307692	3619.047619047619	0.3791008505467801	0.5571776155717761	0.047556142668428
9821.319580078125	-13.03846153846154	-33.48862936503049	-0.9916086715526267	4.011420678560511	-1.068489003749634	-0.4589623621292239	3456.061538461538	3616.117216117216	0.3766707168894289	0.5450121654501217	0.02774108322324967
9840.850830078125	-13.23076923076923	-32.79965510870235	-0.632629180267291	3.107619676561485	-0.5797761681531497	-0.8532004890593912	3482.276923076923	3621.978021978022	0.3730255164034022	0.5474452554744526	0.03170409511228534
9860.382080078125	-13.19230769230769	-33.26001570487159	-0.7299839871897516	3.548288518981067	-0.1316744440804117	-1.261289425548982	3486.646153846154	3621.978021978022	0.3791008505467801	0.5437956204379563	0.047556142668428
9879.913330078125	-13.69230769230769	-33.09459875592782	-0.8085237420705795	2.186663513970045	-0.5682875249264878	-1.660202571613455	3492.471794871794	3617.582417582417	0.3778857837181044	0.551094890510949	0.04623513870541612
9899.444580078125	-13.03846153846154	-33.17222239329926	-1.427341873498799	1.270541045481501	-0.08736740489125427	-2.462558676340462	3485.189743589744	3616.117216117216	0.3791008505467801	0.559610705596107	0.04623513870541612
9918.975830078125	-12.65384615384616	-33.70718882798546	-0.06363552380365811	2.171687969196804	0.3549899975681528	-2.467146571553021	3476.451282051281	3613.186813186813	0.3803159173754556	0.5559610705596108	0.03963011889035667
9938.507080078125	-12.65384615384616	-33.08438289092813	-0.4347016074397978	1.740686514983017	0.8457512271125578	-2.049765679409316	3488.102564102564	3613.186813186813	0.3815309842041312	0.5547445255474452	0.04623513870541612
9958.038330078125	-12.53846153846154	-33.03201022356347	-1.245642667980538	2.659463061755282	-0.5662391309785675	-0.8485835525395833	3470.625641025641	3619.047619047619	0.3803159173754556	0.5523114355231144	0.03302509907529723
9977.569580078125	-12.88461538461539	-33.29844644946726	-1.039215988175156	2.662117140039005	-1.497309369034459	-0.4497575303968571	3461.887179487179	3616.117216117216	0.3803159173754556	0.5571776155717761	0.04227212681638045
9997.100830078125	-12.73076923076923	-33.11442230707643	-0.7788846461784811	2.649795673549487	-1.505102084595711	-0.8578755081936967	3486.646153846154	3620.51282051282	0.3742405832320777	0.5498783454987835	0.04095112285336856
10016.63208007813	-12.53846153846154	-33.58322042249184	-0.6082096446387881	3.100606366639414	-2.449709359826185	-0.4636664225707784	3482.276923076923	3620.51282051282	0.3754556500607533	0.5547445255474452	0.03830911492734478
10036.16333007813	-13.23076923076923	-33.60491470099156	-0.7542649504218759	2.216614603516526	-2.414842569915769	-0.04631457173432295	3474.994871794872	3623.443223443223	0.3754556500607533	0.5608272506082725	0.04227212681638045
10055.69458007813	-13.96153846153846	-32.25090072057646	-0.4165024327154032	1.300492135027983	-1.933922449880535	-0.84867067646133	3477.907692307692	3617.582417582417	0.3766707168894289	0.551094890510949	0.04359313077939234
10075.22583007813	-12.96153846153846	-33.34773203177927	-0.4210907187288291	1.307505444950055	-0.06398925820750048	-1.238204742949943	3507.035897435897	3620.51282051282	0.3827460510328068	0.559610705596107	0.03830911492734478
10094.75708007813	-12.5	-33.16980507482909	-0.1635924123914516	1.33963615031571	-0.5100425883323183	-0.01849678738648029	3483.733333333333	3621.978021978022	0.3754556500607533	0.5486618004866181	0.04227212681638045
10114.28833007813	-13.15384615384616	-33.47556506743857	0.3936379873129274	1.356791310908125	-0.03281839596249544	0.3942671682374162	3479.364102564102	3624.908424908425	0.3778857837181044	0.5450121654501217	0.03170409511228534
10133.81958007813	-13.23076923076923	-33.07218082158034	-0.4678819979060169	0.859348830143852	-0.05045222103291825	-1.233587806430135	3501.210256410256	3623.443223443223	0.370595382746051	0.5547445255474452	0.03963011889035667
10153.35083007813	-12.80769230769231	-33.10827893083697	-1.009130381228059	2.2187942193357	-1.014340855051305	-0.4404946160499925	3476.451282051281	3617.582417582417	0.3693803159173754	0.5450121654501217	0.04227212681638045
10172.88208007813	-13.53846153846154	-32.63958859395208	-0.6359549177803783	1.763149832142877	-0.5391650566294031	-0.8393496794999676	3483.733333333333	3621.978021978022	0.3718104495747266	0.5583941605839417	0.04227212681638045
10192.41333007813	-13.73076923076923	-32.71199267105992	-0.6695972162345263	2.216140141051977	-0.08327061699541369	-0.8393206381927187	3486.646153846154	3619.047619047619	0.3730255164034022	0.5547445255474452	0.03038309114927345
10211.94458007813	-12.96153846153846	-33.91202962369896	-1.052364968898196	0.8496814419380572	-0.9893151746500614	-1.242879762084248	3489.558974358974	3619.047619047619	0.3718104495747266	0.551094890510949	0.03302509907529723
10231.47583007813	-13.84615384615385	-33.5134261255158	-0.8671552626716761	1.285516590254742	-1.010644927385895	-1.655614676400896	3495.384615384615	3619.047619047619	0.3718104495747266	0.5474452554744526	0.03963011889035667
10251.00708007813	-14	-32.91143684178112	-0.04354252632875544	2.181829819867147	-1.037719001735059	-1.664848549440512	3472.082051282051	3619.047619047619	0.3669501822600243	0.5535279805352799	0.035667107001321
10270.53833007813	-13.26923076923077	-32.96210044959044	-0.1642082897086903	3.092644131788245	0.3435013543414909	-1.660144488998957	3477.907692307692	3617.582417582417	0.3718104495747266	0.5474452554744526	0.03434610303830912
10290.06958007813	-13.15384615384616	-33.30157972531871	-0.6133214263718667	3.10231151999404	1.282364307958634	-1.650852533344844	3485.189743589744	3620.51282051282	0.3815309842041312	0.5425790754257908	0.03038309114927345
10309.60083007813	-12.96153846153846	-33.19376270246966	-0.4272494919012131	2.639653822879144	-0.1123930852924985	-1.660173530306206	3485.189743589744	3619.047619047619	0.3803159173754556	0.5486618004866181	0.03170409511228534
10329.13208007813	-13.42307692307692	-32.67035936441461	-1.135877933115723	3.972276663272783	-2.492368865297852	-1.289136251204073	3470.625641025641	3614.652014652014	0.3839611178614824	0.5523114355231144	0.03434610303830912
10348.66333007813	-13.5	-33.14306060232801	-0.5008160374453408	3.060987888887137	-1.542017268454047	-2.086846378104024	3488.102564102564	3614.652014652014	0.3791008505467801	0.5462287104622872	0.02906208718626156
10368.19458007813	-13.46153846153846	-33.17076738313727	-1.077015458520663	1.740686514983017	0.8457512271125578	-2.049765679409316	3485.189743589744	3616.117216117216	0.370595382746051	0.5486618004866181	0.03963011889035667
10387.72583007813	-12.84615384615385	-33.18989037383754	-0.7362505388926524	1.750353903188811	1.784614180729701	-2.040473723755203	3499.753846153846	3616.117216117216	0.3827460510328068	0.551094890510949	0.035667107001321
10407.25708007813	-12.88461538461539	-33.10906417441645	-0.8929451253310341	2.193676823892117	1.301645666746547	-2.049736638102067	3489.558974358974	3614.652014652014	0.3730255164034022	0.5425790754257908	0.03038309114927345
10426.78833007813	-12.84615384615385	-33.0659450637433	-1.164285274373345	2.642307901162867	-1.04346332334839	-1.26134750816348	3473.538461538461	3620.51282051282	0.3730255164034022	0.5559610705596108	0.03830911492734478
10446.31958007813	-13.11538461538462	-33.60104237235942	-1.063265997413315	1.278028817868122	-0.5490061661385746	-2.059086676370679	3486.646153846154	3614.652014652014	0.3827460510328068	0.551094890510949	0.0369881109643329
10465.85083007813	-13.19230769230769	-32.54867740346123	-1.681514442323089	1.29783805674426	-1.002852211824644	-1.247496698604056	3482.276923076923	3619.047619047619	0.3815309842041312	0.5523114355231144	0.03963011889035667
10485.38208007813	-13.38461538461539	-33.57569132228861	-0.1385108086469178	0.8813376848391645	0.8962034481454761	-0.8161778729791817	3482.276923076923	3621.978021978022	0.3839611178614824	0.5389294403892945	0.0488771466314399
10504.91333007813	-12.5	-33.54702993163762	-0.5331188027344953	-0.04710625013889627	1.369330852619459	-2.026651955503029	3495.384615384615	3617.582417582417	0.3803159173754556	0.5486618004866181	0.03434610303830912
10524.44458007813	-13.38461538461539	-32.75503479706843	-0.78672168504034	0.4111922153376494	-0.03691518385833602	-1.228970869910327	3483.733333333333	3617.582417582417	0.3718104495747266	0.5535279805352799	0.03302509907529723
10543.97583007813	-13.34615384615385	-33.19768892036706	0.1536767875839133	1.745994671550462	-1.016389248999226	-1.252113635123864	3467.71282051282	3617.582417582417	0.3754556500607533	0.5559610705596108	0.03434610303830912
10563.50708007813	-13.46153846153846	-32.61185871774342	-0.1762948820594938	1.282862511971019	-0.079574689330003	-2.054440698543622	3464.8	3614.652014652014	0.3778857837181044	0.5498783454987835	0.0369881109643329
10583.03833007813	-13.76923076923077	-33.72357886309047	-0.05182607624561175	1.292529900176814	0.85928826428714	-2.045148742889508	3467.71282051282	3613.186813186813	0.3851761846901579	0.5401459854014599	0.03963011889035667
10602.56958007813	-14.03846153846154	-33.34871743548685	0.7051025435733203	0.8690162183496468	0.8884107325842249	-1.224295850776021	3485.189743589744	3617.582417582417	0.3803159173754556	0.5498783454987835	0.035667107001321
10622.10083007813	-13.73076923076923	-33.24395670382459	-0.9944725010777853	1.270541045481501	-0.08736740489125427	-2.462558676340462	3491.015384615384	3620.51282051282	0.3778857837181044	0.5498783454987835	0.04491413474240423
10641.63208007813	-13.30769230769231	-33.372436410667	-0.762794851265628	1.701542499695289	-0.5781286344356593	-2.879939568484166	3489.558974358974	3620.51282051282	0.3839611178614824	0.551094890510949	0.04095112285336856
10661.16333007813	-13.5	-33.55030947835191	-1.292218390096693	2.115388793316661	-1.546114056349887	-3.710084416251767	3472.082051282051	3610.25641025641	0.3766707168894289	0.5474452554744526	0.04227212681638045
10680.69458007813	-13.42307692307692	-32.90131335837901	-1.126639773357147	2.610177195797212	-0.5974099932235725	-2.481055463726942	3473.538461538461	3617.582417582417	0.3754556500607533	0.5523114355231144	0.04623513870541612
10700.22583007813	-13.88461538461539	-32.81287337562358	-1.240946603436596	1.723531354390602	0.368527034742735	-2.462529635033213	3495.384615384615	3617.582417582417	0.3766707168894289	0.5474452554744526	0.03302509907529723
10719.75708007813	-13.23076923076923	-33.13376855330418	-1.234649257867833	1.713863966184807	-0.570335918874408	-2.471821590687326	3495.384615384615	3619.047619047619	0.3839611178614824	0.559610705596107	0.03830911492734478
10739.28833007813	-12.92307692307692	-32.95125331034058	-1.052719098355608	2.181829819867147	-1.037719001735059	-1.664848549440512	3480.820512820513	3619.047619047619	0.3815309842041312	0.5498783454987835	0.02642007926023778
10758.81958007813	-13.53846153846154	-33.45100695941368	-0.4496520293157604	1.282862511971019	-0.079574689330003	-2.054440698543622	3489.558974358974	3614.652014652014	0.3742405832320777	0.5523114355231144	0.04095112285336856
10778.35083007813	-13.15384615384616	-33.91206811603129	-0.8581326599741332	1.304851366666332	0.8670809798483913	-1.637030765092669	3492.471794871794	3617.582417582417	0.3742405832320777	0.5523114355231144	0.03434610303830912
10797.88208007813	-12.76923076923077	-33.11673954548253	-0.6245611874114676	1.755662059756257	-0.07752629538208272	-1.24282167946975	3480.820512820513	3621.978021978022	0.3718104495747266	0.5523114355231144	0.03963011889035667
10817.41333007813	-13.65384615384616	-33.10536891051302	-0.3084775512717866	1.307505444950055	-0.06398925820750048	-1.238204742949943	3492.471794871794	3617.582417582417	0.3803159173754556	0.5523114355231144	0.03830911492734478
10836.94458007813	-13.42307692307692	-32.94365492393916	-0.9326384184270493	1.75831613803998	-1.008596533437975	-0.8439956573270243	3472.082051282051	3620.51282051282	0.3815309842041312	0.559610705596107	0.03830911492734478
10856.47583007813	-13.96153846153846	-32.9345245427111	-0.8506959413684796	0.8347058971648166	-0.06603765215542078	-2.049823762023814	3499.753846153846	3616.117216117216	0.3754556500607533	0.5450121654501217	0.04095112285336856
10876.00708007813	-13.07692307692308	-34.29081726919997	-1.228367309232001	1.736327283344668	-1.955252202616369	-1.261405590777978	3467.71282051282	3616.117216117216	0.3888213851761846	0.5413625304136254	0.04359313077939234
10895.53833007813	-13.80769230769231	-33.47646578801503	-0.8305567530947837	2.191971670537491	-2.430428001038271	-0.8625505273280024	3474.994871794872	3619.047619047619	0.3851761846901579	0.5498783454987835	0.03830911492734478
10915.06958007813	-12.88461538461539	-33.75496551087023	-1.290185994949806	1.293004362641362	-1.472283688633215	-1.252142676431113	3495.384615384615	3620.51282051282	0.3730255164034022	0.5413625304136254	0.035667107001321
10934.60083007813	-13.80769230769231	-33.45414023526514	-0.02375746751247165	1.27101550794605	-2.41893935781161	-1.669552609882066	3488.102564102564	3619.047619047619	0.3742405832320777	0.5559610705596108	0.03302509907529723
10954.13208007813	-13.73076923076923	-33.16697203916979	-0.9975518876639773	1.27101550794605	-2.41893935781161	-1.669552609882066	3479.364102564102	3616.117216117216	0.3839611178614824	0.5571776155717761	0.04227212681638045
10973.66333007813	-12.57692307692308	-33.77491993594875	-0.6001570487158958	1.290350284357639	-0.5412134505773234	-1.650968698573839	3485.189743589744	3619.047619047619	0.3766707168894289	0.5486618004866181	0.03302509907529723
10993.19458007813	-13.42307692307692	-32.29082496766645	-0.8818285397548811	1.753007981472534	0.8535439426738091	-1.641647701612477	3477.907692307692	3617.582417582417	0.3912515188335358	0.5547445255474452	0.03038309114927345
11012.72583007813	-12.80769230769231	-33.65025097000677	-0.8336053458151136	1.748174287369637	0.3841124658652376	-1.646293679439534	3492.471794871794	3619.047619047619	0.3778857837181044	0.5486618004866181	0.03038309114927345
11032.25708007813	-13.38461538461539	-32.48712816406972	-0.7205148734372111	2.627806818854175	-2.451757753774105	-1.27528544164465	3485.189743589744	3623.443223443223	0.3778857837181044	0.5450121654501217	0.03434610303830912
11051.78833007813	-13.26923076923077	-33.33932530639896	-0.5337346800517335	2.622973124751278	-2.921189230582677	-1.279931419471707	3479.364102564102	3619.047619047619	0.3815309842041312	0.5498783454987835	0.04095112285336856
11071.31958007813	-13.61538461538462	-33.41945864383815	-1.950144731169551	2.617664968183832	-1.059048754470893	-2.077583463757159	3479.364102564102	3614.652014652014	0.3766707168894289	0.5486618004866181	0.03302509907529723
11090.85083007813	-13.88461538461539	-33.94069871281641	-0.6189105130258055	2.644487516982042	0.3570383915160731	-1.655527552479149	3489.558974358974	3620.51282051282	0.3815309842041312	0.5486618004866181	0.02245706737120212
11110.38208007813	-14.46153846153846	-32.92153722978383	-1.000061587731724	1.757841675575432	1.322975419482381	-1.63700172378542	3496.841025641026	3624.908424908425	0.3791008505467801	0.5608272506082725	0.03302509907529723
11129.91333007813	-13.80769230769231	-32.82671521832851	-0.6257775451130136	1.728365048493499	0.8379585115513066	-2.457883657206156	3486.646153846154	3616.117216117216	0.3766707168894289	0.5486618004866181	0.04227212681638045
11149.44458007813	-13.46153846153846	-33.5672384061095	-0.4842335406786968	2.194151286356665	-1.029926286173808	-1.256730571643672	3473.538461538461	3614.652014652014	0.3754556500607533	0.5437956204379563	0.0488771466314399
11168.97583007813	-13.42307692307692	-32.88360688550841	-0.08888649381043301	1.738506899163842	-0.5547504877519056	-1.655585635093647	3488.102564102564	3619.047619047619	0.3693803159173754	0.5413625304136254	0.035667107001321
11188.50708007813	-13.26923076923077	-32.90975087762518	-0.8586099648949932	1.728365048493499	0.8379585115513066	-2.457883657206156	3492.471794871794	3619.047619047619	0.3863912515188335	0.5523114355231144	0.04095112285336856
11208.03833007813	-13.80769230769231	-32.21853636755559	-0.265489314528546	2.65680898347156	0.3648311070773244	-1.24740957468231	3473.538461538461	3619.047619047619	0.3718104495747266	0.5498783454987835	0.0369881109643329
11227.56958007813	-13.88461538461539	-33.04536706288107	-1.154723779023218	1.285042127790194	1.320927025534461	-2.448620742859291	3492.471794871794	3617.582417582417	0.3888213851761846	0.5498783454987835	0.03963011889035667
11247.10083007813	-12.76923076923077	-33.19834329001662	-0.3905278068608733	1.718697660287704	-0.1009044420658365	-2.46717561286027	3479.364102564102	3616.117216117216	0.3791008505467801	0.5450121654501217	0.03302509907529723
11266.63208007813	-13.80769230769231	-33.02995473301719	-0.0791864260639279	1.723531354390602	0.368527034742735	-2.462529635033213	3486.646153846154	3619.047619047619	0.3742405832320777	0.5413625304136254	0.03302509907529723
11286.16333007813	-13.61538461538462	-32.94369341627149	-0.738406109502987	1.723531354390602	0.368527034742735	-2.462529635033213	3492.471794871794	3619.047619047619	0.3742405832320777	0.5523114355231144	0.04095112285336856
11305.69458007813	-12.80769230769231	-32.99973055367371	-0.6673184701607442	2.142211342114871	-0.1300269103629213	-3.288028504973757	3473.538461538461	3613.186813186813	0.3815309842041312	0.5535279805352799	0.0369881109643329
11325.22583007813	-13.03846153846154	-32.84195818193016	-0.6328601342612552	1.728365048493499	0.8379585115513066	-2.457883657206156	3493.928205128205	3617.582417582417	0.3815309842041312	0.5486618004866181	0.0369881109643329
11344.75708007813	-13.15384615384616	-33.0382921721993	-0.3161606208043355	1.713863966184807	-0.570335918874408	-2.471821590687326	3479.364102564102	3616.117216117216	0.370595382746051	0.5389294403892945	0.04095112285336856
11364.28833007813	-13.88461538461539	-34.36796360165055	-0.4095122251647472	3.078143049479552	-1.064793076084224	-1.674082422480127	3473.538461538461	3617.582417582417	0.3803159173754556	0.5474452554744526	0.03830911492734478
11383.81958007813	-12.84615384615385	-33.08596107655355	-0.1634846338609348	2.166854275093907	-0.1144414792404187	-2.471792549380078	3493.928205128205	3616.117216117216	0.3803159173754556	0.5547445255474452	0.03302509907529723
11403.35083007813	-12.96153846153846	-33.42240715649442	-0.5334883291248382	2.179175741583424	-0.1066487636791675	-2.063674571583238	3479.364102564102	3613.186813186813	0.3888213851761846	0.5437956204379563	0.03170409511228534
11422.88208007813	-12.65384615384616	-33.32457504465111	0.03644454024758281	1.735852820880119	0.3763197503039863	-2.054411657236373	3488.102564102564	3617.582417582417	0.3851761846901579	0.551094890510949	0.03963011889035667
11442.41333007813	-12.65384615384616	-33.30301933854776	-1.041340764919628	1.738506899163842	-0.5547504877519056	-1.655585635093647	3486.646153846154	3619.047619047619	0.3693803159173754	0.5437956204379563	0.0488771466314399
11461.94458007813	-13.23076923076923	-33.60645439428465	-0.677280285767075	1.75082836565336	-0.5469577721906543	-1.247467657296807	3469.169230769231	3616.117216117216	0.3876063183475091	0.5425790754257908	0.03434610303830912
11481.47583007813	-13.88461538461539	-32.16620219252325	-0.882198066145224	1.302671750847157	-0.5334207350160721	-1.242850720776999	3485.189743589744	3617.582417582417	0.3827460510328068	0.5425790754257908	0.03963011889035667
11501.00708007813	-13.26923076923077	-33.26157079509761	-0.575306398965326	1.312339139052952	0.4054422186010711	-1.233558765122886	3493.928205128205	3620.51282051282	0.3742405832320777	0.5523114355231144	0.03302509907529723
11520.53833007813	-13.34615384615385	-32.83355145654986	-0.7455040955841596	1.780304992735293	-0.06194086425958019	-0.4265857238760711	3474.994871794872	3620.51282051282	0.370595382746051	0.559610705596107	0.03830911492734478
11540.06958007813	-13.26923076923077	-33.48559616924309	-0.9124992301533532	1.755662059756257	-0.07752629538208272	-1.24282167946975	3488.102564102564	3617.582417582417	0.3693803159173754	0.5364963503649636	0.03434610303830912
11559.60083007813	-13.5	-33.26238683254296	-0.3037352959290509	1.307505444950055	-0.06398925820750048	-1.238204742949943	3486.646153846154	3621.978021978022	0.3766707168894289	0.5486618004866181	0.04359313077939234
11579.13208007813	-13.26923076923077	-32.39934255096384	-1.379026297961446	1.75082836565336	-0.5469577721906543	-1.247467657296807	3493.928205128205	3623.443223443223	0.3754556500607533	0.5547445255474452	0.02642007926023778
11598.66333007813	-14.07692307692308	-33.20399396440229	-0.7233787029623697	1.733673205060945	-1.024181964560477	-1.660231612920704	3492.471794871794	3617.582417582417	0.3730255164034022	0.551094890510949	0.03302509907529723
11618.19458007813	-13.5	-32.94136078093244	-0.9704224918396256	2.659463061755282	-0.5662391309785675	-0.8485835525395833	3476.451282051281	3619.047619047619	0.3815309842041312	0.5547445255474452	0.03434610303830912
11637.72583007813	-14.03846153846154	-33.31484418303874	-0.9885600788322966	1.748174287369637	0.3841124658652376	-1.646293679439534	3507.035897435897	3620.51282051282	0.3730255164034022	0.5498783454987835	0.04491413474240423
11657.25708007813	-13.80769230769231	-33.86292880458213	-0.7381751555090226	1.721351738571427	-1.031974680121728	-2.068349590717543	3492.471794871794	3617.582417582417	0.3730255164034022	0.551094890510949	0.03170409511228534
11676.78833007813	-13.80769230769231	-32.98222424093121	-0.5426341072858287	3.080797127763275	-1.995863314140116	-1.275256400337401	3470.625641025641	3617.582417582417	0.3827460510328068	0.5462287104622872	0.0488771466314399
11696.31958007813	-13.80769230769231	-32.59114214448482	-0.865969698835992	2.636999744595422	0.8186771527633934	-2.058999552448932	3493.928205128205	3613.186813186813	0.3912515188335358	0.5535279805352799	0.035667107001321
11715.85083007813	-13.73076923076923	-33.33248906817762	-0.4140081295805875	3.104965598277762	0.3512940699027422	-1.252026511202117	3486.646153846154	3617.582417582417	0.3815309842041312	0.5571776155717761	0.0369881109643329
11735.38208007813	-13.69230769230769	-32.75740592473979	-0.3604729937796392	2.636999744595422	0.8186771527633934	-2.058999552448932	3496.841025641026	3621.978021978022	0.3754556500607533	0.5535279805352799	0.04095112285336856
11754.91333007813	-13.88461538461539	-33.62660128102482	-0.9391667179897763	3.09046451596907	-1.057000360522973	-1.265964444683288	3474.994871794872	3620.51282051282	0.3827460510328068	0.5498783454987835	0.04227212681638045
11774.44458007813	-13.88461538461539	-33.17855053273388	-0.2647810556137218	2.647141595265765	-0.5740318465398188	-1.256701530336423	3486.646153846154	3620.51282051282	0.3766707168894289	0.5450121654501217	0.03302509907529723
11793.97583007813	-13.23076923076923	-33.4386278253372	-1.376301040832666	2.632166050492524	0.3492456759548219	-2.063645530275989	3498.297435897436	3616.117216117216	0.3791008505467801	0.5486618004866181	0.03302509907529723
11813.50708007813	-13.23076923076923	-33.0313789493133	-0.5848986881813141	2.19633090217584	0.3705754286906554	-1.650910615959341	3482.276923076923	3619.047619047619	0.3791008505467801	0.5498783454987835	0.04095112285336856
11833.03833007813	-13.76923076923077	-32.36556937857979	-0.644607994087578	2.65680898347156	0.3648311070773244	-1.24740957468231	3474.994871794872	3619.047619047619	0.3827460510328068	0.551094890510949	0.0369881109643329
11852.56958007813	-13.19230769230769	-32.76885354437396	-0.2880920120711954	1.765329447962052	0.8613366582350603	-1.233529723815637	3482.276923076923	3616.117216117216	0.3839611178614824	0.5535279805352799	0.03302509907529723
11872.10083007813	-14	-32.98380242655664	-0.2714171337069657	1.767983526245775	-0.06973357982083145	-0.8347037016729109	3477.907692307692	3617.582417582417	0.3730255164034022	0.5425790754257908	0.04491413474240423
11891.63208007813	-13.15384615384616	-33.78658311264396	-1.363152060109626	1.329494299645367	0.8826664109708938	-0.8207948094989895	3495.384615384615	3623.443223443223	0.3827460510328068	0.5462287104622872	0.0369881109643329
11911.16333007813	-14.19230769230769	-32.8737528484326	0.1876424216296113	1.309685060769229	1.336512456656963	-1.632384787265612	3493.928205128205	3620.51282051282	0.3803159173754556	0.5498783454987835	0.03830911492734478
11930.69458007813	-13.53846153846154	-33.03375007698467	-0.1586499969206134	1.760495753859155	0.3919051814264888	-1.238175701642694	3486.646153846154	3620.51282051282	0.3608748481166464	0.5547445255474452	0.03963011889035667
11950.22583007813	-12.73076923076923	-33.35538430744596	-0.2692461661637002	1.295183978460537	-0.07178197376875174	-1.646322720746783	3492.471794871794	3619.047619047619	0.3851761846901579	0.5474452554744526	0.0369881109643329
11969.75708007813	-13.42307692307692	-32.72732801625917	-0.2105222639650182	1.285516590254742	-1.010644927385895	-1.655614676400896	3492.471794871794	3617.582417582417	0.3827460510328068	0.5486618004866181	0.035667107001321
11989.28833007813	-14.42307692307692	-32.90998183161914	0.306783888649381	2.206472752846183	-1.022133570612557	-0.8486125938468322	3472.082051282051	3619.047619047619	0.3815309842041312	0.551094890510949	0.03963011889035667
12008.81958007813	-12.5	-33.85804797684301	-0.3668319270801257	0.8518610577572318	0.411186540214402	-1.637059806399918	3495.384615384615	3619.047619047619	0.3742405832320777	0.5425790754257908	0.03963011889035667
12028.35083007813	-12.92307692307692	-33.34156556014042	-0.7678758391328446	0.4085381370539266	0.8941550541975558	-1.627796892053053	3493.928205128205	3623.443223443223	0.3742405832320777	0.5486618004866181	0.03830911492734478
12047.88208007813	-14.07692307692308	-33.81602204840796	-0.8912052719098353	1.319826911439572	-0.05619654264624922	-0.830086765153103	3476.451282051281	3620.51282051282	0.3778857837181044	0.5425790754257908	0.035667107001321
12067.41333007813	-12.80769230769231	-33.4308446757406	-0.2654585206626841	0.8641825242467495	0.4189792557756533	-1.228941828603078	3493.928205128205	3619.047619047619	0.3851761846901579	0.5474452554744526	0.03830911492734478
12086.94458007813	-13.5	-32.8605268830449	-1.165963540062819	2.2187942193357	-1.014340855051305	-0.4404946160499925	3464.8	3617.582417582417	0.3742405832320777	0.5547445255474452	0.0369881109643329
12106.47583007813	-13.5	-33.45407864753341	-0.3345291617909714	0.8470273636543343	-0.05824493659416952	-1.641705784226975	3507.035897435897	3620.51282051282	0.3876063183475091	0.5437956204379563	0.0369881109643329
12126.00708007813	-12.92307692307692	-33.18836607747737	-0.7355422799778282	1.75831613803998	-1.008596533437975	-0.8439956573270243	3479.364102564102	3620.51282051282	0.3778857837181044	0.5498783454987835	0.04491413474240423
12145.53833007813	-13.11538461538462	-33.22920644207674	-0.4242932807784687	2.213960525232803	-1.483772331859877	-0.4451405938770492	3476.451282051281	3620.51282051282	0.3803159173754556	0.5535279805352799	0.04491413474240423
12165.06958007813	-13.23076923076923	-33.60568454763811	-0.7157726180944755	1.75082836565336	-0.5469577721906543	-1.247467657296807	3493.928205128205	3617.582417582417	0.3754556500607533	0.5547445255474452	0.02906208718626156
12184.60083007813	-12.65384615384616	-32.97198528053212	-0.2853513580094846	1.770637604529498	-1.000803817876723	-0.4358776795301846	3472.082051282051	3617.582417582417	0.3766707168894289	0.5608272506082725	0.04227212681638045
12204.13208007813	-12.80769230769231	-33.48165455441276	-1.571118433208105	0.8716702966333697	-0.04265950547166699	-0.8254698286332951	3499.753846153846	3623.443223443223	0.3742405832320777	0.5486618004866181	0.05019815059445178
12223.66333007813	-13.84615384615385	-33.0468990577077	-1.11658557615323	0.8716702966333697	-0.04265950547166699	-0.8254698286332951	3485.189743589744	3620.51282051282	0.3718104495747266	0.5523114355231144	0.04359313077939234
12243.19458007813	-13.61538461538462	-32.90366139065099	-0.8169304674508839	1.33214837792909	-0.04840382708499796	-0.4219687873562633	3479.364102564102	3613.186813186813	0.3766707168894289	0.5705596107055961	0.03830911492734478
12262.72583007813	-14.53846153846154	-32.80222639650182	-1.119449405678389	0.4111922153376494	-0.03691518385833602	-1.228970869910327	3508.492307692307	3620.51282051282	0.3766707168894289	0.5498783454987835	0.04623513870541612
12282.25708007813	-13.26923076923077	-33.66727997782841	-1.443693416271479	0.8620029084275749	-0.9815224590888101	-0.8347617842874087	3492.471794871794	3623.443223443223	0.3754556500607533	0.5474452554744526	0.04227212681638045
12301.78833007813	-13.23076923076923	-33.40475457288908	-1.14688674016136	1.329968762109915	-1.448905541949461	-0.02778874304059377	3483.733333333333	3626.373626373626	0.370595382746051	0.5535279805352799	0.04359313077939234
12321.31958007813	-13.42307692307692	-33.88055829278808	-0.2413161298269386	1.785613149302738	-1.924081340371364	0.3710663204093814	3461.887179487179	3620.51282051282	0.3730255164034022	0.551094890510949	0.0369881109643329
12340.85083007813	-13.69230769230769	-33.64657880150274	-0.1325983864014289	-0.04179809357145053	-0.4928096234923253	-1.228999911217576	3493.928205128205	3620.51282051282	0.3803159173754556	0.559610705596107	0.02509907529722589
12360.38208007813	-14.11538461538462	-33.28560540740285	-0.4504988606269631	0.8716702966333697	-0.04265950547166699	-0.8254698286332951	3493.928205128205	3620.51282051282	0.3791008505467801	0.5401459854014599	0.03963011889035667
12379.91333007813	-13.57692307692308	-33.38788723286321	0.278977027776067	1.767983526245775	-0.06973357982083145	-0.8347037016729109	3479.364102564102	3621.978021978022	0.3791008505467801	0.5498783454987835	0.05416116248348745
12399.44458007813	-13.80769230769231	-32.72124622775144	-0.1299963047360966	2.220973835154875	0.3861608598131578	-0.834674660365662	3476.451282051281	3619.047619047619	0.3754556500607533	0.5559610705596108	0.03302509907529723
12418.97583007813	-13.73076923076923	-32.9390974317916	-0.8528207181129521	1.745994671550462	-1.016389248999226	-1.252113635123864	3480.820512820513	3616.117216117216	0.3669501822600243	0.5498783454987835	0.04095112285336856
12438.50708007813	-13.88461538461539	-33.06461322904477	-0.1924154708382089	1.282862511971019	-0.079574689330003	-2.054440698543622	3486.646153846154	3616.117216117216	0.3645200486026731	0.5425790754257908	0.03038309114927345
12458.03833007813	-13.65384615384616	-33.13154369649566	-0.9228151752170966	2.63747420705997	-1.512894800156962	-1.265993485990536	3469.169230769231	3619.047619047619	0.3815309842041312	0.5547445255474452	0.02774108322324967
