Time Stamp	Accelerometer X	Accelerometer Y	Accelerometer Z	Gyroscope X	Gyroscope Y	Gyroscope Z	VSenseReg	VSenseBatt	Magnetometer X	Magnetometer Y	Magnetometer Z
799.835205078125	-4.154933253555235	0.3718672014754023	28.50667464447653	-30.48251591060524	129.9483029239264	-2.489395555792861	3400.717948717948	3583.882783882784	-0.08461538461538462	-0.1535532994923858	0.6108897742363877
819.366455078125	-3.625195597923307	0.8952937077486942	29.48044020766928	1.087378386972177	2.983477821395898	0.408248050361058	3403.630769230769	3576.556776556776	-0.06923076923076924	-0.1560913705583756	0.596281540504648
838.897705078125	-3.508669712515682	0.5514487173331462	29.13302874843183	4.550945102853901	1.947905639819602	0.06164405723432453	3383.241025641025	3576.556776556776	-0.07051282051282051	-0.1484771573604061	0.5989375830013279
858.428955078125	-3.147257689414506	-0.06896204138365752	29.27423105854949	3.147945599223996	1.55342491119827	-0.1159050543382299	3393.435897435897	3570.695970695971	-0.08333333333333333	-0.1472081218274112	0.594953519256308
877.960205078125	-3.625118651454657	0.7029082995076657	29.48813485453424	3.150870652035824	1.926031638612733	-0.1426055364154338	3393.435897435897	3575.091575091575	-0.08461538461538462	-0.1560913705583756	0.5922974767596281
897.491455078125	-3.664653131475046	0.5489919704821035	29.53468685249546	2.79249876351291	1.928832037605993	-0.4748667618726957	3399.261538461538	3578.021978021978	-0.1012820512820513	-0.1573604060913706	0.6029216467463479
917.022705078125	-3.385372537866897	0.2776878017071036	29.46274621331038	3.495179786655716	1.561649711264979	-0.1585755982740645	3377.415384615385	3569.230769230769	-0.08846153846153847	-0.1560913705583756	0.6002656042496679
936.553955078125	-2.870054650459894	0.8541398123491077	28.99453495401063	3.503392434935081	1.178017784790547	0.2430566531962359	3373.046153846154	3575.091575091575	-0.07435897435897436	-0.1598984771573604	0.6015936254980079
956.085205078125	-3.147411582351804	0.3158087750983992	29.25884176481958	3.136807898132803	1.564450110258239	-0.4908368237313263	3400.717948717948	3579.487179487179	-0.08717948717948718	-0.1484771573604061	0.594953519256308
975.616455078125	-2.704052801282359	0.8080164062182595	29.59471987176409	3.492254733843888	1.189042983850516	-0.1318751161968605	3374.502564102564	3569.230769230769	-0.08461538461538462	-0.166243654822335	0.5883134130146082
995.147705078125	-3.310781862301524	0.7823512193860779	28.92181376984757	3.492254733843888	1.189042983850516	-0.1318751161968605	3380.328205128205	3567.765567765568	-0.07692307692307693	-0.1522842639593909	0.6015936254980079
1014.678955078125	-3.071943717043828	0.6272785388296504	28.80562829561725	2.789573710701081	1.556225310191529	-0.4481662797954918	3397.805128205128	3576.556776556776	-0.08076923076923077	-0.1560913705583756	0.594953519256308
1034.210205078125	-3.5837990133616	0.3934831573413701	29.62009866383996	2.778436009609888	1.567250509251498	-0.8230980491885882	3399.261538461538	3576.556776556776	-0.07692307692307693	-0.1548223350253807	0.5922974767596281
1053.741455078125	-3.154767664754701	0.7078538029407093	28.52323352452991	2.781361062421717	1.939857236665962	-0.8497985312657921	3412.36923076923	3578.021978021978	-0.06923076923076924	-0.1510152284263959	0.6069057104913678
1073.272705078125	-3.308996704228855	0.3190097481942203	29.10032957711452	3.481117032752695	1.200068182910485	-0.5068068855899569	3380.328205128205	3578.021978021978	-0.08846153846153847	-0.1510152284263959	0.5869853917662682
1092.803955078125	-3.230297087237597	0.5502923658022809	28.97029127624028	3.492254733843888	1.189042983850516	-0.1318751161968605	3378.871794871795	3570.695970695971	-0.07820512820512821	-0.1573604060913706	0.5922974767596281
1112.335205078125	-3.386003498909822	-0.144751850716464	29.39965010901775	2.789573710701081	1.556225310191529	-0.4481662797954918	3397.805128205128	3578.021978021978	-0.08205128205128205	-0.1535532994923858	0.6042496679946878
1131.866455078125	-3.624149125949673	1.278852155670709	29.58508740503266	3.147945599223996	1.55342491119827	-0.1159050543382299	3383.241025641025	3570.695970695971	-0.08205128205128205	-0.1573604060913706	0.594953519256308
1151.397705078125	-2.911235784909382	0.8172712196815524	28.87642150906183	3.495179786655716	1.561649711264979	-0.1585755982740645	3386.153846153846	3572.161172161172	-0.07435897435897436	-0.1510152284263959	0.5989375830013279
1170.928955078125	-5.067534992176084	1.10436418825169	29.24650078239169	2.800711411792275	1.54520011113156	-0.07323451040239537	3381.784615384615	3567.765567765568	-0.08461538461538462	-0.1560913705583756	0.5922974767596281
1190.460205078125	-3.664714688649965	0.702900297074926	29.5285311350035	3.200709051868133	1.125692188483961	1.785454274704456	3386.153846153846	3573.626373626374	-0.08076923076923077	-0.1560913705583756	0.6029216467463479
1209.991455078125	-3.223233401415569	0.8893118892758782	29.67665985844312	2.789573710701081	1.556225310191529	-0.4481662797954918	3394.892307692307	3578.021978021978	-0.08461538461538462	-0.1535532994923858	0.5909694555112881
1229.522705078125	-3.621886899771377	0.622721153384475	29.81131002286233	2.789573710701081	1.556225310191529	-0.4481662797954918	3397.805128205128	3575.091575091575	-0.07820512820512821	-0.1522842639593909	0.5922974767596281
1249.053955078125	-3.348054116143616	0.9723038880742823	29.19458838563846	3.500467382123253	0.8054110573760833	0.2697571352734398	3374.502564102564	3573.626373626374	-0.08076923076923077	-0.1624365482233502	0.6015936254980079
1268.585205078125	-3.588677419473981	1.590718039822567	29.13225805260183	2.778436009609888	1.567250509251498	-0.8230980491885882	3393.435897435897	3575.091575091575	-0.08205128205128205	-0.1510152284263959	0.597609561752988
1288.116455078125	-3.390143218923169	1.205583112650861	28.98567810768319	3.133882845320974	1.191843382843775	-0.4641363416541224	3390.523076923077	3579.487179487179	-0.07692307692307693	-0.1548223350253807	0.596281540504648
1307.647705078125	-3.062156126231606	1.155854610570844	29.78438737683948	3.145020546412167	1.180818183783806	-0.08920457226102602	3384.697435897436	3570.695970695971	-0.07948717948717948	-0.1637055837563452	0.6002656042496679
1327.178955078125	-3.385557209391656	0.7394127814855716	29.44427906083449	2.789573710701081	1.556225310191529	-0.4481662797954918	3403.630769230769	3578.021978021978	-0.08205128205128205	-0.1472081218274112	0.597609561752988
1346.710205078125	-3.87476008091075	0.8688922971044735	28.52399190892492	2.786648657889253	1.183618582777066	-0.4214657977182879	3393.435897435897	3576.556776556776	-0.08461538461538462	-0.1459390862944162	0.5922974767596281
1366.241455078125	-3.659482328781796	0.6206925366849985	30.05176712182041	2.439414470457532	1.175393782710356	-0.3787952537824534	3397.805128205128	3578.021978021978	-0.0858974358974359	-0.1535532994923858	0.5869853917662682
1385.772705078125	-3.470951169155424	0.2456606808469775	28.90488308445767	2.800711411792275	1.54520011113156	-0.07323451040239537	3389.066666666666	3570.695970695971	-0.07692307692307693	-0.1573604060913706	0.6042496679946878
1405.303955078125	-3.188377266689074	0.7402610393559642	29.16227333109265	3.492254733843888	1.189042983850516	-0.1318751161968605	3375.958974358974	3570.695970695971	-0.08461538461538462	-0.1624365482233502	0.594953519256308
1424.835205078125	-2.986165024936812	1.159103598263103	29.38349750631884	3.136807898132803	1.564450110258239	-0.4908368237313263	3400.717948717948	3578.021978021978	-0.08333333333333333	-0.1560913705583756	0.594953519256308
1444.366455078125	-3.064033620066654	-0.1499414283480639	29.59663799333459	3.492254733843888	1.189042983850516	-0.1318751161968605	3380.328205128205	3569.230769230769	-0.08717948717948718	-0.1510152284263959	0.6015936254980079
1463.897705078125	-3.741613758274824	0.9697991266268022	29.83862417251767	3.147945599223996	1.55342491119827	-0.1159050543382299	3377.415384615385	3569.230769230769	-0.08076923076923077	-0.1560913705583756	0.6029216467463479
1483.428955078125	-2.989212105095334	0.7775657646078253	29.07878949046664	2.789573710701081	1.556225310191529	-0.4481662797954918	3390.523076923077	3578.021978021978	-0.08076923076923077	-0.1459390862944162	0.5989375830013279
1502.960205078125	-3.15148974519023	0.5122354118729018	28.85102548097698	3.139732950944631	1.937056837672702	-0.5175373058085302	3394.892307692307	3578.021978021978	-0.08461538461538462	-0.1535532994923858	0.597609561752988
1522.491455078125	-4.104303092755583	0.7838076621446766	29.56969072444176	2.794861306168618	0.7999866563026334	-0.01983354624798756	3381.784615384615	3569.230769230769	-0.06538461538461539	-0.1560913705583756	0.6029216467463479
1542.022705078125	-2.921962122639129	1.635797128480904	27.80378773608715	3.156158247503361	1.169792984723837	0.2857271971320704	3384.697435897436	3567.765567765568	-0.07948717948717948	-0.1586294416243655	0.5883134130146082
1561.553955078125	-3.665822717798518	0.4732501757457344	29.41772822014815	3.494617276499596	0.06019760254715648	0.3231580994278476	3373.046153846154	3573.626373626374	-0.09230769230769231	-0.1637055837563452	0.594953519256308
1581.085205078125	-3.231220444861392	0.8589172646946208	28.87795551386083	2.789573710701081	1.556225310191529	-0.4481662797954918	3400.717948717948	3579.487179487179	-0.07692307692307693	-0.1573604060913706	0.6108897742363877
1600.616455078125	-3.675117851211384	0.7134074912619588	28.48821487886163	3.145020546412167	1.180818183783806	-0.08920457226102602	3386.153846153846	3572.161172161172	-0.07948717948717948	-0.1560913705583756	0.594953519256308
1620.147705078125	-3.346638301120464	0.4324123764393607	29.33616988795362	3.495179786655716	1.561649711264979	-0.1585755982740645	3374.502564102564	3567.765567765568	-0.07820512820512821	-0.1560913705583756	0.594953519256308
1639.678955078125	-2.991058820342923	1.394815562392506	28.89411796570773	3.136807898132803	1.564450110258239	-0.4908368237313263	3399.261538461538	3578.021978021978	-0.07564102564102564	-0.1484771573604061	0.5922974767596281
1659.210205078125	-3.184837729131195	0.8905322602686602	29.51622708688056	3.147945599223996	1.55342491119827	-0.1159050543382299	3375.958974358974	3569.230769230769	-0.07564102564102564	-0.1598984771573604	0.5830013280212483
1678.741455078125	-3.310874198063904	1.013213709275312	28.91258019360962	3.136807898132803	1.564450110258239	-0.4908368237313263	3402.174358974359	3578.021978021978	-0.07435897435897436	-0.1522842639593909	0.5883134130146082
1698.272705078125	-3.583229609493594	0.9698311363577603	29.67703905064062	2.786648657889253	1.183618582777066	-0.4214657977182879	3394.892307692307	3576.556776556776	-0.08076923076923077	-0.1446700507614213	0.5909694555112881
1717.803955078125	-3.347607826625449	1.856468520276318	29.2392173374552	3.839488921275609	1.197267783917225	-0.1745456601326951	3370.133333333333	3567.765567765568	-0.07948717948717948	-0.1598984771573604	0.5922974767596281
1737.335205078125	-3.258920558003479	1.116125148198899	30.10794419965207	3.136807898132803	1.564450110258239	-0.4908368237313263	3402.174358974359	3579.487179487179	-0.08461538461538462	-0.1560913705583756	0.593625498007968
1756.866455078125	-3.111355082714376	1.165545556618443	28.8644917285624	3.492254733843888	1.189042983850516	-0.1318751161968605	3381.784615384615	3572.161172161172	-0.07820512820512821	-0.1472081218274112	0.5922974767596281
1776.397705078125	-2.949154389088129	0.6232613175943949	29.0845610911871	3.133882845320974	1.191843382843775	-0.4641363416541224	3383.241025641025	3575.091575091575	-0.06794871794871794	-0.1535532994923858	0.6029216467463479
1795.928955078125	-3.873836723286956	0.5602673982121333	28.61632767130438	3.495179786655716	1.561649711264979	-0.1585755982740645	3386.153846153846	3572.161172161172	-0.07435897435897436	-0.1510152284263959	0.596281540504648
1815.460205078125	-3.787488627311934	0.6684404366619758	29.25113726880664	2.445264576081189	1.920607237539284	-0.4321962179368612	3399.261538461538	3578.021978021978	-0.08846153846153847	-0.1510152284263959	0.5922974767596281
1834.991455078125	-3.391820651939729	0.3995850123052792	28.81793480602718	2.800711411792275	1.54520011113156	-0.07323451040239537	3389.066666666666	3570.695970695971	-0.08333333333333333	-0.1611675126903553	0.593625498007968
1854.522705078125	-3.787750245305342	0.3225508246814724	29.22497546946579	2.789573710701081	1.556225310191529	-0.4481662797954918	3400.717948717948	3578.021978021978	-0.07820512820512821	-0.1510152284263959	0.5909694555112881
1874.053955078125	-3.102644742463248	0.3875173437340335	29.73552575367527	3.145020546412167	1.180818183783806	-0.08920457226102602	3378.871794871795	3572.161172161172	-0.07307692307692308	-0.149746192893401	0.5922974767596281
1893.585205078125	-2.550300829913832	-0.6103500079408755	28.96991700861677	2.781361062421717	1.939857236665962	-0.8497985312657921	3399.261538461538	3578.021978021978	-0.0858974358974359	-0.1586294416243655	0.5922974767596281
1913.116455078125	-2.746588193580079	0.157130998592803	29.34118064199208	3.489329681032059	0.8164362564360523	-0.1051746341196566	3371.589743589744	3567.765567765568	-0.07435897435897436	-0.1624365482233502	0.597609561752988
1932.647705078125	-3.790274089477047	0.6327922149872023	28.97259105229528	3.514530136026274	1.166992585730578	0.6179884225893323	3380.328205128205	3573.626373626374	-0.08461538461538462	-0.1624365482233502	0.5989375830013279
1952.178955078125	-3.312382348849435	0.7839677107994676	28.76176511505651	2.778436009609888	1.567250509251498	-0.8230980491885882	3399.261538461538	3578.021978021978	-0.07820512820512821	-0.1535532994923858	0.6015936254980079
1971.710205078125	-4.180755872862273	0.9348711238985881	29.92441271377268	2.436489417645703	0.802787055295893	-0.3520947717052494	3391.979487179487	3576.556776556776	-0.07692307692307693	-0.1611675126903553	0.597609561752988
1991.241455078125	-3.264876214676955	1.006755746054493	29.51237853230458	3.136807898132803	1.564450110258239	-0.4908368237313263	3399.261538461538	3578.021978021978	-0.08205128205128205	-0.1586294416243655	0.5869853917662682
2010.772705078125	-2.902910177001501	0.00117004800228504	29.70898229984992	2.77551095679806	1.194643781837035	-0.7963975671113843	3394.892307692307	3573.626373626374	-0.08205128205128205	-0.1535532994923858	0.5830013280212483
2030.303955078125	-3.626149734134561	1.280872769937446	29.38502658654384	3.492254733843888	1.189042983850516	-0.1318751161968605	3378.871794871795	3570.695970695971	-0.08461538461538462	-0.1510152284263959	0.5909694555112881
2049.835205078125	-3.06815795078627	1.161916453371056	29.18420492137302	2.456402277172382	1.909582038479315	-0.05726444854376478	3391.979487179487	3569.230769230769	-0.08076923076923077	-0.1560913705583756	0.5922974767596281
2069.366455078125	-2.712209126959211	0.2008696797672646	28.7790873040789	3.156158247503361	1.169792984723837	0.2857271971320704	3386.153846153846	3576.556776556776	-0.07820512820512821	-0.1637055837563452	0.6029216467463479
2088.897705078125	-3.224249094801743	1.428799278057452	29.57509051982571	3.498104839467545	1.934256438679443	-0.1852760803512684	3389.066666666666	3572.161172161172	-0.08076923076923077	-0.1624365482233502	0.593625498007968
2108.428955078125	-2.747711612022362	0.9659579589118168	29.22883879776375	3.133882845320974	1.191843382843775	-0.4641363416541224	3390.523076923077	3578.021978021978	-0.08461538461538462	-0.1624365482233502	0.593625498007968
2127.960205078125	-3.104614572060676	0.3125837947043594	29.53854279393243	2.436489417645703	0.802787055295893	-0.3520947717052494	3397.805128205128	3576.556776556776	-0.07564102564102564	-0.1560913705583756	0.5922974767596281
2147.491455078125	-3.745230242301352	0.01191331395513468	29.4769757698648	2.789573710701081	1.556225310191529	-0.4481662797954918	3412.36923076923	3578.021978021978	-0.07948717948717948	-0.1459390862944162	0.5896414342629481
2167.022705078125	-3.070050833915049	0.8945974961003531	28.99491660849513	2.431201822178167	1.559025709184789	-0.7804275052527536	3394.892307692307	3575.091575091575	-0.06923076923076924	-0.1560913705583756	0.5856573705179282
2186.553955078125	-4.036899217362079	-0.7427317904643012	28.31007826379219	3.481117032752695	1.200068182910485	-0.5068068855899569	3371.589743589744	3575.091575091575	-0.07948717948717948	-0.1548223350253807	0.5883134130146082
2206.085205078125	-3.98733091782979	0.3241273039311644	29.26690821702105	3.133882845320974	1.191843382843775	-0.4641363416541224	3390.523076923077	3576.556776556776	-0.08205128205128205	-0.1535532994923858	0.5869853917662682
2225.616455078125	-2.471062587642028	1.274234751979987	28.89374123579722	2.800711411792275	1.54520011113156	-0.07323451040239537	3386.153846153846	3570.695970695971	-0.07820512820512821	-0.1522842639593909	0.5896414342629481
2245.147705078125	-2.95077026492977	0.6633548906559902	28.92297350702305	3.503392434935081	1.178017784790547	0.2430566531962359	3384.697435897436	3573.626373626374	-0.07948717948717948	-0.1522842639593909	0.5909694555112881
2264.678955078125	-3.385880384559983	-0.4525685039021093	29.41196154400168	3.136807898132803	1.564450110258239	-0.4908368237313263	3397.805128205128	3578.021978021978	-0.08717948717948718	-0.1535532994923858	0.5896414342629481
2284.210205078125	-3.265445618544961	0.4304077670381026	29.45543814550392	2.786648657889253	1.183618582777066	-0.4214657977182879	3391.979487179487	3575.091575091575	-0.07692307692307693	-0.166243654822335	0.594953519256308
2303.741455078125	-3.150504830391516	0.04970218638773882	28.9495169608484	3.500467382123253	0.8054110573760833	0.2697571352734398	3371.589743589744	3569.230769230769	-0.07179487179487179	-0.1548223350253807	0.6042496679946878
2323.272705078125	-4.186726918829478	-0.1360211965976118	29.32730811705219	3.136807898132803	1.564450110258239	-0.4908368237313263	3399.261538461538	3576.556776556776	-0.08205128205128205	-0.1649746192893401	0.5856573705179282
2342.803955078125	-3.943764442852165	0.397048241126841	29.62355571478344	3.855914217834338	0.4300039309683603	0.6287188428079056	3371.589743589744	3575.091575091575	-0.07692307692307693	-0.1522842639593909	0.5883134130146082
2362.335205078125	-3.474829271175361	0.9418852561948063	28.51707288246396	2.79249876351291	1.928832037605993	-0.4748667618726957	3400.717948717948	3575.091575091575	-0.07820512820512821	-0.1598984771573604	0.5909694555112881
2381.866455078125	-3.781794588631867	0.4319202268258781	29.82054113681328	3.50631748774691	1.55062451220501	0.2163561711190319	3377.415384615385	3575.091575091575	-0.08461538461538462	-0.1586294416243655	0.594953519256308
2401.397705078125	-4.345849753709743	0.7108467127853021	29.41502462902568	3.181358702497575	1.520349314018363	1.008890253841059	3391.979487179487	3578.021978021978	-0.08974358974358974	-0.1573604060913706	0.597609561752988
2420.928955078125	-3.276910642373744	1.095833594951327	28.30893576262568	3.136807898132803	1.564450110258239	-0.4908368237313263	3400.717948717948	3578.021978021978	-0.07564102564102564	-0.1472081218274112	0.5922974767596281
2440.460205078125	-3.30316416190522	-0.2638041964757286	29.68358380947808	2.786648657889253	1.183618582777066	-0.4214657977182879	3397.805128205128	3578.021978021978	-0.08205128205128205	-0.1510152284263959	0.5896414342629481
2459.991455078125	-4.033744412147446	0.3694664716535365	28.62555878525533	2.772585903986231	0.8220370544225715	-0.7696970850341804	3393.435897435897	3578.021978021978	-0.09102564102564102	-0.1484771573604061	0.5922974767596281
2479.522705078125	-3.86971239256734	0.2484095164930139	29.02876074326595	2.77551095679806	1.194643781837035	-0.7963975671113843	3390.523076923077	3576.556776556776	-0.08205128205128205	-0.1484771573604061	0.6108897742363877
2499.053955078125	-3.625934284022343	0.7421936268625663	29.40657159776572	2.794861306168618	0.7999866563026334	-0.01983354624798756	3373.046153846154	3569.230769230769	-0.08333333333333333	-0.1649746192893401	0.597609561752988
2518.585205078125	-3.747492468479649	0.6680443162413681	29.25075315203514	3.145020546412167	1.180818183783806	-0.08920457226102602	3387.610256410256	3572.161172161172	-0.08846153846153847	-0.149746192893401	0.6002656042496679
2538.116455078125	-3.595002419196975	0.4047985972350978	28.49975808030256	2.822986813974661	1.523149713011622	0.6766290283837975	3393.435897435897	3576.556776556776	-0.07564102564102564	-0.1522842639593909	0.5922974767596281
2557.647705078125	-2.776412029256894	0.7241761495494631	30.35879707431059	3.156158247503361	1.169792984723837	0.2857271971320704	3381.784615384615	3576.556776556776	-0.07820512820512821	-0.1510152284263959	0.6029216467463479
2577.178955078125	-3.590754974127519	0.7851240623303329	28.92450258724806	2.778436009609888	1.567250509251498	-0.8230980491885882	3397.805128205128	3578.021978021978	-0.0858974358974359	-0.1535532994923858	0.594953519256308
2596.710205078125	-2.623891201386761	1.383976267246781	29.61087986132399	3.136807898132803	1.564450110258239	-0.4908368237313263	3393.435897435897	3572.161172161172	-0.08717948717948718	-0.149746192893401	0.6002656042496679
2616.241455078125	-2.981702129755138	1.000749920283458	29.82978702448621	3.145020546412167	1.180818183783806	-0.08920457226102602	3381.784615384615	3572.161172161172	-0.07948717948717948	-0.1560913705583756	0.5909694555112881
2635.772705078125	-3.745768867581899	1.358611171642333	29.42311324181012	3.136807898132803	1.564450110258239	-0.4908368237313263	3400.717948717948	3576.556776556776	-0.08461538461538462	-0.1484771573604061	0.5883134130146082
2655.303955078125	-3.511193556687387	0.8616901076388759	28.88064433126132	3.153233194691532	0.7971862573093739	0.3124276792092743	3368.676923076923	3573.626373626374	-0.0858974358974359	-0.149746192893401	0.5922974767596281
2674.835205078125	-3.956183602892203	0.4480531312288166	28.38163971077977	3.133882845320974	1.191843382843775	-0.4641363416541224	3396.348717948718	3575.091575091575	-0.0858974358974359	-0.1560913705583756	0.593625498007968
2694.366455078125	-3.189516074425087	0.5875650813231838	29.04839255749132	3.145020546412167	1.180818183783806	-0.08920457226102602	3381.784615384615	3573.626373626374	-0.08205128205128205	-0.1560913705583756	0.593625498007968
2713.897705078125	-3.908615911544803	0.5169328398910191	29.13840884551981	2.789573710701081	1.556225310191529	-0.4481662797954918	3393.435897435897	3578.021978021978	-0.08076923076923077	-0.1535532994923858	0.6042496679946878
2733.428955078125	-3.508792826865522	0.8592653705187914	29.1207173134479	2.44233952326936	1.54800051012482	-0.4054957358596573	3394.892307692307	3575.091575091575	-0.07051282051282051	-0.1573604060913706	0.5869853917662682
2752.960205078125	-3.185468690174121	0.4680926078450926	29.45313098258793	3.108682390326759	0.8412870535492499	-1.187299398363111	3391.979487179487	3572.161172161172	-0.08205128205128205	-0.1573604060913706	0.5909694555112881
2772.491455078125	-3.708742842439487	0.7842918093254194	29.12571575605137	3.136807898132803	1.564450110258239	-0.4908368237313263	3400.717948717948	3579.487179487179	-0.08205128205128205	-0.1586294416243655	0.593625498007968
2792.022705078125	-3.260798051838528	0.8103291092799903	29.92019481614718	3.492254733843888	1.189042983850516	-0.1318751161968605	3384.697435897436	3569.230769230769	-0.08205128205128205	-0.1459390862944162	0.6029216467463479
2811.553955078125	-3.459593870382751	-0.1504255755288069	30.04061296172498	3.145020546412167	1.180818183783806	-0.08920457226102602	3381.784615384615	3570.695970695971	-0.07435897435897436	-0.1586294416243655	0.5922974767596281
2831.085205078125	-4.109981742141919	0.9818507903325688	29.00182578580811	3.145020546412167	1.180818183783806	-0.08920457226102602	3384.697435897436	3569.230769230769	-0.08333333333333333	-0.1522842639593909	0.5856573705179282
2850.616455078125	-3.385911163147443	-0.3756143406056979	29.4088836852557	2.797786358980446	1.172593383717097	-0.04653402832519149	3389.066666666666	3573.626373626374	-0.07692307692307693	-0.149746192893401	0.593625498007968
2870.147705078125	-2.949600678606297	0.7390966853923592	29.03993213937036	2.431201822178167	1.559025709184789	-0.7804275052527536	3394.892307692307	3576.556776556776	-0.09230769230769231	-0.1624365482233502	0.5989375830013279
2889.678955078125	-3.064402963116172	0.7735085312088721	29.5597036883828	3.139732950944631	1.937056837672702	-0.5175373058085302	3400.717948717948	3576.556776556776	-0.0858974358974359	-0.1637055837563452	0.593625498007968
2909.210205078125	-2.827950158386611	1.582383506124323	29.20498416133889	3.111607443138587	1.213893780963713	-1.213999880440315	3389.066666666666	3575.091575091575	-0.07820512820512821	-0.1472081218274112	0.5869853917662682
2928.741455078125	-3.223279569296759	0.004743134220495326	29.67204307032414	2.778436009609888	1.567250509251498	-0.8230980491885882	3402.174358974359	3576.556776556776	-0.06666666666666667	-0.1586294416243655	0.593625498007968
2948.272705078125	-3.785688079945535	0.1666218838219126	29.43119200544657	2.789573710701081	1.556225310191529	-0.4481662797954918	3400.717948717948	3576.556776556776	-0.07564102564102564	-0.1472081218274112	0.594953519256308
2967.803955078125	-3.025345551201412	0.1202143913288102	29.46544487985885	3.150308141879703	0.4245795298949105	0.3391281612864782	3375.958974358974	3573.626373626374	-0.0858974358974359	-0.149746192893401	0.5989375830013279
2987.335205078125	-3.109169803004729	0.7017999625732376	29.08301969952711	3.47290438447333	1.583700109384917	-0.9084391370602574	3409.45641025641	3573.626373626374	-0.07564102564102564	-0.1535532994923858	0.5883134130146082
3006.866455078125	-3.59070880624633	0.669692817385716	28.92911937536703	2.781361062421717	1.939857236665962	-0.8497985312657921	3389.066666666666	3575.091575091575	-0.07820512820512821	-0.1598984771573604	0.5856573705179282
3026.397705078125	-3.863202721319589	0.9726039793020154	29.67972786804111	3.492254733843888	1.189042983850516	-0.1318751161968605	3375.958974358974	3569.230769230769	-0.08205128205128205	-0.1548223350253807	0.6042496679946878
3045.928955078125	-2.950293196824142	0.4705653595616144	28.97068031758577	2.789573710701081	1.556225310191529	-0.4481662797954918	3400.717948717948	3578.021978021978	-0.08205128205128205	-0.1484771573604061	0.594953519256308
3065.460205078125	-3.345976561490078	0.7778978655665169	29.40234385099224	3.83656386846378	0.8246610565027619	-0.1478451780554912	3367.220512820513	3569.230769230769	-0.07564102564102564	-0.1611675126903553	0.6082337317397077
3084.991455078125	-3.629212203586814	-0.06218798206962606	29.07877964131865	2.789573710701081	1.556225310191529	-0.4481662797954918	3400.717948717948	3578.021978021978	-0.08846153846153847	-0.1522842639593909	0.6015936254980079
3104.522705078125	-3.861648402652868	0.08641873283324286	29.83515973471319	3.133882845320974	1.191843382843775	-0.4641363416541224	3390.523076923077	3578.021978021978	-0.07435897435897436	-0.149746192893401	0.6002656042496679
3124.053955078125	-3.675148629798843	0.7903616545583703	28.48513702011565	3.133882845320974	1.191843382843775	-0.4641363416541224	3383.241025641025	3576.556776556776	-0.07179487179487179	-0.1434010152284264	0.5989375830013279
3143.585205078125	-3.586938429282502	0.2428078135753269	29.30615707174981	3.125670197041609	1.575475309318208	-0.8657685931244228	3402.174358974359	3578.021978021978	-0.08461538461538462	-0.1560913705583756	0.6042496679946878
3163.116455078125	-3.583491227487002	0.6239415243772568	29.65087725129978	2.781361062421717	1.939857236665962	-0.8497985312657921	3394.892307692307	3576.556776556776	-0.07435897435897436	-0.1560913705583756	0.5843293492695882
3182.647705078125	-3.024637643689836	0.3502686355113492	29.53623563101644	2.445264576081189	1.920607237539284	-0.4321962179368612	3410.91282051282	3582.417582417582	-0.06538461538461539	-0.1573604060913706	0.5869853917662682
3202.178955078125	-3.46811953910912	0.1658776575771342	29.188046089088	3.133882845320974	1.191843382843775	-0.4641363416541224	3394.892307692307	3579.487179487179	-0.08076923076923077	-0.1611675126903553	0.594953519256308
3221.710205078125	-3.189546853012547	0.6645192446195951	29.04531469874534	2.783723605077424	0.8110118553626025	-0.394765315641084	3394.892307692307	3579.487179487179	-0.07307692307692308	-0.1522842639593909	0.593625498007968
3241.241455078125	-3.389035189774615	0.435233233980053	29.09648102253854	3.133882845320974	1.191843382843775	-0.4641363416541224	3394.892307692307	3579.487179487179	-0.07435897435897436	-0.1472081218274112	0.5896414342629481
3260.772705078125	-3.349793106335095	0.320214114321523	29.02068936649048	2.44233952326936	1.54800051012482	-0.4054957358596573	3400.717948717948	3579.487179487179	-0.08076923076923077	-0.1459390862944162	0.596281540504648
3280.303955078125	-3.108831238542671	0.8553041663127128	29.11687614573291	3.145020546412167	1.180818183783806	-0.08920457226102602	3371.589743589744	3569.230769230769	-0.08974358974358974	-0.1560913705583756	0.594953519256308
3299.835205078125	-3.70644983767373	0.05120664374277478	29.35501623262702	2.786648657889253	1.183618582777066	-0.4214657977182879	3403.630769230769	3579.487179487179	-0.07307692307692308	-0.1535532994923858	0.593625498007968
3319.366455078125	-3.067173035987556	0.6993832278858926	29.28269640124444	3.142095493600339	0.8082114563693429	-0.06250409018382208	3377.415384615385	3570.695970695971	-0.07948717948717948	-0.1573604060913706	0.5883134130146082
3338.897705078125	-3.272093793436282	0.05250703906295207	28.79062065637184	3.147945599223996	1.55342491119827	-0.1159050543382299	3389.066666666666	3573.626373626374	-0.08076923076923077	-0.1548223350253807	0.6002656042496679
3358.428955078125	-2.815869562808633	0.3778744122828724	30.41304371913677	3.136807898132803	1.564450110258239	-0.4908368237313263	3399.261538461538	3578.021978021978	-0.08076923076923077	-0.1484771573604061	0.5856573705179282
3377.960205078125	-3.141040414747622	0.3862969727412517	29.89595852523782	3.142095493600339	0.8082114563693429	-0.06250409018382208	3381.784615384615	3570.695970695971	-0.07948717948717948	-0.1611675126903553	0.6015936254980079
3397.491455078125	-3.742429390842509	0.009084453981702712	29.75706091574915	2.797786358980446	1.172593383717097	-0.04653402832519149	3375.958974358974	3569.230769230769	-0.07564102564102564	-0.1700507614213198	0.593625498007968
3417.022705078125	-2.83507540138356	0.3972723092435484	28.49245986164409	3.122745144229781	1.202868581903744	-0.8390681110472189	3394.892307692307	3573.626373626374	-0.08205128205128205	-0.1510152284263959	0.5896414342629481
3436.553955078125	-3.143348808807108	0.1578592199721023	29.66511911928918	3.492254733843888	1.189042983850516	-0.1318751161968605	3375.958974358974	3573.626373626374	-0.08717948717948718	-0.1573604060913706	0.597609561752988
3456.085205078125	-2.863621925680792	0.7707196833991378	29.63780743192084	3.847701569554974	0.8136358574427929	0.2270865913376052	3368.676923076923	3570.695970695971	-0.07051282051282051	-0.1649746192893401	0.596281540504648
3475.616455078125	-2.753790383045677	1.164405209953056	28.62096169543233	2.789573710701081	1.556225310191529	-0.4481662797954918	3391.979487179487	3578.021978021978	-0.08846153846153847	-0.1510152284263959	0.597609561752988
3495.147705078125	-3.385495652216736	0.5855044548927488	29.45043477832645	2.434126874989996	1.931632436599253	-0.8071279873299576	3419.651282051282	3582.417582417582	-0.08846153846153847	-0.1573604060913706	0.596281540504648
3514.678955078125	-3.266199693937727	1.315784767800181	29.38003060622737	3.492254733843888	1.189042983850516	-0.1318751161968605	3389.066666666666	3572.161172161172	-0.08205128205128205	-0.1573604060913706	0.594953519256308
3534.210205078125	-3.508346537347354	0.743430002720827	29.16534626526464	3.130957792509145	0.8192366554293119	-0.4374358595769185	3390.523076923077	3570.695970695971	-0.08076923076923077	-0.1598984771573604	0.597609561752988
3553.741455078125	-3.86307960696975	0.6647873261163702	29.69203930302504	2.811849112883468	1.534174912071591	0.301697258990701	3390.523076923077	3573.626373626374	-0.08461538461538462	-0.1611675126903553	0.5883134130146082
3573.272705078125	-3.703495093277587	-0.3363930327127139	29.65049067224128	2.778436009609888	1.567250509251498	-0.8230980491885882	3400.717948717948	3576.556776556776	-0.07820512820512821	-0.1548223350253807	0.596281540504648
3592.803955078125	-3.144995463236209	0.2749069563301089	29.50045367637916	3.489329681032059	0.8164362564360523	-0.1051746341196566	3378.871794871795	3572.161172161172	-0.08461538461538462	-0.1573604060913706	0.5922974767596281
3612.335205078125	-3.315321703951848	0.1330903056067507	28.46782960481524	3.147945599223996	1.55342491119827	-0.1159050543382299	3381.784615384615	3569.230769230769	-0.07820512820512821	-0.1713197969543147	0.5922974767596281
3631.866455078125	-2.739924629395029	0.4965546449197479	30.00753706049716	3.125670197041609	1.575475309318208	-0.8657685931244228	3400.717948717948	3576.556776556776	-0.07307692307692308	-0.1548223350253807	0.594953519256308
3651.397705078125	-3.277064535311042	0.4806044114333833	28.29354646889577	2.789573710701081	1.556225310191529	-0.4481662797954918	3391.979487179487	3575.091575091575	-0.07820512820512821	-0.1624365482233502	0.596281540504648
3670.928955078125	-3.626596023652729	0.39670813773541	29.3403976347271	2.778436009609888	1.567250509251498	-0.8230980491885882	3394.892307692307	3575.091575091575	-0.07692307692307693	-0.1649746192893401	0.6082337317397077
3690.460205078125	-3.697862611772441	0.5809950840440108	30.21373882275596	3.825426167372587	0.8356862555627309	-0.5227769474485876	3384.697435897436	3572.161172161172	-0.07692307692307693	-0.149746192893401	0.5830013280212483
3709.991455078125	-3.507146172436421	0.7422176341607848	29.28538275635793	2.789573710701081	1.556225310191529	-0.4481662797954918	3402.174358974359	3576.556776556776	-0.08076923076923077	-0.1522842639593909	0.597609561752988
3729.522705078125	-3.030485575307202	-0.02844033817049613	28.95144246927989	3.481117032752695	1.200068182910485	-0.5068068855899569	3387.610256410256	3573.626373626374	-0.08461538461538462	-0.1522842639593909	0.5909694555112881
3749.053955078125	-2.909204398137034	0.738296442118404	29.07956018629663	3.478191979940866	0.8274614554960214	-0.480106403512753	3378.871794871795	3575.091575091575	-0.07435897435897436	-0.1459390862944162	0.597609561752988
3768.585205078125	-3.913124974607666	-0.2092822371847195	28.68750253923346	3.458841630570308	1.222118581030423	-1.25667042437615	3390.523076923077	3575.091575091575	-0.08461538461538462	-0.1611675126903553	0.6002656042496679
3788.116455078125	-4.39254025531454	1.448773350175376	28.74597446854613	3.83656386846378	0.8246610565027619	-0.1478451780554912	3373.046153846154	3569.230769230769	-0.08461538461538462	-0.1522842639593909	0.5869853917662682
3807.647705078125	-2.979993918151118	0.7297938573326291	30.0006081848882	2.781361062421717	1.939857236665962	-0.8497985312657921	3412.36923076923	3578.021978021978	-0.07820512820512821	-0.1611675126903553	0.5922974767596281
3827.178955078125	-3.144241387843443	0.3895299555680311	29.57586121565571	3.484042085564523	1.572674910324948	-0.5335073676671609	3386.153846153846	3575.091575091575	-0.07948717948717948	-0.1573604060913706	0.5856573705179282
3846.710205078125	-3.063279544673889	0.9646815708898582	29.67204553261114	2.772585903986231	0.8220370544225715	-0.7696970850341804	3389.066666666666	3576.556776556776	-0.07820512820512821	-0.149746192893401	0.593625498007968
3866.241455078125	-2.42652658715942	0.9230995453387061	29.34734128405804	2.778436009609888	1.567250509251498	-0.8230980491885882	3410.91282051282	3578.021978021978	-0.08076923076923077	-0.1522842639593909	0.597609561752988
3885.772705078125	-3.78816575623605	0.3614320291830254	29.18342437639504	3.14265800375646	2.309663565087166	-0.5442377878857342	3399.261538461538	3578.021978021978	-0.07307692307692308	-0.1637055837563452	0.5896414342629481
3905.303955078125	-2.90820409404459	0.2372861349850355	29.17959059554104	2.444702065925068	0.4191551288214606	0.04953747976505085	3373.046153846154	3569.230769230769	-0.07435897435897436	-0.1675126903553299	0.596281540504648
3924.835205078125	-3.107184584113571	0.7382564299547062	29.28154158864294	3.481117032752695	1.200068182910485	-0.5068068855899569	3390.523076923077	3578.021978021978	-0.08333333333333333	-0.1522842639593909	0.596281540504648
3944.366455078125	-2.587819312455602	0.1952359671186195	29.21806875443981	2.789573710701081	1.556225310191529	-0.4481662797954918	3403.630769230769	3576.556776556776	-0.08076923076923077	-0.1535532994923858	0.594953519256308
3963.897705078125	-3.10895435289251	0.1631208194983583	29.10456471074899	2.450552171548725	1.164368583650387	-0.003863484389356964	3383.241025641025	3573.626373626374	-0.08333333333333333	-0.1586294416243655	0.5922974767596281
3983.428955078125	-4.195514205549257	0.8343924245278255	28.44857944507438	3.139732950944631	1.937056837672702	-0.5175373058085302	3402.174358974359	3578.021978021978	-0.08076923076923077	-0.1535532994923858	0.5856573705179282
4002.960205078125	-3.018435758316683	0.8440047312844641	30.15642416833178	3.489329681032059	0.8164362564360523	-0.1051746341196566	3377.415384615385	3570.695970695971	-0.08846153846153847	-0.149746192893401	0.5989375830013279
4022.491455078125	-2.988888929927006	0.9695470499955063	29.11110700729945	2.781361062421717	1.939857236665962	-0.8497985312657921	3412.36923076923	3576.556776556776	-0.08076923076923077	-0.1522842639593909	0.5922974767596281
4042.022705078125	-3.55328265946694	1.094969332215455	28.67173405330605	2.437051927801824	2.304239164013715	-0.8338284694071616	3397.805128205128	3578.021978021978	-0.07948717948717948	-0.1459390862944162	0.6002656042496679
4061.553955078125	-3.462117714554456	0.1598158147769229	29.78822854455446	3.500467382123253	0.8054110573760833	0.2697571352734398	3373.046153846154	3572.161172161172	-0.08333333333333333	-0.1548223350253807	0.597609561752988
4081.085205078125	-4.034129144490694	0.3313935128586784	28.58708555093056	3.125670197041609	1.575475309318208	-0.8657685931244228	3391.979487179487	3575.091575091575	-0.07435897435897436	-0.1624365482233502	0.5989375830013279
4100.616455078125	-3.219878535382449	0.5013080899670424	30.01214646175514	3.481117032752695	1.200068182910485	-0.5068068855899569	3399.261538461538	3576.556776556776	-0.07820512820512821	-0.1637055837563452	0.6042496679946878
4120.147705078125	-2.626045702508947	-0.2292323020044247	29.39542974910526	2.445264576081189	1.920607237539284	-0.4321962179368612	3399.261538461538	3578.021978021978	-0.09102564102564102	-0.1510152284263959	0.5922974767596281
4139.678955078125	-3.392774788150983	-0.2148359255059691	28.72252118490174	2.789573710701081	1.556225310191529	-0.4481662797954918	3391.979487179487	3575.091575091575	-0.06923076923076924	-0.1573604060913706	0.593625498007968
4159.210205078125	-3.904737809524866	0.8207082645431901	29.52621904751352	3.489329681032059	0.8164362564360523	-0.1051746341196566	3371.589743589744	3567.765567765568	-0.08205128205128205	-0.1598984771573604	0.596281540504648
4178.741455078125	-3.755310229694443	0.2144017935298485	28.46897703055575	3.133882845320974	1.191843382843775	-0.4641363416541224	3387.610256410256	3578.021978021978	-0.07564102564102564	-0.166243654822335	0.5776892430278884
4198.272705078125	-3.26893898822165	0.1647053011807897	29.10610117783498	2.436489417645703	0.802787055295893	-0.3520947717052494	3390.523076923077	3576.556776556776	-0.07820512820512821	-0.1535532994923858	0.5883134130146082
4217.803955078125	-2.706499698985414	0.9258723882829612	29.35003010145853	2.797786358980446	1.172593383717097	-0.04653402832519149	3380.328205128205	3570.695970695971	-0.07564102564102564	-0.1510152284263959	0.5909694555112881
4237.335205078125	-2.879319005285299	1.017342964568921	28.06809947147009	3.133882845320974	1.191843382843775	-0.4641363416541224	3390.523076923077	3578.021978021978	-0.07948717948717948	-0.1472081218274112	0.6042496679946878
4256.866455078125	-3.310858808770175	-0.02526337237289367	28.91411912298261	3.136807898132803	1.564450110258239	-0.4908368237313263	3400.717948717948	3578.021978021978	-0.07820512820512821	-0.1586294416243655	0.5989375830013279
4276.397705078125	-3.468812057326966	-0.1026536682536106	29.11879426730341	2.789573710701081	1.556225310191529	-0.4481662797954918	3399.261538461538	3578.021978021978	-0.08205128205128205	-0.1472081218274112	0.597609561752988
4295.928955078125	-3.230097026419109	0.05009030437560713	28.99029735808916	2.778436009609888	1.567250509251498	-0.8230980491885882	3391.979487179487	3575.091575091575	-0.08461538461538462	-0.1548223350253807	0.596281540504648
4315.460205078125	-2.901140408222561	0.5763056584586329	29.88595917774388	3.489329681032059	0.8164362564360523	-0.1051746341196566	3368.676923076923	3567.765567765568	-0.07692307692307693	-0.1611675126903553	0.6029216467463479
4334.991455078125	-4.226446070374625	1.171787454155294	29.35539296253753	3.136807898132803	1.564450110258239	-0.4908368237313263	3391.979487179487	3576.556776556776	-0.07820512820512821	-0.1484771573604061	0.6082337317397077
4354.522705078125	-3.747738697179327	0.2836776226126589	29.22613028206728	2.439414470457532	1.175393782710356	-0.3787952537824534	3391.979487179487	3575.091575091575	-0.08461538461538462	-0.1522842639593909	0.6042496679946878
4374.053955078125	-3.381109703503712	0.619536185154133	29.88902964962887	3.492254733843888	1.189042983850516	-0.1318751161968605	3370.133333333333	3569.230769230769	-0.08461538461538462	-0.1472081218274112	0.6082337317397077
4393.585205078125	-3.30644208146969	0.931814194592079	29.35579185303101	3.136807898132803	1.564450110258239	-0.4908368237313263	3399.261538461538	3576.556776556776	-0.0858974358974359	-0.1446700507614213	0.6015936254980079
4413.116455078125	-3.103029474806495	0.3494443849391754	29.69705251935049	3.847701569554974	0.8136358574427929	0.2270865913376052	3370.133333333333	3570.695970695971	-0.08846153846153847	-0.1548223350253807	0.6029216467463479
4432.647705078125	-2.19156654392166	0.4642514401301073	28.84334560783401	2.431201822178167	1.559025709184789	-0.7804275052527536	3397.805128205128	3578.021978021978	-0.07307692307692308	-0.1611675126903553	0.593625498007968
4452.178955078125	-3.508346537347354	0.743430002720827	29.16534626526464	2.789573710701081	1.556225310191529	-0.4481662797954918	3391.979487179487	3575.091575091575	-0.07820512820512821	-0.1586294416243655	0.596281540504648
4471.710205078125	-3.471043504917803	0.4765231707362115	28.89564950821973	3.847701569554974	0.8136358574427929	0.2270865913376052	3367.220512820513	3569.230769230769	-0.07820512820512821	-0.1586294416243655	0.594953519256308
4491.241455078125	-3.064387573822442	0.7350314495606665	29.5612426177558	2.784286115233545	2.312463964080425	-0.876499013342996	3412.36923076923	3576.556776556776	-0.08205128205128205	-0.1472081218274112	0.6029216467463479
4510.772705078125	-3.114679170160037	0.4765951926308674	28.53208298399636	2.794861306168618	0.7999866563026334	-0.01983354624798756	3377.415384615385	3569.230769230769	-0.08974358974358974	-0.1573604060913706	0.5909694555112881
4530.303955078125	-2.90988152706115	0.4312880346394535	29.01184729388503	4.175585407616136	1.216517783043904	-0.592147973461626	3377.415384615385	3573.626373626374	-0.08205128205128205	-0.1598984771573604	0.596281540504648
4549.835205078125	-3.548234971123529	0.4744865516039952	29.17650288764707	3.133882845320974	1.191843382843775	-0.4641363416541224	3393.435897435897	3578.021978021978	-0.08974358974358974	-0.1560913705583756	0.5883134130146082
4569.366455078125	-3.865080215154638	0.6668079403831071	29.49197848453622	3.136807898132803	1.564450110258239	-0.4908368237313263	3389.066666666666	3575.091575091575	-0.08717948717948718	-0.1573604060913706	0.5922974767596281
4588.897705078125	-3.39323646696288	0.9394765239402009	28.67635330371202	2.789573710701081	1.556225310191529	-0.4481662797954918	3400.717948717948	3576.556776556776	-0.07948717948717948	-0.1522842639593909	0.5909694555112881
4608.428955078125	-3.831839956269783	0.5578506635247884	28.8160043730217	3.145020546412167	1.180818183783806	-0.08920457226102602	3386.153846153846	3570.695970695971	-0.07948717948717948	-0.149746192893401	0.596281540504648
4627.960205078125	-3.3882041679132	0.3574708249769468	29.17958320868005	3.489329681032059	0.8164362564360523	-0.1051746341196566	3374.502564102564	3564.835164835165	-0.08205128205128205	-0.1573604060913706	0.593625498007968
4647.491455078125	-3.67060878814852	0.4396225683376978	28.93912118514797	3.128595249853438	1.948082036732671	-0.8924690752016267	3394.892307692307	3575.091575091575	-0.07948717948717948	-0.1586294416243655	0.5909694555112881
4667.022705078125	-2.824287506478893	0.4248380738513739	29.57124935211073	2.786648657889253	1.183618582777066	-0.4214657977182879	3393.435897435897	3573.626373626374	-0.07179487179487179	-0.1573604060913706	0.593625498007968
4686.553955078125	-3.424429949781657	0.9309819415871654	29.55700502183433	3.850626622366802	1.186242584857256	0.2003861092604014	3375.958974358974	3572.161172161172	-0.07692307692307693	-0.1624365482233502	0.5896414342629481
4706.085205078125	-3.108123331031095	0.08535841049525211	29.1876668968905	3.500467382123253	0.8054110573760833	0.2697571352734398	3365.764102564102	3572.161172161172	-0.08333333333333333	-0.1573604060913706	0.5843293492695882
4725.616455078125	-3.46982775071314	1.436833720527964	29.01722492868601	3.136807898132803	1.564450110258239	-0.4908368237313263	3400.717948717948	3576.556776556776	-0.08333333333333333	-0.149746192893401	0.5776892430278884
4745.147705078125	-3.108092552443635	1.008404247198841	29.19074475563648	2.79249876351291	1.928832037605993	-0.4748667618726957	3397.805128205128	3578.021978021978	-0.08205128205128205	-0.1560913705583756	0.5922974767596281
4764.678955078125	-3.223202622828109	0.8123577259794668	29.6797377171891	3.492254733843888	1.189042983850516	-0.1318751161968605	3371.589743589744	3569.230769230769	-0.08333333333333333	-0.1472081218274112	0.5843293492695882
4784.210205078125	-3.505976586112948	0.8179594288971538	29.40234138870524	2.805999007259811	0.7889614572426644	0.3550982231451089	3377.415384615385	3573.626373626374	-0.08333333333333333	-0.1598984771573604	0.5896414342629481
4803.741455078125	-3.52255085546006	0.2577763640146605	27.74491445399401	2.778436009609888	1.567250509251498	-0.8230980491885882	3400.717948717948	3576.556776556776	-0.07692307692307693	-0.1560913705583756	0.596281540504648
4823.272705078125	-3.380386406698406	-0.1888866523115334	29.96135933015944	3.133882845320974	1.191843382843775	-0.4641363416541224	3389.066666666666	3573.626373626374	-0.08076923076923077	-0.1573604060913706	0.5909694555112881
4842.803955078125	-4.306238327220706	0.6723776335698359	29.37616727792941	3.145020546412167	1.180818183783806	-0.08920457226102602	3378.871794871795	3572.161172161172	-0.07692307692307693	-0.1446700507614213	0.6029216467463479
4862.335205078125	-3.186253544154346	0.4304237719035818	29.37464558456539	3.136807898132803	1.564450110258239	-0.4908368237313263	3403.630769230769	3579.487179487179	-0.08205128205128205	-0.1510152284263959	0.5883134130146082
4881.866455078125	-3.303441169192358	0.4287832731919734	29.65588308076424	2.789573710701081	1.556225310191529	-0.4481662797954918	3394.892307692307	3575.091575091575	-0.08846153846153847	-0.1598984771573604	0.596281540504648
4901.397705078125	-3.83068575924004	0.6720695399093631	28.93142407599602	3.125670197041609	1.575475309318208	-0.8657685931244228	3413.825641025641	3578.021978021978	-0.08205128205128205	-0.1421319796954315	0.597609561752988
4920.928955078125	-3.026607473287264	0.275335086481675	29.3392526712736	3.133882845320974	1.191843382843775	-0.4641363416541224	3390.523076923077	3578.021978021978	-0.0858974358974359	-0.1586294416243655	0.5909694555112881
4940.460205078125	-3.624826254873789	-0.02815625180824199	29.51737451262106	3.156158247503361	1.169792984723837	0.2857271971320704	3373.046153846154	3572.161172161172	-0.08205128205128205	-0.1649746192893401	0.5856573705179282
4959.991455078125	-3.067203814575016	0.7763373911823041	29.27961854249845	3.136807898132803	1.564450110258239	-0.4908368237313263	3393.435897435897	3576.556776556776	-0.08974358974358974	-0.1624365482233502	0.597609561752988
4979.522705078125	-3.062202294112795	-0.7287141444845386	29.7797705887205	2.786648657889253	1.183618582777066	-0.4214657977182879	3391.979487179487	3576.556776556776	-0.08846153846153847	-0.1560913705583756	0.594953519256308
4999.053955078125	-3.422598623827798	0.3522092254506908	29.74013761722025	2.825911866786489	1.895756440426086	0.6499285463065935	3383.241025641025	3578.021978021978	-0.07692307692307693	-0.1484771573604061	0.6055776892430278
5018.585205078125	-3.711913036947848	0.7105706288557875	28.80869630521524	2.778436009609888	1.567250509251498	-0.8230980491885882	3394.892307692307	3575.091575091575	-0.07564102564102564	-0.1535532994923858	0.6082337317397077
5038.116455078125	-2.670935656747344	0.006875782545586129	28.90643432526565	3.831276272996244	1.580899710391658	-0.5761779116029954	3391.979487179487	3576.556776556776	-0.08461538461538462	-0.1522842639593909	0.5922974767596281
5057.647705078125	-2.545791766850969	1.115865069134863	29.42082331490311	3.147945599223996	1.55342491119827	-0.1159050543382299	3389.066666666666	3570.695970695971	-0.07435897435897436	-0.1763959390862944	0.5909694555112881
5077.178955078125	-4.219597834664816	0.0494861207037709	30.04021653351849	2.786648657889253	1.183618582777066	-0.4214657977182879	3399.261538461538	3573.626373626374	-0.0858974358974359	-0.1510152284263959	0.594953519256308
5096.710205078125	-2.9899661804881	0.6629427653699032	29.00338195119008	3.847701569554974	0.8136358574427929	0.2270865913376052	3374.502564102564	3573.626373626374	-0.07179487179487179	-0.1624365482233502	0.5830013280212483
5116.241455078125	-2.834844561977611	0.8201160845204634	28.51554380223895	2.77551095679806	1.194643781837035	-0.7963975671113843	3406.54358974359	3575.091575091575	-0.07564102564102564	-0.1510152284263959	0.594953519256308
5135.772705078125	-2.707146049322071	1.541909817507599	29.28539506779291	3.145020546412167	1.180818183783806	-0.08920457226102602	3380.328205128205	3567.765567765568	-0.08333333333333333	-0.1598984771573604	0.593625498007968
5155.303955078125	-3.468319599927609	0.6660797190038079	29.16804000723912	3.525667837117467	1.155967386670609	0.9929201919824288	3378.871794871795	3573.626373626374	-0.07948717948717948	-0.1472081218274112	0.593625498007968
5174.835205078125	-3.634075220405465	0.09656981876336562	28.59247795945352	3.125670197041609	1.575475309318208	-0.8657685931244228	3399.261538461538	3576.556776556776	-0.07564102564102564	-0.1611675126903553	0.5843293492695882
5194.366455078125	-3.783456632354697	0.5874450448320904	29.65433676453026	3.481117032752695	1.200068182910485	-0.5068068855899569	3381.784615384615	3573.626373626374	-0.06666666666666667	-0.1459390862944162	0.594953519256308
5213.897705078125	-4.108519759237577	0.3265280337530301	29.14802407624225	2.789573710701081	1.556225310191529	-0.4481662797954918	3391.979487179487	3575.091575091575	-0.08333333333333333	-0.1560913705583756	0.597609561752988
5233.428955078125	-3.468688942977127	0.589529678560744	29.13110570228734	3.145020546412167	1.180818183783806	-0.08920457226102602	3387.610256410256	3570.695970695971	-0.06923076923076924	-0.1484771573604061	0.594953519256308
5252.960205078125	-4.182633366697322	0.62907508497968	29.73666333026778	3.492254733843888	1.189042983850516	-0.1318751161968605	3367.220512820513	3567.765567765568	-0.08205128205128205	-0.1586294416243655	0.593625498007968
5272.491455078125	-3.063233376792699	0.8492503259452411	29.67666232073011	3.484042085564523	1.572674910324948	-0.5335073676671609	3403.630769230769	3576.556776556776	-0.08333333333333333	-0.1421319796954315	0.5909694555112881
5292.022705078125	-2.347626909349673	0.6541801015200928	29.23730906503269	3.458841630570308	1.222118581030423	-1.25667042437615	3397.805128205128	3578.021978021978	-0.07820512820512821	-0.149746192893401	0.593625498007968
5311.553955078125	-3.266107358175348	1.084922277910946	29.38926418246531	3.156158247503361	1.169792984723837	0.2857271971320704	3378.871794871795	3575.091575091575	-0.08333333333333333	-0.1598984771573604	0.596281540504648
5331.085205078125	-3.702540957066333	0.2780279050985345	29.74590429336672	3.133882845320974	1.191843382843775	-0.4641363416541224	3391.979487179487	3576.556776556776	-0.07692307692307693	-0.1560913705583756	0.593625498007968
5350.616455078125	-3.827961854249846	0.8616260881769595	29.20381457501541	3.136807898132803	1.564450110258239	-0.4908368237313263	3400.717948717948	3576.556776556776	-0.08717948717948718	-0.1560913705583756	0.5896414342629481
5370.147705078125	-3.991008959031239	0.5201498178523194	28.89910409687622	3.847701569554974	0.8136358574427929	0.2270865913376052	3375.958974358974	3572.161172161172	-0.07307692307692308	-0.1548223350253807	0.597609561752988
5389.678955078125	-3.935423445650554	0.542469987799368	30.45765543494452	2.789573710701081	1.556225310191529	-0.4481662797954918	3393.435897435897	3575.091575091575	-0.08461538461538462	-0.1649746192893401	0.596281540504648
5409.210205078125	-3.105183975928683	0.7362358156879691	29.48160240713176	3.489329681032059	0.8164362564360523	-0.1051746341196566	3367.220512820513	3567.765567765568	-0.09615384615384616	-0.1586294416243655	0.594953519256308
5428.741455078125	-3.35584109877095	0.4417072020663512	28.41589012290505	3.136807898132803	1.564450110258239	-0.4908368237313263	3400.717948717948	3578.021978021978	-0.08461538461538462	-0.1484771573604061	0.593625498007968
5448.272705078125	-2.985641788949995	0.8508828222241098	29.43582110500053	3.130957792509145	0.8192366554293119	-0.4374358595769185	3380.328205128205	3573.626373626374	-0.08076923076923077	-0.1522842639593909	0.597609561752988
5467.803955078125	-4.137651076696548	0.162104510540435	30.23489233034535	3.142095493600339	0.8082114563693429	-0.06250409018382208	3371.589743589744	3567.765567765568	-0.08717948717948718	-0.1649746192893401	0.596281540504648
5487.335205078125	-3.025176268970383	0.6969664931985475	29.48237310296176	3.136807898132803	1.564450110258239	-0.4908368237313263	3400.717948717948	3576.556776556776	-0.08461538461538462	-0.1560913705583756	0.5883134130146082
5506.866455078125	-3.185376354411742	0.2372301179558586	29.46236455882588	3.133882845320974	1.191843382843775	-0.4641363416541224	3387.610256410256	3573.626373626374	-0.08461538461538462	-0.1560913705583756	0.5989375830013279
5526.397705078125	-3.422506288065419	1.121346735561457	29.74937119345819	3.136807898132803	1.564450110258239	-0.4908368237313263	3391.979487179487	3575.091575091575	-0.07435897435897436	-0.1586294416243655	0.5909694555112881
5545.928955078125	-3.305503334552166	0.5847122140515331	29.44966654478345	3.481117032752695	1.200068182910485	-0.5068068855899569	3396.348717948718	3579.487179487179	-0.08076923076923077	-0.1548223350253807	0.5803452855245683
5565.460205078125	-3.543233450661309	0.9694350159371525	29.67665493386912	3.839488921275609	1.197267783917225	-0.1745456601326951	3370.133333333333	3569.230769230769	-0.07435897435897436	-0.1637055837563452	0.6029216467463479
5584.991455078125	-3.750785777337849	0.9021397889573816	28.92142226621508	2.786648657889253	1.183618582777066	-0.4214657977182879	3400.717948717948	3576.556776556776	-0.08333333333333333	-0.1548223350253807	0.6015936254980079
5604.522705078125	-3.071974495631288	0.7042327021260616	28.80255043687127	3.492254733843888	1.189042983850516	-0.1318751161968605	3391.979487179487	3570.695970695971	-0.07564102564102564	-0.1560913705583756	0.594953519256308
5624.053955078125	-3.626565245065269	0.3197539744389987	29.34347549347309	2.786648657889253	1.183618582777066	-0.4214657977182879	3389.066666666666	3578.021978021978	-0.07564102564102564	-0.1472081218274112	0.6042496679946878
5643.585205078125	-3.703802879152186	1.433148600251399	29.61971208478146	3.508680030402617	0.4217791309016509	0.6713893867437401	3367.220512820513	3572.161172161172	-0.08205128205128205	-0.1484771573604061	0.6069057104913678
5663.116455078125	-2.951755179728484	1.125888116141153	28.82448202715164	3.136807898132803	1.564450110258239	-0.4908368237313263	3402.174358974359	3579.487179487179	-0.06666666666666667	-0.1459390862944162	0.5816733067729083
5682.647705078125	-2.911928303127228	0.5487398938508076	28.80716968727724	3.133882845320974	1.191843382843775	-0.4641363416541224	3384.697435897436	3575.091575091575	-0.07307692307692308	-0.1598984771573604	0.5883134130146082
5702.178955078125	-3.351470539351655	-0.4857839860240589	28.85294606483448	3.136807898132803	1.564450110258239	-0.4908368237313263	3400.717948717948	3576.556776556776	-0.08205128205128205	-0.1586294416243655	0.6015936254980079
5721.710205078125	-3.50562263235716	0.9329865509884234	29.43773676428403	3.142095493600339	0.8082114563693429	-0.06250409018382208	3371.589743589744	3567.765567765568	-0.07435897435897436	-0.1510152284263959	0.5883134130146082
5741.241455078125	-2.547084467524281	0.3479399275841394	29.29155324757187	2.800711411792275	1.54520011113156	-0.07323451040239537	3383.241025641025	3569.230769230769	-0.07820512820512821	-0.1535532994923858	0.593625498007968
5760.772705078125	-3.266168915350267	0.2388306045037691	29.38310846497335	3.133882845320974	1.191843382843775	-0.4641363416541224	3390.523076923077	3572.161172161172	-0.07948717948717948	-0.1649746192893401	0.5922974767596281
5780.303955078125	-3.781825367219327	0.5088743901222894	29.81746327806729	2.794861306168618	0.7999866563026334	-0.01983354624798756	3374.502564102564	3572.161172161172	-0.08076923076923077	-0.1637055837563452	0.6082337317397077
5799.835205078125	-3.661806112135012	0.4307318655640546	29.81938878649878	3.847701569554974	0.8136358574427929	0.2270865913376052	3365.764102564102	3570.695970695971	-0.07948717948717948	-0.1510152284263959	0.6015936254980079
5819.366455078125	-2.429742949548971	0.964809609813691	29.02570504510294	3.83600135830766	-0.6767910522150609	0.3338885196464209	3371.589743589744	3573.626373626374	-0.07820512820512821	-0.1560913705583756	0.593625498007968
5838.897705078125	-3.710343328987397	0.785908300738809	28.96566710126032	3.475829437285158	1.956306836799381	-0.9351396191374612	3399.261538461538	3578.021978021978	-0.08076923076923077	-0.1573604060913706	0.5896414342629481
5858.428955078125	-3.871759168633418	0.3658613757043679	28.82408313665816	3.492254733843888	1.189042983850516	-0.1318751161968605	3373.046153846154	3567.765567765568	-0.07564102564102564	-0.1510152284263959	0.596281540504648
5877.960205078125	-3.150781837678655	0.7422896560554407	28.92181623213456	3.492254733843888	1.189042983850516	-0.1318751161968605	3371.589743589744	3569.230769230769	-0.07564102564102564	-0.1535532994923858	0.5843293492695882
5897.491455078125	-2.829289026941113	0.9298896095182165	29.07109730588868	3.125670197041609	1.575475309318208	-0.8657685931244228	3393.435897435897	3575.091575091575	-0.08717948717948718	-0.1560913705583756	0.593625498007968
5917.022705078125	-3.188069480814475	0.9707194063918507	29.19305191855247	3.145020546412167	1.180818183783806	-0.08920457226102602	3368.676923076923	3569.230769230769	-0.07692307692307693	-0.1472081218274112	0.594953519256308
5936.553955078125	-3.787688688130423	0.1686424980886497	29.23113118695775	3.147945599223996	1.55342491119827	-0.1159050543382299	3383.241025641025	3573.626373626374	-0.08461538461538462	-0.1548223350253807	0.5896414342629481
5956.085205078125	-2.826642068419569	1.311831566026841	29.33579315804312	3.481117032752695	1.200068182910485	-0.5068068855899569	3391.979487179487	3576.556776556776	-0.08333333333333333	-0.1586294416243655	0.6002656042496679
5975.616455078125	-3.791289782863221	0.1722796037687765	28.87102171367788	2.44233952326936	1.54800051012482	-0.4054957358596573	3400.717948717948	3576.556776556776	-0.08205128205128205	-0.1548223350253807	0.5843293492695882
5995.147705078125	-3.942348627829014	0.8571567294919192	29.76513721709861	2.778436009609888	1.567250509251498	-0.8230980491885882	3410.91282051282	3578.021978021978	-0.07307692307692308	-0.149746192893401	0.593625498007968
6014.678955078125	-3.549142939453594	0.7446343688481298	29.08570605464061	3.484042085564523	1.572674910324948	-0.5335073676671609	3400.717948717948	3578.021978021978	-0.07435897435897436	-0.1573604060913706	0.5856573705179282
6034.210205078125	-2.746788254398568	1.657333060019476	29.3211745601432	3.489329681032059	0.8164362564360523	-0.1051746341196566	3374.502564102564	3570.695970695971	-0.07692307692307693	-0.1611675126903553	0.5896414342629481
6053.741455078125	-3.862510203101742	0.2411353051327603	29.7489796898257	3.478191979940866	0.8274614554960214	-0.480106403512753	3399.261538461538	3576.556776556776	-0.07820512820512821	-0.1598984771573604	0.5883134130146082
6073.272705078125	-3.93967089072001	0.1621445227041328	30.03291092799903	3.145020546412167	1.180818183783806	-0.08920457226102602	3383.241025641025	3569.230769230769	-0.08846153846153847	-0.1535532994923858	0.5989375830013279
6092.803955078125	-3.460748067412494	0.7353555480866183	29.92519325875066	2.794861306168618	0.7999866563026334	-0.01983354624798756	3368.676923076923	3567.765567765568	-0.08076923076923077	-0.1535532994923858	0.5989375830013279
6112.335205078125	-2.993859671801767	0.3976444223659377	28.61403281982338	3.136807898132803	1.564450110258239	-0.4908368237313263	3397.805128205128	3576.556776556776	-0.08205128205128205	-0.1573604060913706	0.6015936254980079
6131.866455078125	-3.505961196819218	0.7794823472489482	29.40388031807823	3.133882845320974	1.191843382843775	-0.4641363416541224	3393.435897435897	3575.091575091575	-0.0858974358974359	-0.1535532994923858	0.5896414342629481
6151.397705078125	-3.70977392511939	1.362256279755199	29.02260748806098	2.761448202895038	0.8330622534825405	-1.144628854427277	3391.979487179487	3573.626373626374	-0.07692307692307693	-0.1624365482233502	0.5989375830013279
6170.928955078125	-2.702421536146989	-0.2705542484915414	29.75784638530113	2.79249876351291	1.928832037605993	-0.4748667618726957	3402.174358974359	3576.556776556776	-0.0858974358974359	-0.1535532994923858	0.5989375830013279
6190.460205078125	-3.020374809326651	0.6921170189583785	29.96251906733493	3.844776516743145	0.4410291300283294	0.2537870734148092	3367.220512820513	3573.626373626374	-0.07948717948717948	-0.149746192893401	0.6015936254980079
6209.991455078125	-2.869516025179347	1.507441954661909	29.04839748206532	2.453477224360554	1.536975311064851	-0.03056396646656084	3405.087179487179	3570.695970695971	-0.08846153846153847	-0.149746192893401	0.594953519256308
6229.522705078125	-3.500898119182078	0.1205224849892829	29.91018808179225	3.142095493600339	0.8082114563693429	-0.06250409018382208	3367.220512820513	3566.300366300366	-0.08205128205128205	-0.1598984771573604	0.596281540504648
6249.053955078125	-2.814530694254131	1.030368308888979	30.54693057458698	3.145020546412167	1.180818183783806	-0.08920457226102602	3374.502564102564	3569.230769230769	-0.08333333333333333	-0.1586294416243655	0.596281540504648
6268.585205078125	-3.391389751715291	1.322226726155521	28.86102482847093	3.484042085564523	1.572674910324948	-0.5335073676671609	3387.610256410256	3578.021978021978	-0.06666666666666667	-0.1624365482233502	0.6002656042496679
6288.116455078125	-2.831412749475841	1.239726876970599	28.85872505241593	2.786648657889253	1.183618582777066	-0.4214657977182879	3394.892307692307	3575.091575091575	-0.08076923076923077	-0.1548223350253807	0.594953519256308
6307.647705078125	-3.028623470765882	0.3158327823966178	29.13765292341179	3.128595249853438	1.948082036732671	-0.8924690752016267	3410.91282051282	3576.556776556776	-0.07820512820512821	-0.1472081218274112	0.593625498007968
6327.178955078125	-3.66723853282167	0.01314168738065602	29.27614671783299	3.481117032752695	1.200068182910485	-0.5068068855899569	3391.979487179487	3576.556776556776	-0.08333333333333333	-0.1535532994923858	0.594953519256308
6346.710205078125	-3.150797226972384	0.7807667377036464	28.92027730276157	3.489329681032059	0.8164362564360523	-0.1051746341196566	3374.502564102564	3570.695970695971	-0.07692307692307693	-0.1573604060913706	0.6015936254980079
6366.241455078125	-3.303210329786409	0.8516270484688882	29.6789670213591	2.439414470457532	1.175393782710356	-0.3787952537824534	3390.523076923077	3575.091575091575	-0.07820512820512821	-0.1573604060913706	0.5869853917662682
6385.772705078125	-3.141686765084278	1.00233440196589	29.8313234915722	3.133882845320974	1.191843382843775	-0.4641363416541224	3380.328205128205	3578.021978021978	-0.07948717948717948	-0.1611675126903553	0.596281540504648
6405.303955078125	-3.147319246589425	1.084946285209165	29.26807534105752	3.478191979940866	0.8274614554960214	-0.480106403512753	3384.697435897436	3576.556776556776	-0.07307692307692308	-0.166243654822335	0.596281540504648
6424.835205078125	-2.902725505476742	0.539445068223817	29.72744945232581	2.789573710701081	1.556225310191529	-0.4481662797954918	3399.261538461538	3576.556776556776	-0.08461538461538462	-0.1598984771573604	0.593625498007968
6444.366455078125	-2.586819008363158	0.6942256599852508	29.31809916368422	2.789573710701081	1.556225310191529	-0.4481662797954918	3399.261538461538	3579.487179487179	-0.06794871794871794	-0.1573604060913706	0.5896414342629481
6463.897705078125	-3.544387647691052	0.8552161395525777	29.5612352308948	3.139732950944631	1.937056837672702	-0.5175373058085302	3396.348717948718	3575.091575091575	-0.07179487179487179	-0.1472081218274112	0.6015936254980079
6483.428955078125	-3.629089089236974	0.6299953647447285	29.09109107630258	2.789573710701081	1.556225310191529	-0.4481662797954918	3402.174358974359	3579.487179487179	-0.07051282051282051	-0.1560913705583756	0.594953519256308
6502.960205078125	-4.065384184484392	0.4768072570984656	29.4615815515609	3.500467382123253	0.8054110573760833	0.2697571352734398	3370.133333333333	3573.626373626374	-0.07435897435897436	-0.1522842639593909	0.5922974767596281
6522.491455078125	-3.547634788668063	-0.0261196326760258	29.23652113319372	2.79249876351291	1.928832037605993	-0.4748667618726957	3410.91282051282	3576.556776556776	-0.06923076923076924	-0.1535532994923858	0.593625498007968
6542.022705078125	-3.746569110855854	0.359419417349028	29.34308891441459	3.489329681032059	0.8164362564360523	-0.1051746341196566	3368.676923076923	3569.230769230769	-0.07564102564102564	-0.1598984771573604	0.6002656042496679
6561.553955078125	-3.118557272179974	0.1728197679786963	28.14427278200265	3.145020546412167	1.180818183783806	-0.08920457226102602	3381.784615384615	3569.230769230769	-0.07435897435897436	-0.1573604060913706	0.5909694555112881
6581.085205078125	-3.305595670314545	0.815574703940767	29.44043296854551	3.125670197041609	1.575475309318208	-0.8657685931244228	3399.261538461538	3576.556776556776	-0.08205128205128205	-0.1548223350253807	0.5909694555112881
6600.616455078125	-4.029019898972364	0.5570024056543959	29.09801010276355	3.125670197041609	1.575475309318208	-0.8657685931244228	3394.892307692307	3575.091575091575	-0.07820512820512821	-0.1510152284263959	0.596281540504648
6620.147705078125	-2.829704537871821	0.9687708140197696	29.02954621281792	2.789573710701081	1.556225310191529	-0.4481662797954918	3399.261538461538	3578.021978021978	-0.08461538461538462	-0.1446700507614213	0.597609561752988
6639.678955078125	-3.700801966874853	0.9301176788512937	29.91980331251469	2.786648657889253	1.183618582777066	-0.4214657977182879	3393.435897435897	3578.021978021978	-0.0858974358974359	-0.1586294416243655	0.596281540504648
6659.210205078125	-3.378785920150496	-0.1905031437249231	30.1214079849505	3.503392434935081	1.178017784790547	0.2430566531962359	3377.415384615385	3572.161172161172	-0.0641025641025641	-0.1548223350253807	0.596281540504648
6678.741455078125	-2.902802451945392	0.7318304764648453	29.71975480546086	3.147945599223996	1.55342491119827	-0.1159050543382299	3387.610256410256	3572.161172161172	-0.0858974358974359	-0.166243654822335	0.6002656042496679
6698.272705078125	-2.546191888487947	0.1162691919882106	29.38081115120535	3.133882845320974	1.191843382843775	-0.4641363416541224	3384.697435897436	3576.556776556776	-0.08205128205128205	-0.1560913705583756	0.5909694555112881
6717.803955078125	-2.989150547920414	0.6236574380150026	29.0849452079586	3.145020546412167	1.180818183783806	-0.08920457226102602	3386.153846153846	3572.161172161172	-0.08076923076923077	-0.1611675126903553	0.6042496679946878
6737.335205078125	-2.985749514006104	1.12022239376155	29.42504859938959	3.847701569554974	0.8136358574427929	0.2270865913376052	3371.589743589744	3573.626373626374	-0.07179487179487179	-0.1637055837563452	0.597609561752988
6756.866455078125	-2.262694628397802	0.3022446516048571	29.73053716021978	2.79249876351291	1.928832037605993	-0.4748667618726957	3399.261538461538	3576.556776556776	-0.08461538461538462	-0.149746192893401	0.6029216467463479
6776.397705078125	-3.463856704745936	1.507726041024164	29.61432952540649	2.789573710701081	1.556225310191529	-0.4481662797954918	3400.717948717948	3576.556776556776	-0.07820512820512821	-0.1484771573604061	0.5790172642762284
6795.928955078125	-3.749062176440099	0.5927066443583464	29.09378235599007	3.156158247503361	1.169792984723837	0.2857271971320704	3378.871794871795	3572.161172161172	-0.0858974358974359	-0.1611675126903553	0.6002656042496679
6815.460205078125	-2.587357633643705	0.04092351767244934	29.26423663562953	3.503392434935081	1.178017784790547	0.2430566531962359	3371.589743589744	3570.695970695971	-0.08076923076923077	-0.1395939086294416	0.596281540504648
6834.991455078125	-3.310135511964869	1.16631379016144	28.98644880351318	2.098030388649468	1.912382437472574	-0.3895256740010267	3409.45641025641	3578.021978021978	-0.08205128205128205	-0.1586294416243655	0.5856573705179282
6854.522705078125	-2.667319172720815	-0.03523840478274626	29.26808272791852	3.492254733843888	1.189042983850516	-0.1318751161968605	3384.697435897436	3570.695970695971	-0.07948717948717948	-0.1573604060913706	0.597609561752988
6874.053955078125	-3.664206841956878	0.4331566026841391	29.5793158043122	3.478191979940866	0.8274614554960214	-0.480106403512753	3387.610256410256	3578.021978021978	-0.07692307692307693	-0.1535532994923858	0.5856573705179282
6893.585205078125	-4.066399877870565	1.01629464588004	29.3600122129435	3.841851463931317	0.06842240261386592	0.2804875554920131	3371.589743589744	3573.626373626374	-0.07179487179487179	-0.149746192893401	0.596281540504648
6913.116455078125	-3.710035543112799	1.016366667774696	28.99644568872013	3.147945599223996	1.55342491119827	-0.1159050543382299	3383.241025641025	3569.230769230769	-0.07051282051282051	-0.1472081218274112	0.5896414342629481
6932.647705078125	-3.149150572543284	0.6637190013456398	29.0849427456716	3.136807898132803	1.564450110258239	-0.4908368237313263	3403.630769230769	3576.556776556776	-0.07948717948717948	-0.1522842639593909	0.593625498007968
6952.178955078125	-2.786492016649985	-0.07333537087582312	29.35079833500153	3.142095493600339	0.8082114563693429	-0.06250409018382208	3368.676923076923	3569.230769230769	-0.08205128205128205	-0.1484771573604061	0.5843293492695882
6971.710205078125	-3.500036318733203	0.9658059126897652	29.99636812667974	3.130957792509145	0.8192366554293119	-0.4374358595769185	3383.241025641025	3576.556776556776	-0.07435897435897436	-0.1649746192893401	0.5909694555112881
6991.241455078125	-3.427107686890661	0.6259941483749522	29.2892313109339	2.786648657889253	1.183618582777066	-0.4214657977182879	3402.174358974359	3578.021978021978	-0.07692307692307693	-0.1598984771573604	0.6095617529880477
7010.772705078125	-3.26909288115895	0.5494761176628464	29.09071188410507	3.145020546412167	1.180818183783806	-0.08920457226102602	3381.784615384615	3569.230769230769	-0.07564102564102564	-0.1624365482233502	0.596281540504648
7030.303955078125	-3.310350962077087	0.7049929332363192	28.96490379229131	3.489329681032059	0.8164362564360523	-0.1051746341196566	3377.415384615385	3569.230769230769	-0.07820512820512821	-0.1598984771573604	0.5896414342629481
7049.835205078125	-3.509854688132885	0.5141840042449828	29.01453118671152	3.133882845320974	1.191843382843775	-0.4641363416541224	3391.979487179487	3576.556776556776	-0.07564102564102564	-0.1573604060913706	0.5816733067729083
7069.366455078125	-3.233421113864769	0.3611399403880318	28.65788861352312	3.122745144229781	1.202868581903744	-0.8390681110472189	3393.435897435897	3570.695970695971	-0.08076923076923077	-0.149746192893401	0.5883134130146082
7088.897705078125	-3.703895214914565	-0.3359889098593664	29.61047850854352	2.778436009609888	1.567250509251498	-0.8230980491885882	3402.174358974359	3576.556776556776	-0.07820512820512821	-0.1434010152284264	0.594953519256308
7108.428955078125	-3.705418754993826	0.4732421733129948	29.45812450061741	2.778436009609888	1.567250509251498	-0.8230980491885882	3400.717948717948	3576.556776556776	-0.08076923076923077	-0.1472081218274112	0.5989375830013279
7127.960205078125	-4.147454056802499	0.6720055204474467	29.25459431975012	3.492254733843888	1.189042983850516	-0.1318751161968605	3371.589743589744	3569.230769230769	-0.08846153846153847	-0.1548223350253807	0.597609561752988
7147.491455078125	-3.505776525294459	0.3177573674704802	29.42234747055412	2.767298308518695	1.578275708311467	-1.198029818581685	3405.087179487179	3578.021978021978	-0.07692307692307693	-0.1586294416243655	0.5869853917662682
7167.022705078125	-3.508823605452981	0.9362195338152028	29.11763945470192	3.478191979940866	0.8274614554960214	-0.480106403512753	3391.979487179487	3579.487179487179	-0.08076923076923077	-0.149746192893401	0.594953519256308
7186.553955078125	-2.906757500433978	0.6204404600537026	29.32424995660219	3.486404628220231	0.443829529021589	-0.07847415204245273	3373.046153846154	3567.765567765568	-0.07820512820512821	-0.1586294416243655	0.5922974767596281
7206.085205078125	-3.865126383035828	-0.2177608146722757	29.48736169641724	2.789573710701081	1.556225310191529	-0.4481662797954918	3403.630769230769	3576.556776556776	-0.07307692307692308	-0.1560913705583756	0.6015936254980079
7225.616455078125	-3.504514603208607	0.1626366723176153	29.54853967913938	3.481117032752695	1.200068182910485	-0.5068068855899569	3386.153846153846	3575.091575091575	-0.07948717948717948	-0.1624365482233502	0.594953519256308
7245.147705078125	-3.345791889965319	0.3161728857880488	29.42081100346812	2.431201822178167	1.559025709184789	-0.7804275052527536	3412.36923076923	3576.556776556776	-0.08333333333333333	-0.1522842639593909	0.5896414342629481
7264.678955078125	-4.187557940690893	-0.05825878759450559	29.24420593091069	3.145020546412167	1.180818183783806	-0.08920457226102602	3384.697435897436	3569.230769230769	-0.0858974358974359	-0.1408629441624365	0.5989375830013279
7284.210205078125	-3.547173109856165	0.819567917877804	29.28268901438344	3.500467382123253	0.8054110573760833	0.2697571352734398	3374.502564102564	3575.091575091575	-0.07435897435897436	-0.1637055837563452	0.594953519256308
7303.741455078125	-3.708296552921319	0.6684564415274551	29.17034470786811	3.117457548762245	1.959107235792641	-1.267400844594723	3410.91282051282	3576.556776556776	-0.08205128205128205	-0.1535532994923858	0.597609561752988
7323.272705078125	-3.30485698421551	0.968674784826895	29.51430157844908	3.489329681032059	0.8164362564360523	-0.1051746341196566	3373.046153846154	3569.230769230769	-0.07435897435897436	-0.1510152284263959	0.593625498007968
7342.803955078125	-2.505657104375115	0.7691752138804042	29.43428956248853	3.133882845320974	1.191843382843775	-0.4641363416541224	3387.610256410256	3576.556776556776	-0.07179487179487179	-0.1510152284263959	0.5869853917662682
7362.335205078125	-3.141625207909359	0.848426075373067	29.83747920906417	3.145020546412167	1.180818183783806	-0.08920457226102602	3383.241025641025	3569.230769230769	-0.08205128205128205	-0.1522842639593909	0.596281540504648
7381.866455078125	-3.547480895730764	0.5891095508419173	29.25191042692363	3.133882845320974	1.191843382843775	-0.4641363416541224	3399.261538461538	3578.021978021978	-0.08076923076923077	-0.1624365482233502	0.594953519256308
7401.397705078125	-3.389481479292782	1.551068601778017	29.0518520707218	2.786648657889253	1.183618582777066	-0.4214657977182879	3386.153846153846	3575.091575091575	-0.0858974358974359	-0.1472081218274112	0.593625498007968
7420.928955078125	-3.065403267208616	0.2745188383422406	29.45967327913839	3.47290438447333	1.583700109384917	-0.9084391370602574	3396.348717948718	3575.091575091575	-0.08205128205128205	-0.149746192893401	0.593625498007968
7440.460205078125	-3.712728669515533	0.7498559562106879	28.72713304844672	3.145020546412167	1.180818183783806	-0.08920457226102602	3378.871794871795	3570.695970695971	-0.07307692307692308	-0.1611675126903553	0.597609561752988
7459.991455078125	-3.100290180522571	0.5005238515585662	29.97098194774288	3.844776516743145	0.4410291300283294	0.2537870734148092	3365.764102564102	3572.161172161172	-0.08846153846153847	-0.1611675126903553	0.5883134130146082
7479.522705078125	-2.985087774375718	0.4657078828887057	29.49122256242821	3.125670197041609	1.575475309318208	-0.8657685931244228	3406.54358974359	3582.417582417582	-0.08205128205128205	-0.1637055837563452	0.5909694555112881
7499.053955078125	-3.0698199945091	0.3174412713772679	29.01800054908999	3.492254733843888	1.189042983850516	-0.1318751161968605	3377.415384615385	3573.626373626374	-0.07820512820512821	-0.1548223350253807	0.5922974767596281
7518.585205078125	-3.18894667055708	0.163913060339574	29.10533294429198	2.778436009609888	1.567250509251498	-0.8230980491885882	3400.717948717948	3576.556776556776	-0.07051282051282051	-0.1598984771573604	0.5989375830013279
7538.116455078125	-3.50905444485893	1.513375758538288	29.09455551410705	3.486967138376352	1.945281637739412	-0.5602078497443648	3389.066666666666	3576.556776556776	-0.07820512820512821	-0.1560913705583756	0.594953519256308
7557.647705078125	-3.227126892729236	0.6240135462719129	29.28731072707641	3.133882845320974	1.191843382843775	-0.4641363416541224	3400.717948717948	3578.021978021978	-0.08205128205128205	-0.1548223350253807	0.5816733067729083
7577.178955078125	-3.751693745667915	0.172287606201516	28.83062543320861	2.77551095679806	1.194643781837035	-0.7963975671113843	3402.174358974359	3576.556776556776	-0.08205128205128205	-0.149746192893401	0.6069057104913678
7596.710205078125	-3.86115594525351	0.8551521200906612	29.8844054746489	2.794861306168618	0.7999866563026334	-0.01983354624798756	3373.046153846154	3569.230769230769	-0.07564102564102564	-0.149746192893401	0.6029216467463479
7616.241455078125	-3.666915357653342	0.2051229727683369	29.3084642346658	2.778436009609888	1.567250509251498	-0.8230980491885882	3393.435897435897	3575.091575091575	-0.06923076923076924	-0.1548223350253807	0.5830013280212483
7635.772705078125	-3.105737990502959	1.121410755023373	29.42620094970409	3.481117032752695	1.200068182910485	-0.5068068855899569	3383.241025641025	3576.556776556776	-0.07179487179487179	-0.1560913705583756	0.5869853917662682
7655.303955078125	-3.7915360115629	0.787912910140067	28.84639884371002	3.492254733843888	1.189042983850516	-0.1318751161968605	3383.241025641025	3572.161172161172	-0.07948717948717948	-0.1611675126903553	0.5922974767596281
7674.835205078125	-2.987980961596941	0.6993992327513716	29.20190384030591	4.553307645509609	0.8190602585162428	0.5166772728590325	3367.220512820513	3572.161172161172	-0.08333333333333333	-0.1598984771573604	0.5896414342629481
7694.366455078125	-3.706234387561511	0.5125275006678953	29.37656124384889	2.798348869136567	2.67404549243492	-0.5282677260271036	3399.261538461538	3576.556776556776	-0.08205128205128205	-0.1586294416243655	0.5909694555112881
7713.897705078125	-3.674763897455596	0.8284346133532285	28.52361025444042	2.770223361330523	1.950882435725931	-1.224730300658889	3412.36923076923	3578.021978021978	-0.08076923076923077	-0.1611675126903553	0.596281540504648
7733.428955078125	-3.828715929642612	-0.2529969110609625	29.12840703573886	2.786648657889253	1.183618582777066	-0.4214657977182879	3390.523076923077	3576.556776556776	-0.07692307692307693	-0.1560913705583756	0.6015936254980079
7752.960205078125	-2.91332872885665	0.05015432383752355	28.66712711433506	3.489329681032059	0.8164362564360523	-0.1051746341196566	3375.958974358974	3570.695970695971	-0.08333333333333333	-0.1598984771573604	0.5909694555112881
7772.491455078125	-3.25879744365364	0.8083084950132532	30.120255634636	3.481117032752695	1.200068182910485	-0.5068068855899569	3391.979487179487	3576.556776556776	-0.07820512820512821	-0.166243654822335	0.5883134130146082
7792.022705078125	-2.83502923350237	0.2818410642989314	28.49707664976306	3.481117032752695	1.200068182910485	-0.5068068855899569	3386.153846153846	3576.556776556776	-0.08205128205128205	-0.1611675126903553	0.5883134130146082
7811.553955078125	-3.511609067618095	0.9005713121404291	28.83909323819056	3.503392434935081	1.178017784790547	0.2430566531962359	3383.241025641025	3576.556776556776	-0.07948717948717948	-0.1560913705583756	0.5922974767596281
7831.085205078125	-2.791124194062688	1.508266205234083	28.88758059373126	2.778436009609888	1.567250509251498	-0.8230980491885882	3399.261538461538	3576.556776556776	-0.07948717948717948	-0.1560913705583756	0.6029216467463479
7850.616455078125	-3.196625928128305	0.3639768027942033	28.33740718716951	4.175585407616136	1.216517783043904	-0.592147973461626	3381.784615384615	3567.765567765568	-0.08076923076923077	-0.1522842639593909	0.6029216467463479
7870.147705078125	-2.822240730412815	0.3073862146400198	29.77592695871852	2.79249876351291	1.928832037605993	-0.4748667618726957	3399.261538461538	3576.556776556776	-0.07564102564102564	-0.1421319796954315	0.594953519256308
7889.678955078125	-3.662006172953501	0.9309339269907282	29.7993827046499	2.778436009609888	1.567250509251498	-0.8230980491885882	3396.348717948718	3573.626373626374	-0.07820512820512821	-0.1459390862944162	0.596281540504648
7909.210205078125	-3.399053619992785	0.4838133869619441	28.09463800072145	3.500467382123253	0.8054110573760833	0.2697571352734398	3373.046153846154	3570.695970695971	-0.07692307692307693	-0.149746192893401	0.596281540504648
7928.741455078125	-3.591216652939417	-0.0605634882234968	28.87833470605833	2.789573710701081	1.556225310191529	-0.4481662797954918	3400.717948717948	3578.021978021978	-0.08076923076923077	-0.1484771573604061	0.5843293492695882
7948.272705078125	-3.265461007838691	0.4688848486863083	29.45389921613093	3.83656386846378	0.8246610565027619	-0.1478451780554912	3377.415384615385	3570.695970695971	-0.08076923076923077	-0.1535532994923858	0.596281540504648
7967.803955078125	-3.313074867067281	0.5154363849687228	28.69251329327192	3.139732950944631	1.937056837672702	-0.5175373058085302	3393.435897435897	3578.021978021978	-0.08846153846153847	-0.1484771573604061	0.6029216467463479
7987.335205078125	-3.824329980929588	0.7810348192004215	29.56700190704127	3.136807898132803	1.564450110258239	-0.4908368237313263	3397.805128205128	3576.556776556776	-0.08076923076923077	-0.1586294416243655	0.5856573705179282
8006.866455078125	-2.740817208431364	0.7282253805156767	29.91827915686368	3.122745144229781	1.202868581903744	-0.8390681110472189	3393.435897435897	3572.161172161172	-0.07051282051282051	-0.1522842639593909	0.5883134130146082
8026.397705078125	-3.516641366667775	0.4825770111036832	28.33586333322252	2.781361062421717	1.939857236665962	-0.8497985312657921	3410.91282051282	3576.556776556776	-0.09102564102564102	-0.1548223350253807	0.5909694555112881
8045.928955078125	-3.866834594639848	0.0531952482785536	29.31654053601525	3.133882845320974	1.191843382843775	-0.4641363416541224	3393.435897435897	3576.556776556776	-0.08333333333333333	-0.1472081218274112	0.5909694555112881
8065.460205078125	-3.787627130955503	1.014734171495827	29.23728690444972	3.481117032752695	1.200068182910485	-0.5068068855899569	3383.241025641025	3576.556776556776	-0.07692307692307693	-0.1548223350253807	0.6055776892430278
8084.991455078125	-3.306980706750237	0.2785120522792774	29.30192932497633	3.492254733843888	1.189042983850516	-0.1318751161968605	3387.610256410256	3570.695970695971	-0.08974358974358974	-0.1713197969543147	0.593625498007968
8104.522705078125	-2.984256752514303	0.3879454738855997	29.57432474856972	3.136807898132803	1.564450110258239	-0.4908368237313263	3387.610256410256	3578.021978021978	-0.08205128205128205	-0.1522842639593909	0.593625498007968
8124.053955078125	-3.663976002550929	0.8560003779610539	29.60239974490706	3.492254733843888	1.189042983850516	-0.1318751161968605	3380.328205128205	3570.695970695971	-0.07435897435897436	-0.1598984771573604	0.5830013280212483
8143.585205078125	-3.551343608456971	1.246857044541541	28.86563915430291	3.136807898132803	1.564450110258239	-0.4908368237313263	3397.805128205128	3576.556776556776	-0.08846153846153847	-0.1637055837563452	0.593625498007968
8163.116455078125	-3.421844548435032	0.466832224688613	29.8155451564968	3.478191979940866	0.8274614554960214	-0.480106403512753	3387.610256410256	3572.161172161172	-0.09743589743589744	-0.1611675126903553	0.5922974767596281
8182.647705078125	-3.296054308202002	-0.04021591794674811	30.39456917979988	3.492254733843888	1.189042983850516	-0.1318751161968605	3383.241025641025	3567.765567765568	-0.0858974358974359	-0.1484771573604061	0.5896414342629481
8202.178955078125	-2.595513959320557	0.4337767912214544	28.44860406794435	3.500467382123253	0.8054110573760833	0.2697571352734398	3368.676923076923	3572.161172161172	-0.07948717948717948	-0.1548223350253807	0.594953519256308
8221.710205078125	-2.982256144329415	0.3859248596188626	29.77438556705853	3.508680030402617	0.4217791309016509	0.6713893867437401	3367.220512820513	3570.695970695971	-0.08205128205128205	-0.1548223350253807	0.5922974767596281
8241.241455078125	-3.3865575134841	1.24042308861894	29.34424865159008	2.44233952326936	1.54800051012482	-0.4054957358596573	3397.805128205128	3578.021978021978	-0.08333333333333333	-0.1535532994923858	0.5896414342629481
8260.772705078125	-3.19753389645837	0.6341246200383378	28.24661035416305	3.484042085564523	1.572674910324948	-0.5335073676671609	3380.328205128205	3575.091575091575	-0.09102564102564102	-0.149746192893401	0.5922974767596281
8280.303955078125	-3.861032830903671	0.547335466905016	29.89671690963283	3.495179786655716	1.561649711264979	-0.1585755982740645	3387.610256410256	3570.695970695971	-0.08717948717948718	-0.1598984771573604	0.597609561752988
8299.835205078125	-3.275125484301074	0.632492123759469	28.48745156989263	2.789573710701081	1.556225310191529	-0.4481662797954918	3397.805128205128	3580.952380952381	-0.07692307692307693	-0.1624365482233502	0.5909694555112881
8319.366455078125	-3.708604338795917	1.437998074491568	29.13956612040829	2.797786358980446	1.172593383717097	-0.04653402832519149	3390.523076923077	3570.695970695971	-0.07948717948717948	-0.1408629441624365	0.594953519256308
8338.897705078125	-3.186007315454668	0.814790465532291	29.39926845453325	3.122745144229781	1.202868581903744	-0.8390681110472189	3396.348717948718	3575.091575091575	-0.07692307692307693	-0.1598984771573604	0.594953519256308
8358.428955078125	-3.146303553203251	1.545458896427591	29.36964467967492	2.797786358980446	1.172593383717097	-0.04653402832519149	3384.697435897436	3567.765567765568	-0.08205128205128205	-0.1535532994923858	0.5922974767596281
8377.960205078125	-3.066234289070032	1.352281247345347	29.37657109299688	3.489329681032059	0.8164362564360523	-0.1051746341196566	3370.133333333333	3569.230769230769	-0.08974358974358974	-0.1548223350253807	0.6002656042496679
8397.491455078125	-3.903245048033064	0.0884313446672404	29.67549519669364	2.797786358980446	1.172593383717097	-0.04653402832519149	3381.784615384615	3569.230769230769	-0.09487179487179487	-0.1573604060913706	0.5790172642762284
8417.022705078125	-3.945749661743324	0.3605917737453724	29.42503382566761	2.800711411792275	1.54520011113156	-0.07323451040239537	3380.328205128205	3569.230769230769	-0.07692307692307693	-0.1573604060913706	0.596281540504648
8436.553955078125	-3.551220494107132	-0.06095960864410466	28.87795058928683	3.159083300315189	1.542399712138301	0.2590267150548665	3383.241025641025	3575.091575091575	-0.08205128205128205	-0.1611675126903553	0.593625498007968
8456.085205078125	-2.794232831396129	0.2806366981716287	28.57671686038709	2.778436009609888	1.567250509251498	-0.8230980491885882	3396.348717948718	3573.626373626374	-0.07820512820512821	-0.1510152284263959	0.5909694555112881
8475.616455078125	-3.54475699074057	0.7786660991095139	29.52430092594302	2.786648657889253	1.183618582777066	-0.4214657977182879	3394.892307692307	3573.626373626374	-0.0858974358974359	-0.166243654822335	0.5896414342629481
8495.147705078125	-3.196271974372517	0.4790039248854728	28.37280256274831	3.492254733843888	1.189042983850516	-0.1318751161968605	3383.241025641025	3573.626373626374	-0.08846153846153847	-0.1522842639593909	0.5989375830013279
8514.678955078125	-2.90309484852626	0.462895027780753	29.69051514737403	3.136807898132803	1.564450110258239	-0.4908368237313263	3399.261538461538	3576.556776556776	-0.08461538461538462	-0.1459390862944162	0.5922974767596281
8534.210205078125	-3.747954147291547	0.8223567656875381	29.20458527084541	3.511605083214445	0.7943858583161143	0.6446889046665362	3373.046153846154	3572.161172161172	-0.08076923076923077	-0.1459390862944162	0.597609561752988
8553.741455078125	-3.700371066650415	0.8527593927015349	29.96289333495844	3.500467382123253	0.8054110573760833	0.2697571352734398	3359.938461538462	3569.230769230769	-0.08333333333333333	-0.1560913705583756	0.5883134130146082
8573.272705078125	-3.185991926160938	0.7763133838840853	29.40080738390624	3.145020546412167	1.180818183783806	-0.08920457226102602	3387.610256410256	3570.695970695971	-0.08846153846153847	-0.1522842639593909	0.5922974767596281
8592.803955078125	-3.308304186011009	0.587541074024965	29.16958139889911	2.789573710701081	1.556225310191529	-0.4481662797954918	3396.348717948718	3579.487179487179	-0.07435897435897436	-0.1548223350253807	0.5869853917662682
8612.335205078125	-3.138885913625435	0.9995055419924578	30.11140863745655	2.77551095679806	1.194643781837035	-0.7963975671113843	3396.348717948718	3578.021978021978	-0.0641025641025641	-0.149746192893401	0.593625498007968
8631.866455078125	-3.90564577785493	1.090856081787325	29.43542221450705	3.478191979940866	0.8274614554960214	-0.480106403512753	3394.892307692307	3572.161172161172	-0.07051282051282051	-0.1548223350253807	0.5883134130146082
8651.397705078125	-3.187053787428302	0.4312320176102766	29.29462125716987	2.79249876351291	1.928832037605993	-0.4748667618726957	3399.261538461538	3578.021978021978	-0.07820512820512821	-0.1548223350253807	0.5883134130146082
8670.928955078125	-3.518288021096875	0.5996247474616898	28.1711978903125	3.492254733843888	1.189042983850516	-0.1318751161968605	3374.502564102564	3569.230769230769	-0.08461538461538462	-0.1535532994923858	0.6029216467463479
8690.460205078125	-3.187807862821067	0.3166090183723545	29.21921371789331	3.492254733843888	1.189042983850516	-0.1318751161968605	3370.133333333333	3569.230769230769	-0.07435897435897436	-0.1522842639593909	0.594953519256308
8709.991455078125	-3.065818778139324	0.3134000428437938	29.41812218606764	3.125670197041609	1.575475309318208	-0.8657685931244228	3400.717948717948	3578.021978021978	-0.07692307692307693	-0.1472081218274112	0.6042496679946878
8729.522705078125	-2.989735341082151	0.08578654064681818	29.02646589178495	3.481117032752695	1.200068182910485	-0.5068068855899569	3383.241025641025	3575.091575091575	-0.08461538461538462	-0.1560913705583756	0.5896414342629481
8749.053955078125	-3.664714688649965	0.702900297074926	29.5285311350035	2.789573710701081	1.556225310191529	-0.4481662797954918	3391.979487179487	3576.556776556776	-0.08205128205128205	-0.1560913705583756	0.5869853917662682
8768.585205078125	-3.582352419750989	0.7766374824100372	29.7647580249011	3.133882845320974	1.191843382843775	-0.4641363416541224	3391.979487179487	3578.021978021978	-0.08205128205128205	-0.1598984771573604	0.5922974767596281
8788.116455078125	-3.272817090241587	0.8609298765286184	28.71829097584127	3.122745144229781	1.202868581903744	-0.8390681110472189	3390.523076923077	3575.091575091575	-0.0641025641025641	-0.1586294416243655	0.5909694555112881
8807.647705078125	-3.30993545114638	0.666111728734766	29.00645488536207	3.133882845320974	1.191843382843775	-0.4641363416541224	3387.610256410256	3575.091575091575	-0.08333333333333333	-0.1522842639593909	0.5909694555112881
8827.178955078125	-3.503421963353783	0.4307638752950128	29.65780366462173	3.136807898132803	1.564450110258239	-0.4908368237313263	3400.717948717948	3576.556776556776	-0.07948717948717948	-0.1560913705583756	0.5896414342629481
8846.710205078125	-2.90808097969475	0.92946948179939	29.19190203052497	3.142095493600339	0.8082114563693429	-0.06250409018382208	3380.328205128205	3570.695970695971	-0.07307692307692308	-0.1573604060913706	0.5909694555112881
8866.241455078125	-3.142548565533153	0.1570509742654074	29.74514344668471	2.789573710701081	1.556225310191529	-0.4481662797954918	3405.087179487179	3579.487179487179	-0.08717948717948718	-0.1484771573604061	0.593625498007968
8885.772705078125	-3.345976561490078	0.7778978655665169	29.40234385099224	2.789573710701081	1.556225310191529	-0.4481662797954918	3391.979487179487	3576.556776556776	-0.07948717948717948	-0.1573604060913706	0.6002656042496679
8905.303955078125	-2.381267289871506	0.7635415012317589	29.87327101284944	2.789573710701081	1.556225310191529	-0.4481662797954918	3391.979487179487	3580.952380952381	-0.08717948717948718	-0.1560913705583756	0.5922974767596281
8924.835205078125	-3.661036647448516	0.5068777831537711	29.89633525514833	2.778436009609888	1.567250509251498	-0.8230980491885882	3397.805128205128	3573.626373626374	-0.08333333333333333	-0.149746192893401	0.5843293492695882
8944.366455078125	-2.987611618547423	0.7759492731944357	29.23883814525769	2.414214015463317	0.824837453415831	-1.101958310491442	3384.697435897436	3572.161172161172	-0.07179487179487179	-0.1586294416243655	0.594953519256308
8963.897705078125	-3.303856680123065	0.4676644776935264	29.61433198769349	2.781361062421717	1.939857236665962	-0.8497985312657921	3412.36923076923	3576.556776556776	-0.08076923076923077	-0.1446700507614213	0.596281540504648
8983.428955078125	-3.786857666269007	1.090880089085544	29.31423337309926	2.789573710701081	1.556225310191529	-0.4481662797954918	3400.717948717948	3578.021978021978	-0.08461538461538462	-0.1586294416243655	0.593625498007968
9002.960205078125	-3.06651129635717	1.044868717013049	29.34887036428304	3.489329681032059	0.8164362564360523	-0.1051746341196566	3371.589743589744	3569.230769230769	-0.07948717948717948	-0.1637055837563452	0.594953519256308
9022.491455078125	-4.22555349133829	-0.05988328144063485	29.444650866171	2.448189628893017	2.293213964953746	-0.4588967000140651	3399.261538461538	3576.556776556776	-0.08461538461538462	-0.1535532994923858	0.6015936254980079
9042.022705078125	-3.46816570699031	0.2813089025217512	29.18342930096903	3.133882845320974	1.191843382843775	-0.4641363416541224	3384.697435897436	3573.626373626374	-0.07948717948717948	-0.1598984771573604	0.5989375830013279
9061.553955078125	-3.189808471005955	0.3186296326390916	29.01915289940449	2.781361062421717	1.939857236665962	-0.8497985312657921	3402.174358974359	3582.417582417582	-0.08205128205128205	-0.1598984771573604	0.594953519256308
9081.085205078125	-2.661532798278369	0.4973788954919219	29.8467201721631	3.489329681032059	0.8164362564360523	-0.1051746341196566	3367.220512820513	3572.161172161172	-0.07435897435897436	-0.1598984771573604	0.593625498007968
9100.616455078125	-3.671947656703022	0.787128671731591	28.80523432969776	3.458841630570308	1.222118581030423	-1.25667042437615	3387.610256410256	3575.091575091575	-0.07948717948717948	-0.1573604060913706	0.5856573705179282
9120.147705078125	-3.227619350128594	0.8552801590144941	29.2380649871407	3.136807898132803	1.564450110258239	-0.4908368237313263	3403.630769230769	3578.021978021978	-0.07435897435897436	-0.1637055837563452	0.6002656042496679
9139.678955078125	-3.07154359540685	0.6268744159763029	28.84564045931501	3.133882845320974	1.191843382843775	-0.4641363416541224	3390.523076923077	3576.556776556776	-0.08974358974358974	-0.1522842639593909	0.594953519256308
9159.210205078125	-2.788415678366224	0.7362998351498856	29.15843216337767	3.492254733843888	1.189042983850516	-0.1318751161968605	3371.589743589744	3569.230769230769	-0.07307692307692308	-0.1535532994923858	0.594953519256308
9178.741455078125	-4.10810424830687	1.287646829251477	29.18957516931301	2.789573710701081	1.556225310191529	-0.4481662797954918	3394.892307692307	3579.487179487179	-0.08205128205128205	-0.1560913705583756	0.5896414342629481
9198.272705078125	-2.985595621068805	0.735451577279493	29.4404378931195	3.139732950944631	1.937056837672702	-0.5175373058085302	3397.805128205128	3579.487179487179	-0.08205128205128205	-0.1510152284263959	0.5922974767596281
9217.803955078125	-3.394129045999215	1.17114725953613	28.58709540007854	3.142095493600339	0.8082114563693429	-0.06250409018382208	3373.046153846154	3567.765567765568	-0.08205128205128205	-0.1573604060913706	0.6029216467463479
9237.335205078125	-3.537816419268381	0.4255022757687567	30.21835807316193	2.79249876351291	1.928832037605993	-0.4748667618726957	3394.892307692307	3575.091575091575	-0.07692307692307693	-0.149746192893401	0.597609561752988
9256.866455078125	-3.506730661505713	1.703336429659232	29.32693384942868	3.142095493600339	0.8082114563693429	-0.06250409018382208	3384.697435897436	3573.626373626374	-0.07948717948717948	-0.1522842639593909	0.593625498007968
9276.397705078125	-3.749723916070486	0.2472211552311903	29.02760839295145	3.136807898132803	1.564450110258239	-0.4908368237313263	3400.717948717948	3578.021978021978	-0.08205128205128205	-0.1522842639593909	0.597609561752988
9295.928955078125	-2.987103771854336	0.5062055788036487	29.28962281456639	3.125670197041609	1.575475309318208	-0.8657685931244228	3397.805128205128	3573.626373626374	-0.08076923076923077	-0.1421319796954315	0.593625498007968
9315.460205078125	-3.350070113622234	1.012801583989225	28.99298863777665	3.145020546412167	1.180818183783806	-0.08920457226102602	3370.133333333333	3569.230769230769	-0.07435897435897436	-0.1598984771573604	0.6015936254980079
9334.991455078125	-3.147288468001965	1.007992121912753	29.2711531998035	2.789573710701081	1.556225310191529	-0.4481662797954918	3400.717948717948	3576.556776556776	-0.0858974358974359	-0.1522842639593909	0.6029216467463479
9354.522705078125	-3.783456632354697	0.5874450448320904	29.65433676453026	3.503392434935081	1.178017784790547	0.2430566531962359	3373.046153846154	3573.626373626374	-0.09615384615384616	-0.1510152284263959	0.6042496679946878
9374.053955078125	-3.140455621585886	-0.07583212989056359	29.95443784141148	3.147945599223996	1.55342491119827	-0.1159050543382299	3378.871794871795	3567.765567765568	-0.07435897435897436	-0.1611675126903553	0.5856573705179282
9393.585205078125	-3.765159377681585	0.8397340483814771	27.48406223184155	3.133882845320974	1.191843382843775	-0.4641363416541224	3387.610256410256	3575.091575091575	-0.08333333333333333	-0.1560913705583756	0.5843293492695882
9413.116455078125	-3.182960235296146	0.1963282991875684	29.70397647038545	3.478191979940866	0.8274614554960214	-0.480106403512753	3390.523076923077	3573.626373626374	-0.0858974358974359	-0.1535532994923858	0.5763612217795484
9432.647705078125	-3.307119210393806	0.6248057871131285	29.28807896061941	2.781361062421717	1.939857236665962	-0.8497985312657921	3413.825641025641	3576.556776556776	-0.08076923076923077	-0.149746192893401	0.5922974767596281
9452.178955078125	-3.904029902013289	1.05076250872573	29.5970097986711	3.133882845320974	1.191843382843775	-0.4641363416541224	3399.261538461538	3576.556776556776	-0.07692307692307693	-0.1446700507614213	0.596281540504648
9471.710205078125	-3.633859770293246	0.5578906756884862	28.61402297067539	3.828351220184416	1.208292982977194	-0.5494774295257915	3383.241025641025	3578.021978021978	-0.07564102564102564	-0.1510152284263959	0.6029216467463479
9491.241455078125	-3.585307164147131	0.1642371588655259	29.46928358528684	3.136807898132803	1.564450110258239	-0.4908368237313263	3390.523076923077	3578.021978021978	-0.0858974358974359	-0.1484771573604061	0.5922974767596281
9510.772705078125	-3.665745771329869	0.280864767504706	29.4254228670131	2.778436009609888	1.567250509251498	-0.8230980491885882	3400.717948717948	3579.487179487179	-0.07948717948717948	-0.1472081218274112	0.5909694555112881
9530.303955078125	-3.384249119424613	0.4688608413880896	29.57508805753872	3.133882845320974	1.191843382843775	-0.4641363416541224	3396.348717948718	3576.556776556776	-0.0858974358974359	-0.1573604060913706	0.5803452855245683
9549.835205078125	-3.661713776372633	0.1998693756748205	29.82862236273673	2.778436009609888	1.567250509251498	-0.8230980491885882	3402.174358974359	3578.021978021978	-0.06666666666666667	-0.1510152284263959	0.593625498007968
9569.366455078125	-3.393651977893588	0.978357728441754	28.63480221064126	2.786648657889253	1.183618582777066	-0.4214657977182879	3383.241025641025	3569.230769230769	-0.07564102564102564	-0.1598984771573604	0.6055776892430278
9588.897705078125	-3.264368367983868	0.7370120516637058	29.56316320161329	2.778436009609888	1.567250509251498	-0.8230980491885882	3412.36923076923	3576.556776556776	-0.07692307692307693	-0.1484771573604061	0.596281540504648
9608.428955078125	-2.659270572100072	0.8412478932056882	30.07294278999277	2.786648657889253	1.183618582777066	-0.4214657977182879	3400.717948717948	3576.556776556776	-0.07435897435897436	-0.1548223350253807	0.5776892430278884
9627.960205078125	-3.66385288820109	0.5481837247754087	29.61471117989099	3.847701569554974	0.8136358574427929	0.2270865913376052	3374.502564102564	3573.626373626374	-0.07564102564102564	-0.1484771573604061	0.6055776892430278
9647.491455078125	-3.677934091963957	0.7547134328835966	28.20659080360429	2.789573710701081	1.556225310191529	-0.4481662797954918	3399.261538461538	3578.021978021978	-0.08461538461538462	-0.1573604060913706	0.5989375830013279
9667.022705078125	-3.78636520886965	0.8596134763429619	29.36347911303497	3.145020546412167	1.180818183783806	-0.08920457226102602	3391.979487179487	3573.626373626374	-0.0858974358974359	-0.1637055837563452	0.593625498007968
9686.553955078125	-3.704264557964083	0.5874610496975696	29.57354420359173	2.428276769366339	1.186418981770326	-0.7537270231755497	3408	3578.021978021978	-0.07948717948717948	-0.1548223350253807	0.597609561752988
9706.085205078125	-4.019693986972039	0.2398909268417599	30.03060130279604	3.489329681032059	0.8164362564360523	-0.1051746341196566	3375.958974358974	3569.230769230769	-0.07564102564102564	-0.1598984771573604	0.5869853917662682
9725.616455078125	-3.795137106295699	0.7915500158201938	28.48628937043015	3.133882845320974	1.191843382843775	-0.4641363416541224	3384.697435897436	3569.230769230769	-0.07564102564102564	-0.149746192893401	0.5896414342629481
9745.147705078125	-3.712897951746562	1.17310385434095	28.71020482534383	2.789573710701081	1.556225310191529	-0.4481662797954918	3400.717948717948	3576.556776556776	-0.07948717948717948	-0.1522842639593909	0.5816733067729083
9764.678955078125	-3.707604034703473	0.9369877673581999	29.2395965296527	2.789573710701081	1.556225310191529	-0.4481662797954918	3393.435897435897	3576.556776556776	-0.0858974358974359	-0.149746192893401	0.5883134130146082
9784.210205078125	-3.151628248833799	0.8585291467067524	28.83717511662006	3.142095493600339	0.8082114563693429	-0.06250409018382208	3370.133333333333	3567.765567765568	-0.08461538461538462	-0.1446700507614213	0.594953519256308
9803.741455078125	-4.101625355646578	1.08879545535689	29.83746443534219	3.825426167372587	0.8356862555627309	-0.5227769474485876	3384.697435897436	3570.695970695971	-0.07564102564102564	-0.1586294416243655	0.593625498007968
9823.272705078125	-3.026669030462184	0.4292434130744977	29.33309695378164	3.481117032752695	1.200068182910485	-0.5068068855899569	3391.979487179487	3576.556776556776	-0.07435897435897436	-0.1522842639593909	0.5909694555112881
9842.803955078125	-3.153521131962579	0.59121018943605	28.64788680374218	2.770223361330523	1.950882435725931	-1.224730300658889	3413.825641025641	3576.556776556776	-0.08205128205128205	-0.1611675126903553	0.5856573705179282
9862.335205078125	-2.791816712280534	0.2397348794033386	28.81832877194667	2.778436009609888	1.567250509251498	-0.8230980491885882	3397.805128205128	3573.626373626374	-0.08076923076923077	-0.1522842639593909	0.5856573705179282
9881.866455078125	-3.708558170914727	1.322566829546951	29.14418290852727	3.142095493600339	0.8082114563693429	-0.06250409018382208	3371.589743589744	3569.230769230769	-0.0641025641025641	-0.1611675126903553	0.596281540504648
9901.397705078125	-3.348823580830111	0.8961579704845659	29.11764191698892	3.136807898132803	1.564450110258239	-0.4908368237313263	3399.261538461538	3576.556776556776	-0.08205128205128205	-0.1637055837563452	0.593625498007968
9920.928955078125	-3.021359724125365	1.154650244443542	29.86402758746351	3.131520302665266	2.320688764147135	-0.9191695572788305	3397.805128205128	3578.021978021978	-0.08717948717948718	-0.1675126903553299	0.5869853917662682
9940.460205078125	-3.149165961837014	0.7021960829938454	29.08340381629861	3.489329681032059	0.8164362564360523	-0.1051746341196566	3368.676923076923	3569.230769230769	-0.08076923076923077	-0.149746192893401	0.6069057104913678
9959.991455078125	-2.590266210158657	0.313091949183321	28.97337898413425	3.136807898132803	1.564450110258239	-0.4908368237313263	3400.717948717948	3579.487179487179	-0.08333333333333333	-0.1434010152284264	0.5989375830013279
9979.522705078125	-2.870270100572113	0.3928189554239873	28.97298994278876	3.481117032752695	1.200068182910485	-0.5068068855899569	3387.610256410256	3575.091575091575	-0.07307692307692308	-0.1484771573604061	0.5922974767596281
9999.053955078125	-3.468427324983718	0.9354192905412476	29.15726750162818	2.434126874989996	1.931632436599253	-0.8071279873299576	3415.282051282051	3576.556776556776	-0.07564102564102564	-0.1573604060913706	0.5843293492695882
10018.58520507813	-4.795641259558291	1.302059210615412	28.43587404417096	3.136807898132803	1.564450110258239	-0.4908368237313263	3400.717948717948	3576.556776556776	-0.08461538461538462	-0.1573604060913706	0.5896414342629481
10038.11645507813	-3.541971528575456	0.8143143207842876	29.80284714245438	3.489329681032059	0.8164362564360523	-0.1051746341196566	3368.676923076923	3569.230769230769	-0.07692307692307693	-0.1598984771573604	0.5922974767596281
10057.64770507813	-3.226295870867821	0.5462511372688066	29.37041291321792	3.136807898132803	1.564450110258239	-0.4908368237313263	3397.805128205128	3578.021978021978	-0.07564102564102564	-0.1548223350253807	0.5922974767596281
10077.17895507813	-3.271278160868597	1.013221711708052	28.87218391314036	3.83656386846378	0.8246610565027619	-0.1478451780554912	3378.871794871795	3567.765567765568	-0.07179487179487179	-0.1624365482233502	0.597609561752988
10096.71020507813	-3.225926527818303	0.6228011777118706	29.4073472181697	3.492254733843888	1.189042983850516	-0.1318751161968605	3377.415384615385	3570.695970695971	-0.07948717948717948	-0.1560913705583756	0.594953519256308
10116.24145507813	-3.378770530856765	0.7710197746268711	30.12294691432349	3.481117032752695	1.200068182910485	-0.5068068855899569	3394.892307692307	3578.021978021978	-0.07820512820512821	-0.1408629441624365	0.5909694555112881
10135.77270507813	-3.38484930188008	0.9694670256681107	29.51506981199207	3.125670197041609	1.575475309318208	-0.8657685931244228	3393.435897435897	3575.091575091575	-0.07564102564102564	-0.1548223350253807	0.5922974767596281
10155.30395507813	-3.427600144290018	0.8572607611175334	29.23998557099819	3.125670197041609	1.575475309318208	-0.8657685931244228	3397.805128205128	3576.556776556776	-0.08333333333333333	-0.166243654822335	0.594953519256308
10174.83520507813	-2.470847137529809	-0.2644443910948928	28.91528624701909	2.778436009609888	1.567250509251498	-0.8230980491885882	3399.261538461538	3576.556776556776	-0.07564102564102564	-0.1548223350253807	0.5883134130146082
10194.36645507813	-3.142271558246015	0.4644635045977054	29.77284417539855	3.489329681032059	0.8164362564360523	-0.1051746341196566	3374.502564102564	3570.695970695971	-0.08846153846153847	-0.166243654822335	0.594953519256308
10213.89770507813	-3.789366121146983	0.3626443977430677	29.06338788530174	3.133882845320974	1.191843382843775	-0.4641363416541224	3391.979487179487	3578.021978021978	-0.07692307692307693	-0.1560913705583756	0.594953519256308
10233.42895507813	-2.746218850530562	1.233681039035867	29.37811494694386	2.786648657889253	1.183618582777066	-0.4214657977182879	3397.805128205128	3576.556776556776	-0.07692307692307693	-0.1484771573604061	0.5896414342629481
10252.96020507813	-3.184422218200487	0.8516510557671069	29.55777817995132	3.142095493600339	0.8082114563693429	-0.06250409018382208	3370.133333333333	3569.230769230769	-0.07820512820512821	-0.1510152284263959	0.5830013280212483
10272.49145507813	-3.270616421238211	0.3587072008352077	28.93835787617897	3.497542329311424	0.4328043299616199	0.2964576173506437	3365.764102564102	3570.695970695971	-0.07948717948717948	-0.1548223350253807	0.6042496679946878
10292.02270507813	-3.467965646171821	0.7811068410950774	29.20343538281791	3.122745144229781	1.202868581903744	-0.8390681110472189	3400.717948717948	3576.556776556776	-0.07820512820512821	-0.1535532994923858	0.5856573705179282
10311.55395507813	-3.18557641523023	0.7374321793825323	29.442358476977	2.778436009609888	1.567250509251498	-0.8230980491885882	3394.892307692307	3573.626373626374	-0.07692307692307693	-0.1548223350253807	0.5883134130146082
10331.08520507813	-3.062556247868583	0.1562587334241917	29.74437521314171	3.122745144229781	1.202868581903744	-0.8390681110472189	3393.435897435897	3575.091575091575	-0.07564102564102564	-0.1548223350253807	0.597609561752988
10350.61645507813	-3.138270341876238	1.460422276064231	30.17296581237619	3.489329681032059	0.8164362564360523	-0.1051746341196566	3373.046153846154	3570.695970695971	-0.07307692307692308	-0.1573604060913706	0.5989375830013279
10370.14770507813	-3.54983545767144	0.4761030430173849	29.01645423285601	2.778436009609888	1.567250509251498	-0.8230980491885882	3410.91282051282	3576.556776556776	-0.07307692307692308	-0.1675126903553299	0.596281540504648
10389.67895507813	-3.538970616298124	0.311283399384182	30.10293837018761	3.469979331661501	1.211093381970454	-0.8817386549830533	3383.241025641025	3575.091575091575	-0.07948717948717948	-0.1573604060913706	0.6002656042496679
10409.21020507813	-3.069604544396881	0.7787621283023886	29.03954556031187	3.839488921275609	1.197267783917225	-0.1745456601326951	3377.415384615385	3570.695970695971	-0.07435897435897436	-0.1586294416243655	0.5883134130146082
10428.74145507813	-3.714729277700421	0.7518765704774251	28.5270722299579	2.778436009609888	1.567250509251498	-0.8230980491885882	3394.892307692307	3575.091575091575	-0.07564102564102564	-0.1548223350253807	0.5896414342629481
10448.27270507813	-3.868265798956729	0.6315638415616809	29.1734201043271	3.122745144229781	1.202868581903744	-0.8390681110472189	3394.892307692307	3573.626373626374	-0.08461538461538462	-0.149746192893401	0.5856573705179282
10467.80395507813	-2.864514504717127	0.002390418995066812	29.54854952828736	2.778436009609888	1.567250509251498	-0.8230980491885882	3412.36923076923	3576.556776556776	-0.08205128205128205	-0.149746192893401	0.596281540504648
10487.33520507813	-4.839023063011156	1.767413293641267	28.09769369888446	3.133882845320974	1.191843382843775	-0.4641363416541224	3387.610256410256	3573.626373626374	-0.0858974358974359	-0.1522842639593909	0.5869853917662682
10506.86645507813	-3.625718833910124	0.2035144837876869	29.42811660898759	3.489329681032059	0.8164362564360523	-0.1051746341196566	3371.589743589744	3564.835164835165	-0.08461538461538462	-0.1548223350253807	0.6015936254980079
10526.39770507813	-3.546803766806648	-0.103882041679132	29.31962331933523	3.481117032752695	1.200068182910485	-0.5068068855899569	3393.435897435897	3576.556776556776	-0.09102564102564102	-0.1535532994923858	0.6095617529880477
10545.92895507813	-3.591955339038452	0.7863364308903752	28.80446609615477	2.786648657889253	1.183618582777066	-0.4214657977182879	3394.892307692307	3573.626373626374	-0.08846153846153847	-0.1522842639593909	0.5989375830013279
10565.46020507813	-3.227373121428915	0.2396468526432036	29.26268785710856	3.492254733843888	1.189042983850516	-0.1318751161968605	3370.133333333333	3566.300366300366	-0.08846153846153847	-0.1484771573604061	0.5989375830013279
10584.99145507813	-3.783641303879456	0.04917002461055853	29.63586961205437	3.47290438447333	1.583700109384917	-0.9084391370602574	3391.979487179487	3575.091575091575	-0.08076923076923077	-0.1548223350253807	0.5896414342629481
10604.52270507813	-2.952124522778002	1.049338075698089	28.78754772219985	2.789573710701081	1.556225310191529	-0.4481662797954918	3391.979487179487	3575.091575091575	-0.07435897435897436	-0.1560913705583756	0.596281540504648
10624.05395507813	-3.791828408143768	0.5189774614559749	28.81715918562319	3.828351220184416	1.208292982977194	-0.5494774295257915	3380.328205128205	3573.626373626374	-0.07051282051282051	-0.1560913705583756	0.593625498007968
10643.58520507813	-3.705726540868424	0.2427838062771083	29.4273459131576	3.133882845320974	1.191843382843775	-0.4641363416541224	3393.435897435897	3575.091575091575	-0.07948717948717948	-0.1586294416243655	0.5843293492695882
10663.11645507813	-3.42399904955722	0.8536236554374066	29.60009504427807	3.142095493600339	0.8082114563693429	-0.06250409018382208	3370.133333333333	3566.300366300366	-0.06794871794871794	-0.149746192893401	0.5896414342629481
10682.64770507813	-3.232143802485187	0.1675421635869612	28.78561975148137	2.778436009609888	1.567250509251498	-0.8230980491885882	3410.91282051282	3576.556776556776	-0.07820512820512821	-0.1510152284263959	0.5922974767596281
10702.17895507813	-3.025345551201412	0.1202143913288102	29.46544487985885	2.786648657889253	1.183618582777066	-0.4214657977182879	3390.523076923077	3575.091575091575	-0.0858974358974359	-0.1535532994923858	0.6002656042496679
10721.71020507813	-4.358838317617787	1.185503623870887	28.11616823822134	3.500467382123253	0.8054110573760833	0.2697571352734398	3378.871794871795	3572.161172161172	-0.07948717948717948	-0.1535532994923858	0.6029216467463479
10741.24145507813	-3.751385959793316	0.4027459732374026	28.86140402066843	3.133882845320974	1.191843382843775	-0.4641363416541224	3394.892307692307	3575.091575091575	-0.07820512820512821	-0.1535532994923858	0.5909694555112881
10760.77270507813	-3.467904088996901	0.6271985145022549	29.20959110030988	3.133882845320974	1.191843382843775	-0.4641363416541224	3384.697435897436	3575.091575091575	-0.07435897435897436	-0.149746192893401	0.5883134130146082
10780.30395507813	-3.268754316696892	0.7029803214023216	29.12456833031087	2.778436009609888	1.567250509251498	-0.8230980491885882	3410.91282051282	3576.556776556776	-0.08717948717948718	-0.1548223350253807	0.5989375830013279
10799.83520507813	-3.225203231012997	0.8143783402462039	29.47967689870028	3.133882845320974	1.191843382843775	-0.4641363416541224	3391.979487179487	3576.556776556776	-0.0858974358974359	-0.1535532994923858	0.6029216467463479
10819.36645507813	-3.462548614778894	1.237174100926682	29.74513852211072	3.489329681032059	0.8164362564360523	-0.1051746341196566	3375.958974358974	3569.230769230769	-0.08205128205128205	-0.1510152284263959	0.5856573705179282
10838.89770507813	-3.223433462234058	1.389513950702552	29.65665377659423	2.781361062421717	1.939857236665962	-0.8497985312657921	3406.54358974359	3582.417582417582	-0.07435897435897436	-0.1624365482233502	0.5909694555112881
10858.42895507813	-3.868588974125057	0.4395825561739999	29.14110258749429	3.481117032752695	1.200068182910485	-0.5068068855899569	3394.892307692307	3573.626373626374	-0.08205128205128205	-0.1535532994923858	0.5909694555112881
10877.96020507813	-3.258689718597531	0.5389689234758135	30.13102814024694	2.797786358980446	1.172593383717097	-0.04653402832519149	3381.784615384615	3570.695970695971	-0.08974358974358974	-0.1624365482233502	0.6042496679946878
10897.49145507813	-3.308381132479659	0.7799264822659934	29.16188675203415	2.797786358980446	1.172593383717097	-0.04653402832519149	3387.610256410256	3570.695970695971	-0.07820512820512821	-0.1586294416243655	0.596281540504648
10917.02270507813	-3.150027762285889	0.8569126552933628	28.99722377141112	3.136807898132803	1.564450110258239	-0.4908368237313263	3393.435897435897	3575.091575091575	-0.06666666666666667	-0.1598984771573604	0.5896414342629481
10936.55395507813	-3.111678257882704	0.9735642712307617	28.83217421172959	3.481117032752695	1.200068182910485	-0.5068068855899569	3393.435897435897	3578.021978021978	-0.08717948717948718	-0.1535532994923858	0.593625498007968
10956.08520507813	-5.09875925358232	0.172823769195066	30.12407464176802	3.122745144229781	1.202868581903744	-0.8390681110472189	3397.805128205128	3573.626373626374	-0.0858974358974359	-0.1522842639593909	0.5896414342629481
10975.61645507813	-3.225110895250618	0.58351585035697	29.48891047493822	3.844776516743145	0.4410291300283294	0.2537870734148092	3374.502564102564	3573.626373626374	-0.08974358974358974	-0.1522842639593909	0.5869853917662682
10995.14770507813	-3.425861154098539	0.5093505348702929	29.41388459014617	2.778436009609888	1.567250509251498	-0.8230980491885882	3412.36923076923	3576.556776556776	-0.08846153846153847	-0.1624365482233502	0.593625498007968
11014.67895507813	-3.306749867344288	0.7013558275561924	29.32501326557119	3.469979331661501	1.211093381970454	-0.8817386549830533	3393.435897435897	3572.161172161172	-0.06794871794871794	-0.1598984771573604	0.6029216467463479
11034.21020507813	-3.18903900631946	0.394775550228808	29.09609936805404	3.153233194691532	0.7971862573093739	0.3124276792092743	3373.046153846154	3575.091575091575	-0.07564102564102564	-0.1459390862944162	0.5869853917662682
11053.74145507813	-3.021159663306876	0.6544481830168678	29.88403366931239	3.136807898132803	1.564450110258239	-0.4908368237313263	3397.805128205128	3573.626373626374	-0.09358974358974359	-0.1522842639593909	0.5843293492695882
11073.27270507813	-3.147780925401322	0.2392587346553353	29.2219074598678	3.147945599223996	1.55342491119827	-0.1159050543382299	3390.523076923077	3570.695970695971	-0.08205128205128205	-0.1548223350253807	0.6002656042496679
11092.80395507813	-3.029208263927619	0.7779618850284331	29.07917360723814	3.484042085564523	1.572674910324948	-0.5335073676671609	3384.697435897436	3573.626373626374	-0.07948717948717948	-0.1484771573604061	0.5896414342629481
11112.33520507813	-2.384222034267648	0.1511411776872477	29.57779657323518	3.136807898132803	1.564450110258239	-0.4908368237313263	3390.523076923077	3578.021978021978	-0.07692307692307693	-0.1586294416243655	0.5896414342629481
11131.86645507813	-3.145857263685083	1.429623528629626	29.41427363149166	3.145020546412167	1.180818183783806	-0.08920457226102602	3371.589743589744	3569.230769230769	-0.07820512820512821	-0.1560913705583756	0.5883134130146082
11151.39770507813	-3.226634435329879	0.3927469335293314	29.33655646701212	3.500467382123253	0.8054110573760833	0.2697571352734398	3364.307692307692	3570.695970695971	-0.07692307692307693	-0.1522842639593909	0.5883134130146082
11170.92895507813	-3.268646591640783	0.4336407498648819	29.13534083592181	3.125670197041609	1.575475309318208	-0.8657685931244228	3397.805128205128	3576.556776556776	-0.07179487179487179	-0.1598984771573604	0.5909694555112881
