Time Stamp	Accelerometer X	Accelerometer Y	Accelerometer Z	Gyroscope X	Gyroscope Y	Gyroscope Z	VSenseReg	VSenseBatt	Magnetometer X	Magnetometer Y	Magnetometer Z
1455.108642578125	-3.587200047275911	0.8969182015948233	29.27999527240896	-32.57469619363106	128.7811339412827	-2.153270845946242	3391.979487179487	3579.487179487179	-0.05384615384615385	-0.1852791878172589	0.6002656042496679
1474.639892578125	-3.458393505471818	0.8483620559111507	30.16064945281827	1.073315633069156	2.621896293041403	0.06001676304516551	3371.589743589744	3566.300366300366	-0.06025641025641026	-0.1865482233502538	0.6015936254980079
1494.171142578125	-2.263633375315327	0.6493466321454029	29.63666246846733	4.545657507386364	2.704144293708498	-0.3666886763131798	3396.348717948718	3570.695970695971	-0.05384615384615385	-0.182741116751269	0.596281540504648
1513.702392578125	-3.380494131754515	0.08045291922590625	29.95058682454851	3.14265800375646	2.309663565087166	-0.5442377878857342	3396.348717948718	3578.021978021978	-0.05256410256410257	-0.1865482233502538	0.6069057104913678
1533.233642578125	-3.309473772334482	0.511799279288596	29.0526227665518	3.492254733843888	1.189042983850516	-0.1318751161968605	3373.046153846154	3567.765567765568	-0.05384615384615385	-0.1852791878172589	0.6015936254980079
1552.764892578125	-2.907388461476905	0.198000807630135	29.26115385230956	3.128595249853438	1.948082036732671	-0.8924690752016267	3396.348717948718	3576.556776556776	-0.06153846153846154	-0.1903553299492386	0.6029216467463479
1572.296142578125	-2.752020614266737	0.7395408204094044	28.79793857332629	3.133882845320974	1.191843382843775	-0.4641363416541224	3380.328205128205	3575.091575091575	-0.05256410256410257	-0.1903553299492386	0.6002656042496679
1591.827392578125	-3.666284396610416	0.6275626251919044	29.37156033895842	3.147945599223996	1.55342491119827	-0.1159050543382299	3383.241025641025	3569.230769230769	-0.06282051282051282	-0.1814720812182741	0.5989375830013279
1611.358642578125	-2.911312731378031	0.009656627922580818	28.86872686219687	2.79249876351291	1.928832037605993	-0.4748667618726957	3400.717948717948	3578.021978021978	-0.05256410256410257	-0.1928934010152284	0.6002656042496679
1630.889892578125	-2.944122090038449	1.041255618631141	29.58779099615514	3.858839270646167	0.8026106583828239	0.6020183607307016	3371.589743589744	3572.161172161172	-0.06153846153846154	-0.182741116751269	0.5922974767596281
1650.421142578125	-3.465441802000116	0.4708654507893477	29.45581979998842	3.125670197041609	1.575475309318208	-0.8657685931244228	3397.805128205128	3573.626373626374	-0.06282051282051282	-0.1916243654822335	0.596281540504648
1669.952392578125	-2.385376231297391	0.03692230130267299	29.46237687026086	3.478754490096987	2.328913564213844	-0.9618401012146651	3394.892307692307	3573.626373626374	-0.0641025641025641	-0.1878172588832487	0.5883134130146082
1689.483642578125	-3.266522869106055	0.1238034824124996	29.34771308939456	3.492254733843888	1.189042983850516	-0.1318751161968605	3373.046153846154	3567.765567765568	-0.06025641025641026	-0.1865482233502538	0.5922974767596281
1709.014892578125	-2.662240705789945	0.2673246513093827	29.77592942100552	2.781361062421717	1.939857236665962	-0.8497985312657921	3393.435897435897	3575.091575091575	-0.06153846153846154	-0.1890862944162436	0.593625498007968
1728.546142578125	-2.221359601011015	-0.04565757220964406	29.86403989889849	3.481117032752695	1.200068182910485	-0.5068068855899569	3391.979487179487	3576.556776556776	-0.05128205128205128	-0.1967005076142132	0.593625498007968
1748.077392578125	-3.46487239813211	1.047213429805738	29.51276018678909	3.128595249853438	1.948082036732671	-0.8924690752016267	3415.282051282051	3576.556776556776	-0.06153846153846154	-0.1865482233502538	0.596281540504648
1767.608642578125	-3.310812640888984	0.8593053826824891	28.91873591110159	3.83656386846378	0.8246610565027619	-0.1478451780554912	3365.764102564102	3567.765567765568	-0.05384615384615385	-0.184010152284264	0.5922974767596281
1787.139892578125	-3.507284676079991	1.088511368994636	29.27153239200101	3.83656386846378	0.8246610565027619	-0.1478451780554912	3378.871794871795	3570.695970695971	-0.06025641025641026	-0.1916243654822335	0.5922974767596281
1806.671142578125	-3.505961196819218	0.7794823472489482	29.40388031807823	3.481117032752695	1.200068182910485	-0.5068068855899569	3400.717948717948	3578.021978021978	-0.04871794871794872	-0.1865482233502538	0.5909694555112881
1826.202392578125	-2.387946243350286	0.4625949365530198	29.20537566497138	3.133882845320974	1.191843382843775	-0.4641363416541224	3383.241025641025	3573.626373626374	-0.05512820512820513	-0.1928934010152284	0.6042496679946878
1845.733642578125	-3.664468459950287	1.087266990703635	29.55315400497135	4.197860809798523	1.194467384923966	0.1577155653245669	3381.784615384615	3573.626373626374	-0.06153846153846154	-0.182741116751269	0.594953519256308
1865.264892578125	-3.027807838198197	-0.7234525449582826	29.21921618018031	3.130957792509145	0.8192366554293119	-0.4374358595769185	3381.784615384615	3575.091575091575	-0.06153846153846154	-0.1814720812182741	0.6002656042496679
1884.796142578125	-3.109154413710999	0.663322880925032	29.08455862890011	3.489329681032059	0.8164362564360523	-0.1051746341196566	3371.589743589744	3567.765567765568	-0.06153846153846154	-0.1890862944162436	0.5830013280212483
1904.327392578125	-3.230558705231006	0.2044027538217772	28.94412947689943	3.492254733843888	1.189042983850516	-0.1318751161968605	3387.610256410256	3570.695970695971	-0.05897435897435897	-0.2030456852791878	0.597609561752988
1923.858642578125	-3.354886962559696	0.05612813987759968	28.51130374403049	3.125670197041609	1.575475309318208	-0.8657685931244228	3393.435897435897	3575.091575091575	-0.06794871794871794	-0.1890862944162436	0.593625498007968
1943.389892578125	-3.863156553438399	0.8571727343573983	29.68434465616008	3.850626622366802	1.186242584857256	0.2003861092604014	3373.046153846154	3570.695970695971	-0.05128205128205128	-0.1916243654822335	0.5856573705179282
1962.921142578125	-2.746819032986028	0.7342872233158879	29.31809670139722	3.136807898132803	1.564450110258239	-0.4908368237313263	3394.892307692307	3575.091575091575	-0.06153846153846154	-0.1954314720812183	0.6015936254980079
1982.452392578125	-3.816019762315437	1.00341072916936	30.39802376845638	3.122745144229781	1.202868581903744	-0.8390681110472189	3394.892307692307	3573.626373626374	-0.06025641025641026	-0.1802030456852792	0.593625498007968
2001.983642578125	-2.588758059373127	0.5423379476591652	29.12419406268736	3.503392434935081	1.178017784790547	0.2430566531962359	3375.958974358974	3573.626373626374	-0.05128205128205128	-0.1928934010152284	0.5922974767596281
2021.514892578125	-2.226453457235615	0.6902564533464326	29.35465427643849	2.778436009609888	1.567250509251498	-0.8230980491885882	3400.717948717948	3576.556776556776	-0.05	-0.199238578680203	0.5883134130146082
2041.046142578125	-3.258628161422611	0.3850605968829908	30.1371838577389	3.495179786655716	1.561649711264979	-0.1585755982740645	3380.328205128205	3567.765567765568	-0.05512820512820513	-0.1878172588832487	0.5896414342629481
2060.577392578125	-3.109277528060838	0.9711395341106772	29.07224719391618	3.475829437285158	1.956306836799381	-0.9351396191374612	3412.36923076923	3576.556776556776	-0.06153846153846154	-0.1865482233502538	0.597609561752988
2080.108642578125	-3.228988997270555	0.2797404257047989	29.10110027294451	3.492254733843888	1.189042983850516	-0.1318751161968605	3367.220512820513	3569.230769230769	-0.06025641025641026	-0.1903553299492386	0.5922974767596281
2099.639892578125	-3.386295895490691	0.5863127005994437	29.37041045093092	3.145020546412167	1.180818183783806	-0.08920457226102602	3374.502564102564	3564.835164835165	-0.04743589743589743	-0.1916243654822335	0.5896414342629481
2119.171142578125	-2.630308536872132	1.428919314548546	28.96914631278677	2.79249876351291	1.928832037605993	-0.4748667618726957	3412.36923076923	3576.556776556776	-0.05512820512820513	-0.1878172588832487	0.5883134130146082
2138.702392578125	-3.22991235489435	0.588365324597139	29.00876451056505	2.794861306168618	0.7999866563026334	-0.01983354624798756	3380.328205128205	3567.765567765568	-0.05897435897435897	-0.1802030456852792	0.5922974767596281
2158.233642578125	-2.979393735695652	1.229187673052608	30.06062643043485	3.492254733843888	1.189042983850516	-0.1318751161968605	3377.415384615385	3570.695970695971	-0.04615384615384616	-0.1852791878172589	0.5896414342629481
2177.764892578125	-2.787769328029567	1.120262405925248	29.22306719704328	3.133882845320974	1.191843382843775	-0.4641363416541224	3384.697435897436	3575.091575091575	-0.05897435897435897	-0.182741116751269	0.5909694555112881
2197.296142578125	-3.784780111615469	0.8964740665777781	29.52198883845304	3.484042085564523	1.572674910324948	-0.5335073676671609	3396.348717948718	3576.556776556776	-0.05897435897435897	-0.1916243654822335	0.5922974767596281
2216.827392578125	-2.703267947302134	0.8456852421597703	29.67320526978662	3.484042085564523	1.572674910324948	-0.5335073676671609	3396.348717948718	3576.556776556776	-0.06282051282051282	-0.1878172588832487	0.593625498007968
2236.358642578125	-3.30981233679654	0.3582950755491207	29.018766320346	2.789573710701081	1.556225310191529	-0.4481662797954918	3394.892307692307	3573.626373626374	-0.06153846153846154	-0.1979695431472081	0.5922974767596281
2255.889892578125	-3.302194636400235	1.312139659687314	29.7805363599765	3.492254733843888	1.189042983850516	-0.1318751161968605	3373.046153846154	3566.300366300366	-0.05897435897435897	-0.1928934010152284	0.5909694555112881
2275.421142578125	-3.700355677356686	0.8142823110533293	29.96443226433143	3.130957792509145	0.8192366554293119	-0.4374358595769185	3393.435897435897	3575.091575091575	-0.0641025641025641	-0.1865482233502538	0.597609561752988
2294.952392578125	-3.629304539349193	0.1686745078196079	29.0695460650807	3.484042085564523	1.572674910324948	-0.5335073676671609	3381.784615384615	3575.091575091575	-0.0576923076923077	-0.1878172588832487	0.5843293492695882
2314.483642578125	-2.988904319220735	0.008024131643712018	29.10956807792645	3.847701569554974	0.8136358574427929	0.2270865913376052	3368.676923076923	3572.161172161172	-0.04743589743589743	-0.1865482233502538	0.596281540504648
2334.014892578125	-3.537462465512593	-0.4594706021399736	30.25375344874072	3.145020546412167	1.180818183783806	-0.08920457226102602	3377.415384615385	3566.300366300366	-0.05128205128205128	-0.184010152284264	0.594953519256308
2353.546142578125	-3.535723475321113	0.1926191716127857	30.4276524678887	3.83656386846378	0.8246610565027619	-0.1478451780554912	3365.764102564102	3569.230769230769	-0.05897435897435897	-0.1903553299492386	0.5909694555112881
2373.077392578125	-3.751139731093638	0.7871126668661119	28.88602689063629	2.778436009609888	1.567250509251498	-0.8230980491885882	3391.979487179487	3575.091575091575	-0.06538461538461539	-0.1903553299492386	0.5909694555112881
2392.608642578125	-2.984072080989544	-0.0737795058928683	29.5927919010456	3.492254733843888	1.189042983850516	-0.1318751161968605	3371.589743589744	3566.300366300366	-0.0576923076923077	-0.1916243654822335	0.597609561752988
2412.139892578125	-3.382587075701783	0.3133360233818773	29.74129242982174	3.839488921275609	1.197267783917225	-0.1745456601326951	3373.046153846154	3567.765567765568	-0.04743589743589743	-0.1903553299492386	0.6042496679946878
2431.671142578125	-2.863714261443171	1.001582173288372	29.62857385568289	2.789573710701081	1.556225310191529	-0.4481662797954918	3399.261538461538	3576.556776556776	-0.06794871794871794	-0.1878172588832487	0.6069057104913678
2451.202392578125	-3.346699858295384	0.5863207030321833	29.33001417046166	3.478191979940866	0.8274614554960214	-0.480106403512753	3384.697435897436	3573.626373626374	-0.06923076923076924	-0.184010152284264	0.5909694555112881
2470.733642578125	-3.9856380955195	0.09164832262854061	29.43619044805005	3.145020546412167	1.180818183783806	-0.08920457226102602	3368.676923076923	3569.230769230769	-0.06153846153846154	-0.200507614213198	0.5896414342629481
2490.264892578125	-3.22304872989081	0.4275869094974104	29.69512701091901	3.855914217834338	0.4300039309683603	0.6287188428079056	3358.482051282051	3569.230769230769	-0.05641025641025641	-0.1865482233502538	0.5896414342629481
2509.796142578125	-2.624091262205249	-0.1158216713265448	29.59087377947511	2.789573710701081	1.556225310191529	-0.4481662797954918	3397.805128205128	3576.556776556776	-0.05	-0.184010152284264	0.5830013280212483
2529.327392578125	-3.023006378554466	0.2716979808015482	29.69936214455348	2.781361062421717	1.939857236665962	-0.8497985312657921	3410.91282051282	3576.556776556776	-0.04743589743589743	-0.1878172588832487	0.6029216467463479
2548.858642578125	-2.829596812815712	0.6994312424823299	29.04031871842886	3.136807898132803	1.564450110258239	-0.4908368237313263	3400.717948717948	3576.556776556776	-0.05	-0.1979695431472081	0.5896414342629481
2568.389892578125	-3.236314301085992	-0.4051687097493022	28.36856989140082	3.145020546412167	1.180818183783806	-0.08920457226102602	3371.589743589744	3569.230769230769	-0.05897435897435897	-0.1916243654822335	0.6002656042496679
2587.921142578125	-3.147688589638943	1.008396244766101	29.23114103610574	3.492254733843888	1.189042983850516	-0.1318751161968605	3380.328205128205	3567.765567765568	-0.0576923076923077	-0.1878172588832487	0.5843293492695882
2607.452392578125	-3.743383527053763	0.3946635161704543	29.66164729462372	3.47290438447333	1.583700109384917	-0.9084391370602574	3391.979487179487	3572.161172161172	-0.04487179487179487	-0.1878172588832487	0.5869853917662682
2626.983642578125	-2.946507430566585	1.00520327410302	29.34925694334154	3.839488921275609	1.197267783917225	-0.1745456601326951	3370.133333333333	3569.230769230769	-0.04743589743589743	-0.1890862944162436	0.597609561752988
2646.514892578125	-3.586230521770926	0.472862057757866	29.37694782290739	3.833638815651952	0.4520543290882984	-0.1211446959782873	3364.307692307692	3564.835164835165	-0.04102564102564103	-0.1890862944162436	0.596281540504648
2666.046142578125	-2.906388157384461	0.6969905004967663	29.36118426155397	3.484042085564523	1.572674910324948	-0.5335073676671609	3397.805128205128	3576.556776556776	-0.05512820512820513	-0.1928934010152284	0.593625498007968
2685.577392578125	-3.270139353132583	0.165917669740832	28.98606468674169	3.128595249853438	1.948082036732671	-0.8924690752016267	3403.630769230769	3575.091575091575	-0.0576923076923077	-0.184010152284264	0.5896414342629481
2705.108642578125	-2.464460580631897	-0.2324332751002458	29.55394193681033	3.136807898132803	1.564450110258239	-0.4908368237313263	3391.979487179487	3575.091575091575	-0.06282051282051282	-0.1865482233502538	0.5856573705179282
2724.639892578125	-2.38382191263067	0.1507370548339003	29.61780873693295	3.83656386846378	0.8246610565027619	-0.1478451780554912	3362.851282051282	3567.765567765568	-0.05641025641025641	-0.1979695431472081	0.5883134130146082
2744.171142578125	-3.386188170434582	0.3169731290620041	29.38118295654186	2.789573710701081	1.556225310191529	-0.4481662797954918	3403.630769230769	3575.091575091575	-0.05	-0.1852791878172589	0.5883134130146082
2763.702392578125	-3.18389898221367	0.5434302797281143	29.61010177863301	3.83656386846378	0.8246610565027619	-0.1478451780554912	3364.307692307692	3566.300366300366	-0.0641025641025641	-0.1751269035532995	0.5883134130146082
2783.233642578125	-2.235486972655072	0.2763033808431609	28.45130273449282	3.156158247503361	1.169792984723837	0.2857271971320704	3378.871794871795	3572.161172161172	-0.05512820512820513	-0.1916243654822335	0.6002656042496679
2802.764892578125	-3.305749563251844	0.2003455204228239	29.4250436748156	3.47290438447333	1.583700109384917	-0.9084391370602574	3399.261538461538	3576.556776556776	-0.05256410256410257	-0.182741116751269	0.5909694555112881
2822.296142578125	-3.913555874832104	-0.1319239510349608	28.64441251678971	3.136807898132803	1.564450110258239	-0.4908368237313263	3397.805128205128	3576.556776556776	-0.05	-0.1890862944162436	0.594953519256308
2841.827392578125	-3.306626752994449	0.393539174370547	29.33732470055512	2.781361062421717	1.939857236665962	-0.8497985312657921	3410.91282051282	3576.556776556776	-0.05512820512820513	-0.1967005076142132	0.5909694555112881
2861.358642578125	-3.064864641928069	-0.07217901934495777	29.51353580719308	3.484042085564523	1.572674910324948	-0.5335073676671609	3389.066666666666	3573.626373626374	-0.05897435897435897	-0.1903553299492386	0.5856573705179282
2880.889892578125	-3.627688663507552	1.128580934758013	29.23113364924475	3.492254733843888	1.189042983850516	-0.1318751161968605	3367.220512820513	3566.300366300366	-0.04358974358974359	-0.1814720812182741	0.5989375830013279
2900.421142578125	-3.746184378512607	0.3974923761438862	29.38156214873937	3.828351220184416	1.208292982977194	-0.5494774295257915	3393.435897435897	3575.091575091575	-0.0641025641025641	-0.1878172588832487	0.6029216467463479
2919.952392578125	-2.863745040030632	1.078536336584783	29.62549599693691	3.133882845320974	1.191843382843775	-0.4641363416541224	3384.697435897436	3573.626373626374	-0.05897435897435897	-0.1802030456852792	0.597609561752988
2939.483642578125	-3.468304210633879	0.6276026373556023	29.16957893661211	3.130957792509145	0.8192366554293119	-0.4374358595769185	3384.697435897436	3573.626373626374	-0.05384615384615385	-0.1814720812182741	0.593625498007968
2959.014892578125	-3.189223677844219	0.8565005300072759	29.07763221557815	3.125670197041609	1.575475309318208	-0.8657685931244228	3399.261538461538	3576.556776556776	-0.05256410256410257	-0.1903553299492386	0.597609561752988
2978.546142578125	-3.146949903539907	0.161496325652229	29.30500964600931	2.797786358980446	1.172593383717097	-0.04653402832519149	3380.328205128205	3566.300366300366	-0.06153846153846154	-0.1967005076142132	0.594953519256308
2998.077392578125	-3.180251719599682	0.4243619291033705	29.97482804003186	3.122745144229781	1.202868581903744	-0.8390681110472189	3393.435897435897	3575.091575091575	-0.05641025641025641	-0.1967005076142132	0.5830013280212483
3017.608642578125	-2.911189617028192	0.7018399747369353	28.8810382971808	3.136807898132803	1.564450110258239	-0.4908368237313263	3391.979487179487	3575.091575091575	-0.05256410256410257	-0.1852791878172589	0.5883134130146082
3037.139892578125	-2.78735381709886	0.08138120142369437	29.26461829011404	3.497542329311424	0.4328043299616199	0.2964576173506437	3368.676923076923	3572.161172161172	-0.06025641025641026	-0.1954314720812183	0.6055776892430278
3056.671142578125	-3.266445922637405	0.9314180741714713	29.35540773625951	3.850626622366802	1.186242584857256	0.2003861092604014	3359.938461538462	3567.765567765568	-0.04358974358974359	-0.200507614213198	0.6002656042496679
3076.202392578125	-2.901848315734137	1.346251414276094	29.81516842658629	4.186723108707329	1.205492583983935	-0.2172162040685295	3370.133333333333	3566.300366300366	-0.06025641025641026	-0.182741116751269	0.5869853917662682
3095.733642578125	-3.710143268168908	0.2857062393121355	28.9856731831092	3.133882845320974	1.191843382843775	-0.4641363416541224	3374.502564102564	3569.230769230769	-0.04487179487179487	-0.2017766497461929	0.5896414342629481
3115.264892578125	-2.819978504234518	0.6512552123537863	30.00214957654819	3.475829437285158	1.956306836799381	-0.9351396191374612	3399.261538461538	3576.556776556776	-0.05897435897435897	-0.182741116751269	0.593625498007968
3134.796142578125	-3.315737214882555	0.1719715101083037	28.42627851174449	3.839488921275609	1.197267783917225	-0.1745456601326951	3381.784615384615	3567.765567765568	-0.0576923076923077	-0.1878172588832487	0.6029216467463479
3154.327392578125	-3.106492065895725	0.0067877557854511	29.35079341042754	3.150870652035824	1.926031638612733	-0.1426055364154338	3380.328205128205	3564.835164835165	-0.06666666666666667	-0.1878172588832487	0.6029216467463479
3173.858642578125	-3.863956796712355	-0.1420190199359066	29.60432032876456	3.133882845320974	1.191843382843775	-0.4641363416541224	3389.066666666666	3573.626373626374	-0.06666666666666667	-0.1852791878172589	0.6029216467463479
3193.389892578125	-3.387942549919791	-0.2966395630425495	29.20574500802089	3.839488921275609	1.197267783917225	-0.1745456601326951	3368.676923076923	3566.300366300366	-0.05897435897435897	-0.199238578680203	0.5909694555112881
3212.921142578125	-3.025976512244338	0.6977747389052424	29.40234877556623	3.133882845320974	1.191843382843775	-0.4641363416541224	3393.435897435897	3576.556776556776	-0.05641025641025641	-0.1890862944162436	0.5922974767596281
3232.452392578125	-3.066141953307652	1.121418757456113	29.38580466923483	3.495179786655716	1.561649711264979	-0.1585755982740645	3375.958974358974	3564.835164835165	-0.0576923076923077	-0.182741116751269	0.597609561752988
3251.983642578125	-3.149165961837015	1.702196082993845	29.08340381629861	3.133882845320974	1.191843382843775	-0.4641363416541224	3387.610256410256	3576.556776556776	-0.06153846153846154	-0.1852791878172589	0.5909694555112881
3271.514892578125	-2.668796544918886	0.6585614334449981	29.12034550811138	2.789573710701081	1.556225310191529	-0.4481662797954918	3384.697435897436	3572.161172161172	-0.05384615384615385	-0.1903553299492386	0.593625498007968
3291.046142578125	-2.985410949544046	0.2737265975010249	29.45890504559539	2.786648657889253	1.183618582777066	-0.4214657977182879	3384.697435897436	3575.091575091575	-0.04615384615384616	-0.1890862944162436	0.596281540504648
3310.577392578125	-3.509962413188994	0.7835235757824224	29.00375868110059	3.484042085564523	1.572674910324948	-0.5335073676671609	3399.261538461538	3576.556776556776	-0.06153846153846154	-0.1903553299492386	0.6069057104913678
3330.108642578125	-3.548758207110346	-0.2172926723570119	29.12417928896538	3.839488921275609	1.197267783917225	-0.1745456601326951	3371.589743589744	3567.765567765568	-0.04871794871794872	-0.1954314720812183	0.596281540504648
3349.639892578125	-2.302536894292788	-0.08213004445659172	29.74631057072119	3.489329681032059	0.8164362564360523	-0.1051746341196566	3368.676923076923	3567.765567765568	-0.06282051282051282	-0.1878172588832487	0.5896414342629481
3369.171142578125	-2.866345830670986	1.581163135131541	29.36541693290144	3.128595249853438	1.948082036732671	-0.8924690752016267	3403.630769230769	3575.091575091575	-0.05641025641025641	-0.184010152284264	0.5896414342629481
3388.702392578125	-3.51579495551263	1.366337520452371	28.42050444873703	3.492254733843888	1.189042983850516	-0.1318751161968605	3378.871794871795	3563.369963369963	-0.05897435897435897	-0.1890862944162436	0.593625498007968
3408.233642578125	-3.22989696560062	1.549888242948933	29.01030343993804	3.481117032752695	1.200068182910485	-0.5068068855899569	3389.066666666666	3579.487179487179	-0.06153846153846154	-0.1941624365482233	0.5909694555112881
3427.764892578125	-3.38654212419037	0.2019460069707345	29.34578758096307	2.789573710701081	1.556225310191529	-0.4481662797954918	3393.435897435897	3575.091575091575	-0.06282051282051282	-0.1865482233502538	0.593625498007968
3447.296142578125	-3.944118396607953	0.2820211190355714	29.58816033920465	3.145020546412167	1.180818183783806	-0.08920457226102602	3381.784615384615	3567.765567765568	-0.04487179487179487	-0.1878172588832487	0.5883134130146082
3466.827392578125	-3.637383918557395	0.3691423731275846	28.26160814426046	3.125670197041609	1.575475309318208	-0.8657685931244228	3396.348717948718	3575.091575091575	-0.06794871794871794	-0.1852791878172589	0.5790172642762284
3486.358642578125	-2.596391149063162	0.6269704451691776	28.36088509368386	3.828351220184416	1.208292982977194	-0.5494774295257915	3389.066666666666	3573.626373626374	-0.05641025641025641	-0.1941624365482233	0.593625498007968
3505.889892578125	-3.467857921115712	0.5117672695576379	29.21420788842885	3.489329681032059	0.8164362564360523	-0.1051746341196566	3370.133333333333	3569.230769230769	-0.04615384615384616	-0.199238578680203	0.593625498007968
3525.421142578125	-2.266326501718061	0.3828359205813951	29.36734982819392	3.136807898132803	1.564450110258239	-0.4908368237313263	3402.174358974359	3576.556776556776	-0.06025641025641026	-0.1776649746192893	0.6069057104913678
3544.952392578125	-2.580155444178107	1.033649306312196	29.98445558218929	3.83656386846378	0.8246610565027619	-0.1478451780554912	3371.589743589744	3567.765567765568	-0.05384615384615385	-0.1802030456852792	0.593625498007968
3564.483642578125	-3.391820651939729	0.3995850123052792	28.81793480602718	3.469979331661501	1.211093381970454	-0.8817386549830533	3384.697435897436	3576.556776556776	-0.0641025641025641	-0.184010152284264	0.5856573705179282
3584.014892578125	-3.784333822097302	0.7806386987798135	29.56661779026978	3.133882845320974	1.191843382843775	-0.4641363416541224	3387.610256410256	3573.626373626374	-0.05512820512820513	-0.1878172588832487	0.597609561752988
3603.546142578125	-3.554806199546201	0.9042004153878165	28.51938004537994	3.125670197041609	1.575475309318208	-0.8657685931244228	3396.348717948718	3573.626373626374	-0.05384615384615385	-0.1865482233502538	0.597609561752988
3623.077392578125	-3.499820868620985	0.4271267696148861	30.01791313790161	3.469979331661501	1.211093381970454	-0.8817386549830533	3391.979487179487	3576.556776556776	-0.05128205128205128	-0.1878172588832487	0.5909694555112881
3642.608642578125	-3.351116585595868	0.6292431360672106	28.88834144041327	2.778436009609888	1.567250509251498	-0.8230980491885882	3399.261538461538	3573.626373626374	-0.05641025641025641	-0.1903553299492386	0.5856573705179282
3662.139892578125	-2.867423081232079	0.2745588505059384	29.25769187679208	3.133882845320974	1.191843382843775	-0.4641363416541224	3380.328205128205	3573.626373626374	-0.0576923076923077	-0.1802030456852792	0.5830013280212483
3681.671142578125	-3.025961122950608	-0.3407023427429631	29.40388770493922	2.778436009609888	1.567250509251498	-0.8230980491885882	3394.892307692307	3575.091575091575	-0.05641025641025641	-0.1789340101522843	0.596281540504648
3701.202392578125	-2.986380475049031	0.697782741337982	29.36195249509697	3.492254733843888	1.189042983850516	-0.1318751161968605	3377.415384615385	3567.765567765568	-0.05512820512820513	-0.1814720812182741	0.5909694555112881
3720.733642578125	-3.112016822344762	0.8200600674912865	28.79831776552379	4.175585407616136	1.216517783043904	-0.592147973461626	3380.328205128205	3573.626373626374	-0.04871794871794872	-0.1865482233502538	0.596281540504648
3740.264892578125	-2.982379258679254	0.6937415128045078	29.76207413207461	3.136807898132803	1.564450110258239	-0.4908368237313263	3400.717948717948	3576.556776556776	-0.05384615384615385	-0.1967005076142132	0.5803452855245683
3759.796142578125	-4.024541614496961	1.360171646026546	29.5458385503039	3.136807898132803	1.564450110258239	-0.4908368237313263	3380.328205128205	3575.091575091575	-0.0576923076923077	-0.1814720812182741	0.594953519256308
3779.327392578125	-2.863206414750084	0.7318384788975847	29.67935852499159	2.767298308518695	1.578275708311467	-1.198029818581685	3406.54358974359	3575.091575091575	-0.05512820512820513	-0.1954314720812183	0.6002656042496679
3798.858642578125	-3.743629755753442	1.010296822541745	29.63702442465586	3.136807898132803	1.564450110258239	-0.4908368237313263	3400.717948717948	3576.556776556776	-0.05384615384615385	-0.1789340101522843	0.6015936254980079
3818.389892578125	-2.832505389330665	-0.02840032600679832	28.74946106693358	3.133882845320974	1.191843382843775	-0.4641363416541224	3380.328205128205	3573.626373626374	-0.05384615384615385	-0.1928934010152284	0.6002656042496679
3837.921142578125	-2.667119111902326	0.46455953379058	29.2880888097674	2.434126874989996	1.931632436599253	-0.8071279873299576	3403.630769230769	3575.091575091575	-0.05384615384615385	-0.1852791878172589	0.5883134130146082
3857.452392578125	-3.551220494107132	-0.06095960864410466	28.87795058928683	3.145020546412167	1.180818183783806	-0.08920457226102602	3365.764102564102	3566.300366300366	-0.04487179487179487	-0.1763959390862944	0.6055776892430278
3876.983642578125	-3.257812528854926	-0.6542247304719095	30.21874711450742	3.478191979940866	0.8274614554960214	-0.480106403512753	3386.153846153846	3573.626373626374	-0.05128205128205128	-0.1928934010152284	0.593625498007968
3896.514892578125	-2.957403050527361	1.246977081032634	28.25969494726396	3.839488921275609	1.197267783917225	-0.1745456601326951	3373.046153846154	3567.765567765568	-0.05641025641025641	-0.199238578680203	0.5989375830013279
3916.046142578125	-3.465134016125518	1.701323817825234	29.48659838744824	2.44233952326936	1.54800051012482	-0.4054957358596573	3389.066666666666	3573.626373626374	-0.03846153846153846	-0.1802030456852792	0.5922974767596281
3935.577392578125	-3.505945807525488	0.7410052656007425	29.40541924745122	2.781361062421717	1.939857236665962	-0.8497985312657921	3412.36923076923	3576.556776556776	-0.06923076923076924	-0.1916243654822335	0.596281540504648
3955.108642578125	-4.592367156538665	1.065983135796359	28.76328434613353	3.122745144229781	1.202868581903744	-0.8390681110472189	3393.435897435897	3575.091575091575	-0.06153846153846154	-0.1878172588832487	0.5896414342629481
3974.639892578125	-3.780332605727526	0.7765974702463394	29.96673942724742	3.481117032752695	1.200068182910485	-0.5068068855899569	3375.958974358974	3573.626373626374	-0.0576923076923077	-0.1941624365482233	0.6002656042496679
3994.171142578125	-3.071728266931609	0.08859939575477099	28.82717330683912	2.77551095679806	1.194643781837035	-0.7963975671113843	3396.348717948718	3573.626373626374	-0.05512820512820513	-0.182741116751269	0.5896414342629481
4013.702392578125	-2.427203716083536	0.6160911378597556	29.27962839164644	3.831276272996244	1.580899710391658	-0.5761779116029954	3380.328205128205	3576.556776556776	-0.0576923076923077	-0.1916243654822335	0.6108897742363877
4033.233642578125	-2.550454722851131	0.774420808541181	28.95452771488686	3.83656386846378	0.8246610565027619	-0.1478451780554912	3375.958974358974	3567.765567765568	-0.05641025641025641	-0.184010152284264	0.5896414342629481
4052.764892578125	-2.381344236340155	0.9559269094727873	29.86557636598449	3.125670197041609	1.575475309318208	-0.8657685931244228	3399.261538461538	3576.556776556776	-0.06794871794871794	-0.1852791878172589	0.5909694555112881
4072.296142578125	-2.627169120951231	0.5795946583145891	29.28308790487693	3.133882845320974	1.191843382843775	-0.4641363416541224	3391.979487179487	3573.626373626374	-0.05	-0.1814720812182741	0.5816733067729083
4091.827392578125	-3.222048425798366	0.9265766023640416	29.79515742016342	2.448189628893017	2.293213964953746	-0.4588967000140651	3386.153846153846	3575.091575091575	-0.0576923076923077	-0.1954314720812183	0.5856573705179282
4111.358642578125	-4.261117533576361	0.8591133242967398	29.88824664236389	3.125670197041609	1.575475309318208	-0.8657685931244228	3400.717948717948	3576.556776556776	-0.05128205128205128	-0.1890862944162436	0.597609561752988
4130.889892578125	-3.703094971640609	0.6632028444339386	29.69050283593904	3.500467382123253	0.8054110573760833	0.2697571352734398	3371.589743589744	3572.161172161172	-0.05128205128205128	-0.1865482233502538	0.5909694555112881
4150.421142578125	-3.266584426280975	0.2777118090053222	29.34155737190259	2.778436009609888	1.567250509251498	-0.8230980491885882	3397.805128205128	3569.230769230769	-0.06025641025641026	-0.1852791878172589	0.6029216467463479
4169.952392578125	-2.87256310533787	0.1259041210066322	28.74368946621311	3.83656386846378	0.8246610565027619	-0.1478451780554912	3368.676923076923	3567.765567765568	-0.05641025641025641	-0.1865482233502538	0.5883134130146082
4189.483642578125	-3.505191732132722	0.8556282648386646	29.48082678672778	3.145020546412167	1.180818183783806	-0.08920457226102602	3380.328205128205	3567.765567765568	-0.0576923076923077	-0.1916243654822335	0.6002656042496679
4209.014892578125	-3.146580560490389	1.238046366095293	29.34194395096109	3.481117032752695	1.200068182910485	-0.5068068855899569	3390.523076923077	3576.556776556776	-0.05641025641025641	-0.1890862944162436	0.5883134130146082
4228.546142578125	-3.702602514241252	0.4319362316913573	29.73974857587475	3.486967138376352	1.945281637739412	-0.5602078497443648	3394.892307692307	3575.091575091575	-0.03717948717948718	-0.1967005076142132	0.596281540504648
4248.077392578125	-2.911343509965491	0.08661079121899218	28.86564900345089	3.125670197041609	1.575475309318208	-0.8657685931244228	3405.087179487179	3575.091575091575	-0.05	-0.1979695431472081	0.5909694555112881
4267.608642578125	-3.911278259360077	1.1734679650306	28.87217406399237	2.778436009609888	1.567250509251498	-0.8230980491885882	3394.892307692307	3575.091575091575	-0.05512820512820513	-0.1814720812182741	0.593625498007968
4287.139892578125	-3.221694472042578	1.041603724455311	29.83055279574221	3.828351220184416	1.208292982977194	-0.5494774295257915	3375.958974358974	3573.626373626374	-0.05384615384615385	-0.1865482233502538	0.596281540504648
4306.671142578125	-3.626888420233597	0.1277726890513178	29.31115797664028	2.789573710701081	1.556225310191529	-0.4481662797954918	3393.435897435897	3573.626373626374	-0.05	-0.1890862944162436	0.594953519256308
4326.202392578125	-3.459209138039503	0.8876473832660514	30.07908619604975	3.133882845320974	1.191843382843775	-0.4641363416541224	3384.697435897436	3573.626373626374	-0.05384615384615385	-0.1928934010152284	0.5909694555112881
4345.733642578125	-3.18566875099261	0.9682946692717662	29.43312490073905	3.825426167372587	0.8356862555627309	-0.5227769474485876	3380.328205128205	3573.626373626374	-0.05384615384615385	-0.1903553299492386	0.5922974767596281
4365.264892578125	-3.061971454706847	0.6941296307923761	29.80285452931537	3.484042085564523	1.572674910324948	-0.5335073676671609	3399.261538461538	3576.556776556776	-0.04487179487179487	-0.1941624365482233	0.597609561752988
4384.796142578125	-2.74477225691995	1.616835364104534	29.52277430800502	3.125670197041609	1.575475309318208	-0.8657685931244228	3393.435897435897	3572.161172161172	-0.0576923076923077	-0.1865482233502538	0.5909694555112881
4404.327392578125	-2.827319197343685	1.004823158547891	29.26808026563151	3.47290438447333	1.583700109384917	-0.9084391370602574	3406.54358974359	3575.091575091575	-0.04743589743589743	-0.1865482233502538	0.5883134130146082
4423.858642578125	-3.860155641161067	0.3541418129572928	29.98443588389332	3.136807898132803	1.564450110258239	-0.4908368237313263	3397.805128205128	3578.021978021978	-0.05897435897435897	-0.1852791878172589	0.6015936254980079
4443.389892578125	-3.390574119147606	0.28294139880062	28.94258808523945	3.142095493600339	0.8082114563693429	-0.06250409018382208	3365.764102564102	3567.765567765568	-0.05384615384615385	-0.1814720812182741	0.6002656042496679
4462.921142578125	-3.144533784424311	1.120594506883939	29.54662155756888	3.125670197041609	1.575475309318208	-0.8657685931244228	3406.54358974359	3573.626373626374	-0.05	-0.1865482233502538	0.6042496679946878
4482.452392578125	-4.183787563727066	0.5148562085951052	29.62124362729346	3.489329681032059	0.8164362564360523	-0.1051746341196566	3371.589743589744	3566.300366300366	-0.0576923076923077	-0.182741116751269	0.6015936254980079
4501.983642578125	-4.948162087428424	0.6422590929180932	29.18379125715756	3.478191979940866	0.8274614554960214	-0.480106403512753	3383.241025641025	3573.626373626374	-0.06025641025641026	-0.1916243654822335	0.6095617529880477
4521.514892578125	-3.105999608496368	1.77552114304287	29.40003915036324	3.495179786655716	1.561649711264979	-0.1585755982740645	3383.241025641025	3570.695970695971	-0.05641025641025641	-0.1928934010152284	0.5896414342629481
4541.046142578125	-3.18740774118409	0.3162048955190071	29.25922588159108	2.789573710701081	1.556225310191529	-0.4481662797954918	3393.435897435897	3573.626373626374	-0.06153846153846154	-0.1916243654822335	0.5909694555112881
4560.577392578125	-2.825534039271016	0.5414816873560331	29.44659607289846	3.844776516743145	0.4410291300283294	0.2537870734148092	3368.676923076923	3570.695970695971	-0.05512820512820513	-0.1916243654822335	0.5989375830013279
4580.108642578125	-2.665903357697664	0.4248700835823321	29.40966423023368	3.481117032752695	1.200068182910485	-0.5068068855899569	3389.066666666666	3573.626373626374	-0.05897435897435897	-0.1789340101522843	0.593625498007968
4599.639892578125	-2.341640474088738	0.6865953403680871	29.83595259112616	3.839488921275609	1.197267783917225	-0.1745456601326951	3370.133333333333	3567.765567765568	-0.05128205128205128	-0.182741116751269	0.593625498007968
4619.171142578125	-2.783829668834711	1.270129503984596	29.61703311652896	3.492254733843888	1.189042983850516	-0.1318751161968605	3386.153846153846	3567.765567765568	-0.0576923076923077	-0.2043147208121827	0.593625498007968
4638.702392578125	-3.469335293313783	1.205567107785382	29.06647066862172	3.130957792509145	0.8192366554293119	-0.4374358595769185	3386.153846153846	3576.556776556776	-0.05128205128205128	-0.1890862944162436	0.593625498007968
4658.233642578125	-3.349377595404388	0.2813329098199698	29.06224045956124	3.142095493600339	0.8082114563693429	-0.06250409018382208	3383.241025641025	3570.695970695971	-0.06282051282051282	-0.184010152284264	0.596281540504648
4677.764892578125	-3.911016641366669	0.5193575770111036	28.89833586333322	3.827788710028295	-0.2931591257406285	-0.06774373182387938	3364.307692307692	3564.835164835165	-0.06923076923076924	-0.1941624365482233	0.5922974767596281
4697.296142578125	-4.066892335269922	0.2475612586226212	29.31076647300779	3.136807898132803	1.564450110258239	-0.4908368237313263	3393.435897435897	3573.626373626374	-0.06538461538461539	-0.1878172588832487	0.5803452855245683
4716.827392578125	-3.423537370745323	0.6993112059912366	29.6462629254678	3.133882845320974	1.191843382843775	-0.4641363416541224	3386.153846153846	3575.091575091575	-0.05897435897435897	-0.1941624365482233	0.594953519256308
4736.358642578125	-3.389696929405001	1.089747744852897	29.03030705949993	3.125670197041609	1.575475309318208	-0.8657685931244228	3393.435897435897	3572.161172161172	-0.04487179487179487	-0.1865482233502538	0.5843293492695882
4755.889892578125	-2.583248692217819	0.7675427176015355	29.67513077821811	3.850626622366802	1.186242584857256	0.2003861092604014	3374.502564102564	3572.161172161172	-0.05	-0.1865482233502538	0.596281540504648
4775.421142578125	-3.500205600964232	0.3890538108200276	29.97943990357684	3.136807898132803	1.564450110258239	-0.4908368237313263	3399.261538461538	3576.556776556776	-0.0576923076923077	-0.1865482233502538	0.596281540504648
4794.952392578125	-3.463533529577607	-0.3002926735881554	29.6466470422393	3.825426167372587	0.8356862555627309	-0.5227769474485876	3384.697435897436	3573.626373626374	-0.04743589743589743	-0.1763959390862944	0.5922974767596281
4814.483642578125	-3.63147442976511	0.5939430202166074	28.85255702348898	3.478191979940866	0.8274614554960214	-0.480106403512753	3381.784615384615	3575.091575091575	-0.06282051282051282	-0.1865482233502538	0.593625498007968
4834.014892578125	-3.26732311238001	0.1246117281191944	29.26768876199903	3.136807898132803	1.564450110258239	-0.4908368237313263	3402.174358974359	3576.556776556776	-0.0576923076923077	-0.1878172588832487	0.5896414342629481
4853.546142578125	-3.984268448377538	-0.332811944061764	29.57315516224624	3.822501114560759	0.4630795281482674	-0.4960764653713837	3383.241025641025	3572.161172161172	-0.06282051282051282	-0.1776649746192893	0.5856573705179282
4873.077392578125	-2.987627007841153	0.8144263548426414	29.2372992158847	3.114532495950416	1.586500508378177	-1.240700362517519	3405.087179487179	3575.091575091575	-0.05512820512820513	-0.1928934010152284	0.5816733067729083
4892.608642578125	-3.185791865342449	0.2761113224574117	29.42081346575512	3.122745144229781	1.202868581903744	-0.8390681110472189	3386.153846153846	3572.161172161172	-0.05384615384615385	-0.199238578680203	0.5922974767596281
4912.139892578125	-4.026865397850178	1.170210974905602	29.31346021498227	3.492254733843888	1.189042983850516	-0.1318751161968605	3374.502564102564	3567.765567765568	-0.04743589743589743	-0.1903553299492386	0.596281540504648
4931.671142578125	-2.988673479814787	0.4308679069206269	29.13265201852132	3.117457548762245	1.959107235792641	-1.267400844594723	3396.348717948718	3573.626373626374	-0.05512820512820513	-0.199238578680203	0.6042496679946878
4951.202392578125	-3.712359326466014	1.826405996653752	28.76406735339851	3.492254733843888	1.189042983850516	-0.1318751161968605	3370.133333333333	3564.835164835165	-0.05641025641025641	-0.182741116751269	0.594953519256308
4970.733642578125	-2.58134041979531	-0.003615406775967611	29.86595802046899	3.481117032752695	1.200068182910485	-0.5068068855899569	3384.697435897436	3576.556776556776	-0.04615384615384616	-0.199238578680203	0.596281540504648
4990.264892578125	-2.83150508523822	0.4705893668598331	28.84949147617799	3.481117032752695	1.200068182910485	-0.5068068855899569	3387.610256410256	3575.091575091575	-0.0576923076923077	-0.1903553299492386	0.5869853917662682
5009.796142578125	-3.152413102814025	0.8208603107652417	28.75868971859753	2.789573710701081	1.556225310191529	-0.4481662797954918	3394.892307692307	3573.626373626374	-0.0576923076923077	-0.1878172588832487	0.5909694555112881
5029.327392578125	-2.866253494908606	0.3503006452423075	29.37465050913939	3.133882845320974	1.191843382843775	-0.4641363416541224	3393.435897435897	3575.091575091575	-0.04871794871794872	-0.1865482233502538	0.5883134130146082
5048.858642578125	-3.5482195818298	0.4360094699557896	29.17804181702006	3.125670197041609	1.575475309318208	-0.8657685931244228	3397.805128205128	3573.626373626374	-0.05384615384615385	-0.182741116751269	0.5909694555112881
5068.389892578125	-3.502513995023718	0.1606160580508782	29.7486004976282	3.839488921275609	1.197267783917225	-0.1745456601326951	3367.220512820513	3564.835164835165	-0.05897435897435897	-0.1903553299492386	0.597609561752988
5087.921142578125	-3.864849375748689	0.08965171566002217	29.51506242513108	3.125670197041609	1.575475309318208	-0.8657685931244228	3400.717948717948	3576.556776556776	-0.0576923076923077	-0.1878172588832487	0.6002656042496679
5107.452392578125	-2.826026496670373	0.7727483000986145	29.39735033296275	3.492254733843888	1.189042983850516	-0.1318751161968605	3381.784615384615	3567.765567765568	-0.06153846153846154	-0.1789340101522843	0.594953519256308
5126.983642578125	-2.985687956831185	-0.03368593283127297	29.43120431688156	3.484042085564523	1.572674910324948	-0.5335073676671609	3384.697435897436	3572.161172161172	-0.05256410256410257	-0.182741116751269	0.6055776892430278
5146.514892578125	-3.266353586875026	0.7005555842822371	29.36464131249745	2.781361062421717	1.939857236665962	-0.8497985312657921	3394.892307692307	3572.161172161172	-0.05641025641025641	-0.1814720812182741	0.6015936254980079
5166.046142578125	-3.429477638125067	0.5514647221986253	29.0522361874933	3.498104839467545	1.934256438679443	-0.1852760803512684	3377.415384615385	3566.300366300366	-0.0576923076923077	-0.1789340101522843	0.6029216467463479
5185.577392578125	-3.299316838472743	0.116925391472854	30.06831615272581	3.128595249853438	1.948082036732671	-0.8924690752016267	3403.630769230769	3575.091575091575	-0.0576923076923077	-0.1928934010152284	0.5816733067729083
5205.108642578125	-2.624322101611198	0.4613345533965402	29.56778983888025	3.481117032752695	1.200068182910485	-0.5068068855899569	3389.066666666666	3573.626373626374	-0.04871794871794872	-0.182741116751269	0.5843293492695882
5224.639892578125	-3.109616092522896	0.817635330371202	29.03839074771037	3.503392434935081	1.178017784790547	0.2430566531962359	3377.415384615385	3573.626373626374	-0.05384615384615385	-0.1916243654822335	0.593625498007968
5244.171142578125	-3.827807961312547	0.4768552716949029	29.21920386874533	3.484042085564523	1.572674910324948	-0.5335073676671609	3393.435897435897	3575.091575091575	-0.06025641025641026	-0.1865482233502538	0.6055776892430278
5263.702392578125	-2.990581752237296	1.20202603129813	28.94182477627044	3.839488921275609	1.197267783917225	-0.1745456601326951	3370.133333333333	3569.230769230769	-0.06282051282051282	-0.1865482233502538	0.5776892430278884
5283.233642578125	-3.389358364942943	0.2432519485923721	29.06416350570573	3.495179786655716	1.561649711264979	-0.1585755982740645	3383.241025641025	3572.161172161172	-0.04743589743589743	-0.1802030456852792	0.5869853917662682
5302.764892578125	-3.305611059608275	0.8540517855889727	29.43889403917252	3.147945599223996	1.55342491119827	-0.1159050543382299	3380.328205128205	3569.230769230769	-0.05384615384615385	-0.1916243654822335	0.594953519256308
5322.296142578125	-3.77783954014328	0.5433102432370209	30.21604598567195	3.14265800375646	2.309663565087166	-0.5442377878857342	3394.892307692307	3573.626373626374	-0.06025641025641026	-0.1852791878172589	0.6029216467463479
5341.827392578125	-2.670043077711009	0.7752050469496572	28.99569222889912	3.145020546412167	1.180818183783806	-0.08920457226102602	3380.328205128205	3566.300366300366	-0.05384615384615385	-0.1878172588832487	0.5883134130146082
5361.358642578125	-3.18745390906528	0.431636140463624	29.2546090934721	3.125670197041609	1.575475309318208	-0.8657685931244228	3394.892307692307	3573.626373626374	-0.05641025641025641	-0.1852791878172589	0.593625498007968
5380.889892578125	-2.744695310451301	0.4244499558635055	29.53046895486997	3.492254733843888	1.189042983850516	-0.1318751161968605	3374.502564102564	3567.765567765568	-0.04871794871794872	-0.1916243654822335	0.593625498007968
5400.421142578125	-3.388681236018827	0.5502603560713226	29.13187639811733	3.844776516743145	0.4410291300283294	0.2537870734148092	3359.938461538462	3567.765567765568	-0.04615384615384616	-0.1878172588832487	0.596281540504648
5419.952392578125	-2.828965851772785	0.1218708949058976	29.10341482272149	3.484042085564523	1.572674910324948	-0.5335073676671609	3387.610256410256	3576.556776556776	-0.05897435897435897	-0.1865482233502538	0.5922974767596281
5439.483642578125	-2.704822265968855	0.7318704886285431	29.51777340311454	3.850626622366802	1.186242584857256	0.2003861092604014	3378.871794871795	3573.626373626374	-0.05384615384615385	-0.1941624365482233	0.594953519256308
5459.014892578125	-3.385880384559984	0.5474314960978907	29.41196154400168	3.484042085564523	1.572674910324948	-0.5335073676671609	3399.261538461538	3576.556776556776	-0.04358974358974359	-0.184010152284264	0.593625498007968
5478.546142578125	-3.352270782625611	0.5150242596826358	28.77292173743895	3.495179786655716	1.561649711264979	-0.1585755982740645	3377.415384615385	3566.300366300366	-0.05384615384615385	-0.1852791878172589	0.596281540504648
5498.077392578125	-3.230420201587437	-0.1418909810120738	28.95797984125635	2.781361062421717	1.939857236665962	-0.8497985312657921	3406.54358974359	3575.091575091575	-0.05512820512820513	-0.1852791878172589	0.5830013280212483
5517.608642578125	-3.505853471763109	0.5101427757115086	29.41465282368916	3.125670197041609	1.575475309318208	-0.8657685931244228	3403.630769230769	3576.556776556776	-0.04743589743589743	-0.1890862944162436	0.5843293492695882
5537.139892578125	-2.865114687172593	0.5029966032750879	29.48853128274072	3.481117032752695	1.200068182910485	-0.5068068855899569	3381.784615384615	3576.556776556776	-0.05641025641025641	-0.1954314720812183	0.5922974767596281
5556.671142578125	-2.902017597965166	0.7694993124063561	29.79824020348339	2.789573710701081	1.556225310191529	-0.4481662797954918	3397.805128205128	3569.230769230769	-0.04102564102564103	-0.1751269035532995	0.5922974767596281
5576.202392578125	-3.51242470018578	-0.06014336050467029	28.75752998142204	3.492254733843888	1.189042983850516	-0.1318751161968605	3371.589743589744	3567.765567765568	-0.05641025641025641	-0.1802030456852792	0.5896414342629481
5595.733642578125	-2.834182822347224	0.1656015736476196	28.58171776527756	3.831276272996244	1.580899710391658	-0.5761779116029954	3383.241025641025	3575.091575091575	-0.05641025641025641	-0.1865482233502538	0.6015936254980079
5615.264892578125	-2.559611352620427	0.6682843892235546	28.03886473795726	3.492254733843888	1.189042983850516	-0.1318751161968605	3375.958974358974	3567.765567765568	-0.05128205128205128	-0.182741116751269	0.593625498007968
5634.796142578125	-3.667915661745786	0.7061332799017053	29.20843382542138	3.133882845320974	1.191843382843775	-0.4641363416541224	3393.435897435897	3575.091575091575	-0.0641025641025641	-0.1878172588832487	0.5803452855245683
5654.327392578125	-3.223602744465087	0.8127618488328142	29.63972555349134	4.175585407616136	1.216517783043904	-0.592147973461626	3387.610256410256	3569.230769230769	-0.05897435897435897	-0.1967005076142132	0.594953519256308
5673.858642578125	-3.666176671554307	1.358223053654465	29.38233284456936	3.47290438447333	1.583700109384917	-0.9084391370602574	3393.435897435897	3572.161172161172	-0.05512820512820513	-0.1878172588832487	0.5909694555112881
5693.389892578125	-3.545064776615168	0.5482077320736272	29.4935223384832	3.478191979940866	0.8274614554960214	-0.480106403512753	3381.784615384615	3576.556776556776	-0.06538461538461539	-0.1776649746192893	0.594953519256308
5712.921142578125	-3.060463303921315	0.9233756292682207	29.95366960786848	2.77551095679806	1.194643781837035	-0.7963975671113843	3387.610256410256	3569.230769230769	-0.06025641025641026	-0.182741116751269	0.5883134130146082
5732.452392578125	-3.423183416989534	0.8143383280825061	29.68165830104659	3.147945599223996	1.55342491119827	-0.1159050543382299	3378.871794871795	3569.230769230769	-0.04743589743589743	-0.1852791878172589	0.5856573705179282
5751.983642578125	-3.151397409427851	0.2813729219836677	28.86025905721493	3.495179786655716	1.561649711264979	-0.1585755982740645	3377.415384615385	3570.695970695971	-0.05641025641025641	-0.184010152284264	0.596281540504648
5771.514892578125	-3.669762376993375	0.3233830776863859	29.02376230066247	3.511605083214445	0.7943858583161143	0.6446889046665362	3365.764102564102	3573.626373626374	-0.06794871794871794	-0.1852791878172589	0.5922974767596281
5791.046142578125	-3.783256571536209	0.08724298340541681	29.67434284637914	3.128032739697317	0.4466299280148485	-0.4107353774997146	3387.610256410256	3573.626373626374	-0.0576923076923077	-0.1814720812182741	0.5896414342629481
5810.577392578125	-3.427723258639857	1.165077414303179	29.22767413601427	3.122745144229781	1.202868581903744	-0.8390681110472189	3397.805128205128	3573.626373626374	-0.05512820512820513	-0.184010152284264	0.596281540504648
5830.108642578125	-3.026853701986942	-1.109031607147034	29.31462980130575	3.133882845320974	1.191843382843775	-0.4641363416541224	3383.241025641025	3575.091575091575	-0.04871794871794872	-0.184010152284264	0.596281540504648
5849.639892578125	-2.748019397896961	0.7354995918759302	29.19806021030393	3.500467382123253	0.8054110573760833	0.2697571352734398	3370.133333333333	3572.161172161172	-0.06153846153846154	-0.1941624365482233	0.5883134130146082
5869.171142578125	-3.385326369985707	0.1622565567624866	29.46736300142935	3.125670197041609	1.575475309318208	-0.8657685931244228	3391.979487179487	3575.091575091575	-0.06153846153846154	-0.1802030456852792	0.593625498007968
5888.702392578125	-3.027361548680029	0.1607120872437529	29.26384513199704	3.481117032752695	1.200068182910485	-0.5068068855899569	3378.871794871795	3572.161172161172	-0.05641025641025641	-0.1763959390862944	0.593625498007968
5908.233642578125	-3.11070873237772	1.549508127393805	28.92912676222802	3.845339026899266	1.942481238746152	-0.2279466242871029	3389.066666666666	3572.161172161172	-0.05256410256410257	-0.1903553299492386	0.5883134130146082
5927.764892578125	-3.293945974961004	0.688423896249075	30.60540250389964	3.492254733843888	1.189042983850516	-0.1318751161968605	3386.153846153846	3572.161172161172	-0.06025641025641026	-0.1954314720812183	0.594953519256308
5947.296142578125	-3.395113960797929	1.633680485021293	28.48860392020712	2.786648657889253	1.183618582777066	-0.4214657977182879	3396.348717948718	3573.626373626374	-0.06282051282051282	-0.1941624365482233	0.594953519256308
5966.827392578125	-2.826349671838701	0.5807670147109336	29.36503281612994	3.47290438447333	1.583700109384917	-0.9084391370602574	3405.087179487179	3575.091575091575	-0.05897435897435897	-0.1890862944162436	0.5896414342629481
5986.358642578125	-2.472062891734472	0.775245059113355	28.79371082655281	3.136807898132803	1.564450110258239	-0.4908368237313263	3394.892307692307	3575.091575091575	-0.05384615384615385	-0.1979695431472081	0.5896414342629481
6005.889892578125	-2.867207631119861	0.7358797074310589	29.27923688801395	3.83656386846378	0.8246610565027619	-0.1478451780554912	3368.676923076923	3569.230769230769	-0.06153846153846154	-0.1852791878172589	0.594953519256308
6025.421142578125	-3.657297049072148	0.1569469426397933	30.27029509278513	3.481117032752695	1.200068182910485	-0.5068068855899569	3393.435897435897	3578.021978021978	-0.04871794871794872	-0.1814720812182741	0.5922974767596281
6044.952392578125	-4.059089963348859	0.7396808629823466	30.09100366511419	3.147945599223996	1.55342491119827	-0.1159050543382299	3381.784615384615	3569.230769230769	-0.05641025641025641	-0.1916243654822335	0.5909694555112881
6064.483642578125	-2.582787013405921	0.6132302681553654	29.72129865940784	3.495179786655716	1.561649711264979	-0.1585755982740645	3383.241025641025	3573.626373626374	-0.04871794871794872	-0.1890862944162436	0.594953519256308
6084.014892578125	-3.141255864859841	0.924976115816131	29.87441351401595	3.125670197041609	1.575475309318208	-0.8657685931244228	3394.892307692307	3573.626373626374	-0.05	-0.1852791878172589	0.5896414342629481
6103.546142578125	-2.98818102241543	0.1996012941780455	29.18189775845703	2.789573710701081	1.556225310191529	-0.4481662797954918	3393.435897435897	3573.626373626374	-0.0576923076923077	-0.1916243654822335	0.594953519256308
6123.077392578125	-3.466626777617319	0.4336007377011843	29.33732223826812	3.125670197041609	1.575475309318208	-0.8657685931244228	3406.54358974359	3575.091575091575	-0.05897435897435897	-0.1916243654822335	0.5830013280212483
6142.608642578125	-3.384649241061591	1.469264964241437	29.53507589384095	3.125670197041609	1.575475309318208	-0.8657685931244228	3393.435897435897	3575.091575091575	-0.05641025641025641	-0.1865482233502538	0.5883134130146082
6162.139892578125	-2.712778530827218	0.6245217007508745	28.72214691727823	3.489329681032059	0.8164362564360523	-0.1051746341196566	3370.133333333333	3567.765567765568	-0.06538461538461539	-0.1865482233502538	0.5856573705179282
6181.671142578125	-2.90826565121951	0.3911944615778581	29.17343487804908	3.111607443138587	1.213893780963713	-1.213999880440315	3402.174358974359	3578.021978021978	-0.0576923076923077	-0.1865482233502538	0.5989375830013279
6201.202392578125	-3.703818268445915	0.4716256818996051	29.61817315540847	3.492254733843888	1.189042983850516	-0.1318751161968605	3377.415384615385	3569.230769230769	-0.05641025641025641	-0.1865482233502538	0.5989375830013279
6220.733642578125	-3.501498301637544	0.6211286692693041	29.8501698362456	3.133882845320974	1.191843382843775	-0.4641363416541224	3384.697435897436	3575.091575091575	-0.06538461538461539	-0.1903553299492386	0.594953519256308
6240.264892578125	-2.665026167955058	0.2316764296346089	29.49738320449416	2.789573710701081	1.556225310191529	-0.4481662797954918	3393.435897435897	3575.091575091575	-0.0641025641025641	-0.1928934010152284	0.5790172642762284
6259.796142578125	-3.310735694420335	0.6669199744414609	28.92643055796654	3.478191979940866	0.8274614554960214	-0.480106403512753	3394.892307692307	3573.626373626374	-0.05384615384615385	-0.1878172588832487	0.5922974767596281
6279.327392578125	-3.142240779658555	1.387509341301294	29.77592203414453	3.125670197041609	1.575475309318208	-0.8657685931244228	3406.54358974359	3575.091575091575	-0.05641025641025641	-0.1928934010152284	0.593625498007968
6298.858642578125	-2.667750072945252	0.0421198813670125	29.22499270547477	3.136807898132803	1.564450110258239	-0.4908368237313263	3387.610256410256	3572.161172161172	-0.06025641025641026	-0.1814720812182741	0.5909694555112881
6318.389892578125	-3.706773012842058	-0.1407746416449062	29.32269871579421	3.142095493600339	0.8082114563693429	-0.06250409018382208	3371.589743589744	3564.835164835165	-0.05	-0.1954314720812183	0.5989375830013279
6337.921142578125	-2.741755955348888	0.07532736105622268	29.82440446511123	3.133882845320974	1.191843382843775	-0.4641363416541224	3389.066666666666	3573.626373626374	-0.05256410256410257	-0.1852791878172589	0.594953519256308
6357.452392578125	-1.985984046842548	0.456613118080204	29.40159531574521	3.147945599223996	1.55342491119827	-0.1159050543382299	3387.610256410256	3572.161172161172	-0.06923076923076924	-0.1738578680203046	0.597609561752988
6376.983642578125	-3.502683277254747	0.5838639561811405	29.7316722745253	3.136807898132803	1.564450110258239	-0.4908368237313263	3396.348717948718	3578.021978021978	-0.0641025641025641	-0.1916243654822335	0.6015936254980079
6396.514892578125	-3.679611524980517	0.9487153325380147	28.03884750194828	2.789573710701081	1.556225310191529	-0.4481662797954918	3399.261538461538	3573.626373626374	-0.05384615384615385	-0.1865482233502538	0.5909694555112881
6416.046142578125	-2.902617780420633	0.2701054966863772	29.73822195793674	3.45591657775848	0.8495118536159594	-1.229969942298946	3394.892307692307	3572.161172161172	-0.06153846153846154	-0.1941624365482233	0.5883134130146082
6435.577392578125	-3.350870356896189	0.01360982969591984	28.91296431038112	3.855914217834338	0.4300039309683603	0.6287188428079056	3346.830769230769	3563.369963369963	-0.04615384615384616	-0.2030456852791878	0.5896414342629481
6455.108642578125	-2.982579319497743	0.1939435742311816	29.74206805022573	3.486967138376352	1.945281637739412	-0.5602078497443648	3390.523076923077	3575.091575091575	-0.06025641025641026	-0.184010152284264	0.5909694555112881
6474.639892578125	-2.834429051046903	0.7812348800189103	28.55709489530971	3.500467382123253	0.8054110573760833	0.2697571352734398	3373.046153846154	3572.161172161172	-0.05256410256410257	-0.1852791878172589	0.5869853917662682
6494.171142578125	-3.267861737660557	0.4713095858063928	29.21382623394435	3.125670197041609	1.575475309318208	-0.8657685931244228	3394.892307692307	3572.161172161172	-0.0576923076923077	-0.1916243654822335	0.594953519256308
6513.702392578125	-3.068804301122926	0.7779538825956938	29.1195698877074	3.136807898132803	1.564450110258239	-0.4908368237313263	3389.066666666666	3573.626373626374	-0.05128205128205128	-0.1903553299492386	0.593625498007968
6533.233642578125	-2.865022351410214	0.2721341133858539	29.49776485897867	3.136807898132803	1.564450110258239	-0.4908368237313263	3399.261538461538	3580.952380952381	-0.04358974358974359	-0.1865482233502538	0.597609561752988
6552.764892578125	-4.098824504187735	1.085966595383458	30.11754958122653	3.136807898132803	1.564450110258239	-0.4908368237313263	3396.348717948718	3573.626373626374	-0.06025641025641026	-0.1802030456852792	0.5896414342629481
6572.296142578125	-2.741663619586508	0.8444648711669884	29.83363804134918	3.497542329311424	0.4328043299616199	0.2964576173506437	3367.220512820513	3566.300366300366	-0.06153846153846154	-0.1852791878172589	0.5989375830013279
6591.827392578125	-2.868685003317932	0.4296795456588033	29.13149966820683	3.114532495950416	1.586500508378177	-1.240700362517519	3403.630769230769	3575.091575091575	-0.06153846153846154	-0.1941624365482233	0.5790172642762284
6611.358642578125	-3.619455391362051	0.5433422529679792	30.0544608637949	3.839488921275609	1.197267783917225	-0.1745456601326951	3381.784615384615	3567.765567765568	-0.05256410256410257	-0.1865482233502538	0.596281540504648
6630.889892578125	-2.864714565535615	0.5025924804217405	29.52854344643848	3.489329681032059	0.8164362564360523	-0.1051746341196566	3371.589743589744	3567.765567765568	-0.06538461538461539	-0.1979695431472081	0.5883134130146082
6650.421142578125	-3.027530830911059	-0.4160400146259847	29.24691690889415	3.844776516743145	0.4410291300283294	0.2537870734148092	3364.307692307692	3570.695970695971	-0.05641025641025641	-0.1903553299492386	0.6002656042496679
6669.952392578125	-2.352489926168325	0.8129379023530845	28.75100738316756	3.136807898132803	1.564450110258239	-0.4908368237313263	3389.066666666666	3573.626373626374	-0.06025641025641026	-0.1954314720812183	0.593625498007968
6689.483642578125	-3.467319295835165	0.1650694118704393	29.26807041648353	3.484042085564523	1.572674910324948	-0.5335073676671609	3405.087179487179	3579.487179487179	-0.05641025641025641	-0.184010152284264	0.593625498007968
6709.014892578125	-4.154579299799448	0.4868943235666719	28.54207002005532	3.481117032752695	1.200068182910485	-0.5068068855899569	3383.241025641025	3575.091575091575	-0.05512820512820513	-0.184010152284264	0.5869853917662682
6728.546142578125	-3.191085782385538	0.5122274094401622	28.89142176144625	3.122745144229781	1.202868581903744	-0.8390681110472189	3391.979487179487	3576.556776556776	-0.05641025641025641	-0.1878172588832487	0.5896414342629481
6748.077392578125	-3.390389447622847	-0.178783580977848	28.96105523771534	3.122745144229781	1.202868581903744	-0.8390681110472189	3394.892307692307	3573.626373626374	-0.0641025641025641	-0.199238578680203	0.5896414342629481
6767.608642578125	-3.626626802240188	0.4736623010318213	29.33731977598112	3.484042085564523	1.572674910324948	-0.5335073676671609	3394.892307692307	3573.626373626374	-0.04487179487179487	-0.1890862944162436	0.5869853917662682
6787.139892578125	-3.308873589879016	1.011193095008575	29.11264101209844	3.142095493600339	0.8082114563693429	-0.06250409018382208	3365.764102564102	3566.300366300366	-0.05	-0.184010152284264	0.5909694555112881
6806.671142578125	-3.379539995543261	0.6948738570371547	30.04600044567394	3.136807898132803	1.564450110258239	-0.4908368237313263	3393.435897435897	3575.091575091575	-0.05128205128205128	-0.1814720812182741	0.5869853917662682
6826.202392578125	-3.026946037749322	1.1218308827422	29.3053962250678	3.481117032752695	1.200068182910485	-0.5068068855899569	3393.435897435897	3578.021978021978	-0.05512820512820513	-0.1852791878172589	0.5830013280212483
6845.733642578125	-3.391035797959503	0.4372538482467901	28.89642020404972	3.136807898132803	1.564450110258239	-0.4908368237313263	3396.348717948718	3578.021978021978	-0.05512820512820513	-0.1814720812182741	0.6015936254980079
6865.264892578125	-3.867573280738883	-0.09990483260757421	29.24267192611169	3.136807898132803	1.564450110258239	-0.4908368237313263	3399.261538461538	3576.556776556776	-0.06025641025641026	-0.1814720812182741	0.5896414342629481
6884.796142578125	-3.105953440615178	0.6600898980982526	29.40465593848222	3.83656386846378	0.8246610565027619	-0.1478451780554912	3378.871794871795	3570.695970695971	-0.05512820512820513	-0.1890862944162436	0.5896414342629481
6904.327392578125	-3.389543036467702	-0.2950230716291599	29.04569635322984	3.125670197041609	1.575475309318208	-0.8657685931244228	3396.348717948718	3578.021978021978	-0.05128205128205128	-0.1916243654822335	0.6015936254980079
6923.858642578125	-4.261656158856908	1.205811181983938	29.83438411430921	3.847701569554974	0.8136358574427929	0.2270865913376052	3368.676923076923	3572.161172161172	-0.05128205128205128	-0.1954314720812183	0.596281540504648
6943.389892578125	-2.435513934697687	0.3937152278908173	28.44860653023134	3.83656386846378	0.8246610565027619	-0.1478451780554912	3368.676923076923	3567.765567765568	-0.06025641025641026	-0.1916243654822335	0.5989375830013279
6962.921142578125	-3.867881066613481	0.6696368003565392	29.21189333865187	3.122745144229781	1.202868581903744	-0.8390681110472189	3390.523076923077	3572.161172161172	-0.06025641025641026	-0.199238578680203	0.5989375830013279
6982.452392578125	-3.707080798716656	0.6287669913192072	29.29192012833439	3.47290438447333	1.583700109384917	-0.9084391370602574	3389.066666666666	3575.091575091575	-0.0576923076923077	-0.1789340101522843	0.5989375830013279
7001.983642578125	-3.066819082231768	0.8144103499771622	29.31809177682323	2.781361062421717	1.939857236665962	-0.8497985312657921	3405.087179487179	3578.021978021978	-0.05256410256410257	-0.182741116751269	0.597609561752988
7021.514892578125	-2.664702992786731	0.4236577150222899	29.52970072132697	3.481117032752695	1.200068182910485	-0.5068068855899569	3384.697435897436	3573.626373626374	-0.05512820512820513	-0.184010152284264	0.593625498007968
7041.046142578125	-3.140624903816915	0.3474157682396987	29.93750961830858	3.489329681032059	0.8164362564360523	-0.1051746341196566	3378.871794871795	3564.835164835165	-0.06153846153846154	-0.1954314720812183	0.593625498007968
7060.577392578125	-4.029558524252911	0.9037002633415944	29.04414757470886	3.47290438447333	1.583700109384917	-0.9084391370602574	3396.348717948718	3573.626373626374	-0.06666666666666667	-0.1890862944162436	0.596281540504648
7080.108642578125	-2.580586344402545	0.1110075924619546	29.94136555974554	2.77551095679806	1.194643781837035	-0.7963975671113843	3393.435897435897	3573.626373626374	-0.06666666666666667	-0.1878172588832487	0.594953519256308
7099.639892578125	-3.149150572543284	0.6637190013456398	29.0849427456716	3.492254733843888	1.189042983850516	-0.1318751161968605	3371.589743589744	3567.765567765568	-0.06153846153846154	-0.1903553299492386	0.5989375830013279
7119.171142578125	-2.984903102850959	1.003982903110238	29.5096897149041	3.133882845320974	1.191843382843775	-0.4641363416541224	3399.261538461538	3576.556776556776	-0.07564102564102564	-0.1776649746192893	0.5843293492695882
7138.702392578125	-2.469908390612285	0.3884536283645612	29.00916093877153	3.125670197041609	1.575475309318208	-0.8657685931244228	3394.892307692307	3573.626373626374	-0.05384615384615385	-0.1928934010152284	0.5856573705179282
7158.233642578125	-2.948708099569962	1.50742594979643	29.12919004300384	3.83656386846378	0.8246610565027619	-0.1478451780554912	3370.133333333333	3567.765567765568	-0.05128205128205128	-0.1852791878172589	0.5896414342629481
7177.764892578125	-3.272617029423099	1.360727815101945	28.73829705769015	3.489329681032059	0.8164362564360523	-0.1051746341196566	3374.502564102564	3566.300366300366	-0.0641025641025641	-0.1865482233502538	0.596281540504648
7197.296142578125	-2.947338452428	1.082965683106126	29.26615475720003	3.478191979940866	0.8274614554960214	-0.480106403512753	3374.502564102564	3567.765567765568	-0.06025641025641026	-0.1814720812182741	0.5843293492695882
7216.827392578125	-3.391789873352268	0.322630849008868	28.82101266477316	3.125670197041609	1.575475309318208	-0.8657685931244228	3403.630769230769	3575.091575091575	-0.05	-0.1865482233502538	0.5830013280212483
7236.358642578125	-3.864864765042419	0.1281287973082279	29.51352349575809	2.778436009609888	1.567250509251498	-0.8230980491885882	3394.892307692307	3573.626373626374	-0.06282051282051282	-0.1865482233502538	0.597609561752988
7255.889892578125	-3.188561938213833	0.2019860191344322	29.14380617861676	3.489329681032059	0.8164362564360523	-0.1051746341196566	3368.676923076923	3566.300366300366	-0.05384615384615385	-0.1954314720812183	0.5922974767596281
7275.421142578125	-3.386326674078151	0.663266863895855	29.36733259218494	2.778436009609888	1.567250509251498	-0.8230980491885882	3391.979487179487	3575.091575091575	-0.05384615384615385	-0.1903553299492386	0.593625498007968
7294.952392578125	-3.065541770852185	0.6208125731760916	29.44582291478147	3.133882845320974	1.191843382843775	-0.4641363416541224	3387.610256410256	3572.161172161172	-0.05512820512820513	-0.1865482233502538	0.6015936254980079
7314.483642578125	-3.104291396892348	0.5045650800920403	29.57086031076524	3.122745144229781	1.202868581903744	-0.8390681110472189	3400.717948717948	3575.091575091575	-0.05641025641025641	-0.1763959390862944	0.594953519256308
7334.014892578125	-2.549254357940198	0.7732084399811388	29.07456420598015	3.133882845320974	1.191843382843775	-0.4641363416541224	3387.610256410256	3572.161172161172	-0.04487179487179487	-0.1967005076142132	0.594953519256308
7353.546142578125	-2.747034483098247	0.2729663663907673	29.29655169017535	3.478191979940866	0.8274614554960214	-0.480106403512753	3381.784615384615	3567.765567765568	-0.05256410256410257	-0.1903553299492386	0.5790172642762284
7373.077392578125	-2.708084796239596	0.8890117980481451	29.19152037604047	3.133882845320974	1.191843382843775	-0.4641363416541224	3396.348717948718	3573.626373626374	-0.05641025641025641	-0.2017766497461929	0.594953519256308
7392.608642578125	-3.117957089724508	0.6722135836986751	28.20429102754929	3.825426167372587	0.8356862555627309	-0.5227769474485876	3374.502564102564	3572.161172161172	-0.07307692307692308	-0.1878172588832487	0.5896414342629481
7412.139892578125	-3.262875606492066	1.004735131787756	29.7124393507934	3.489329681032059	0.8164362564360523	-0.1051746341196566	3368.676923076923	3566.300366300366	-0.04871794871794872	-0.1852791878172589	0.5909694555112881
7431.671142578125	-3.868865981412196	0.1321700258417021	29.11340185878045	3.828351220184416	1.208292982977194	-0.5494774295257915	3389.066666666666	3576.556776556776	-0.0576923076923077	-0.1814720812182741	0.6029216467463479
7451.202392578125	-3.545372562489766	1.317749365037741	29.46274375102339	3.133882845320974	1.191843382843775	-0.4641363416541224	3394.892307692307	3575.091575091575	-0.04615384615384616	-0.1890862944162436	0.593625498007968
7470.733642578125	-2.987673175722343	0.9298575997872585	29.23268242776573	3.492254733843888	1.189042983850516	-0.1318751161968605	3389.066666666666	3570.695970695971	-0.05512820512820513	-0.1954314720812183	0.6015936254980079
7490.264892578125	-3.51076265646295	-0.2156681785108827	28.92373435370506	3.484042085564523	1.572674910324948	-0.5335073676671609	3400.717948717948	3576.556776556776	-0.0576923076923077	-0.184010152284264	0.593625498007968
7509.796142578125	-3.14644205684682	0.8917526312614419	29.355794315318	3.83656386846378	0.8246610565027619	-0.1478451780554912	3365.764102564102	3567.765567765568	-0.05512820512820513	-0.1802030456852792	0.5883134130146082
7529.327392578125	-3.467365463716355	0.2805006568150564	29.26345362836456	3.125670197041609	1.575475309318208	-0.8657685931244228	3399.261538461538	3573.626373626374	-0.05128205128205128	-0.1890862944162436	0.5830013280212483
7548.858642578125	-3.109385253116948	-0.759520894351883	29.06147468830524	3.14265800375646	2.309663565087166	-0.5442377878857342	3399.261538461538	3576.556776556776	-0.05641025641025641	-0.1802030456852792	0.5909694555112881
7568.389892578125	-2.986842153860928	0.8520951907841521	29.31578461390724	3.486404628220231	0.443829529021589	-0.07847415204245273	3367.220512820513	3566.300366300366	-0.05384615384615385	-0.1890862944162436	0.6015936254980079
7587.921142578125	-3.590785752714979	0.8620782256267442	28.92142472850208	3.47290438447333	1.583700109384917	-0.9084391370602574	3396.348717948718	3573.626373626374	-0.05256410256410257	-0.182741116751269	0.5922974767596281
7607.452392578125	-3.38301797592622	0.390694309531636	29.69820240737799	3.478191979940866	0.8274614554960214	-0.480106403512753	3387.610256410256	3572.161172161172	-0.06666666666666667	-0.1928934010152284	0.596281540504648
7626.983642578125	-3.429569973887447	0.7823272120878592	29.04300261125535	3.133882845320974	1.191843382843775	-0.4641363416541224	3399.261538461538	3573.626373626374	-0.04102564102564103	-0.1878172588832487	0.596281540504648
7646.514892578125	-3.073913546641256	-0.4476550102000239	28.60864533587441	3.481117032752695	1.200068182910485	-0.5068068855899569	3389.066666666666	3573.626373626374	-0.04871794871794872	-0.1852791878172589	0.594953519256308
7666.046142578125	-3.072251502918426	0.3968201717937637	28.77484970815743	3.467054278849673	0.8384866545559904	-0.8550381729058494	3377.415384615385	3572.161172161172	-0.04487179487179487	-0.1865482233502538	0.5989375830013279
7685.577392578125	-3.467580913828574	0.8191797998899357	29.24190861714268	3.125670197041609	1.575475309318208	-0.8657685931244228	3400.717948717948	3576.556776556776	-0.06923076923076924	-0.1852791878172589	0.5856573705179282
7705.108642578125	-3.347900223206317	0.5875330715922256	29.20997767936837	3.478754490096987	2.328913564213844	-0.9618401012146651	3394.892307692307	3573.626373626374	-0.05256410256410257	-0.1916243654822335	0.5869853917662682
7724.639892578125	-3.224172148333094	0.2364138698164243	29.58278516669067	3.492254733843888	1.189042983850516	-0.1318751161968605	3374.502564102564	3569.230769230769	-0.04871794871794872	-0.1878172588832487	0.5909694555112881
7744.171142578125	-3.26395285705316	0.6981308471621526	29.60471429468404	3.484042085564523	1.572674910324948	-0.5335073676671609	3386.153846153846	3575.091575091575	-0.0576923076923077	-0.1941624365482233	0.5989375830013279
7763.702392578125	-2.704191304925928	0.1543101410521106	29.58086950740717	3.125670197041609	1.575475309318208	-0.8657685931244228	3400.717948717948	3575.091575091575	-0.04487179487179487	-0.1852791878172589	0.5869853917662682
7783.233642578125	-3.463795147571016	0.353817714431341	29.62048524289845	3.484042085564523	1.572674910324948	-0.5335073676671609	3405.087179487179	3576.556776556776	-0.06538461538461539	-0.1852791878172589	0.594953519256308
7802.764892578125	-3.184314493144378	0.5823114842296673	29.56855068556225	3.125670197041609	1.575475309318208	-0.8657685931244228	3396.348717948718	3573.626373626374	-0.04871794871794872	-0.1852791878172589	0.594953519256308
7822.296142578125	-2.750173899019148	0.1222910226247241	28.9826100980852	3.492254733843888	1.189042983850516	-0.1318751161968605	3365.764102564102	3569.230769230769	-0.05512820512820513	-0.1852791878172589	0.5869853917662682
7841.827392578125	-3.148950511724796	1.163516939918966	29.10494882752048	3.128595249853438	1.948082036732671	-0.8924690752016267	3408	3573.626373626374	-0.05256410256410257	-0.1954314720812183	0.5909694555112881
7861.358642578125	-2.98476459920739	0.6576891682763867	29.52354007926101	2.439414470457532	1.175393782710356	-0.3787952537824534	3397.805128205128	3576.556776556776	-0.06025641025641026	-0.1878172588832487	0.5922974767596281
7880.889892578125	-3.14479540241772	-0.2252951050965647	29.52045975822804	3.489329681032059	0.8164362564360523	-0.1051746341196566	3370.133333333333	3567.765567765568	-0.05384615384615385	-0.1852791878172589	0.5843293492695882
7900.421142578125	-3.057677841756202	0.9590238509429944	30.23221582437984	3.133882845320974	1.191843382843775	-0.4641363416541224	3400.717948717948	3578.021978021978	-0.06153846153846154	-0.1878172588832487	0.5989375830013279
7919.952392578125	-3.151320462959202	1.088987513742639	28.86795370407988	3.475266927129038	0.454854728081558	-0.4534059214355491	3380.328205128205	3573.626373626374	-0.05384615384615385	-0.1890862944162436	0.597609561752988
7939.483642578125	-3.189008227732	0.3178213869323968	29.09917722680002	3.128595249853438	1.948082036732671	-0.8924690752016267	3409.45641025641	3575.091575091575	-0.06538461538461539	-0.1954314720812183	0.5922974767596281
7959.014892578125	-4.028358159341979	-0.09751210521844794	29.16418406580215	3.489329681032059	0.8164362564360523	-0.1051746341196566	3368.676923076923	3567.765567765568	-0.06025641025641026	-0.1890862944162436	0.5843293492695882
7978.546142578125	-3.621178992259801	0.8527753975670142	29.88210077401991	3.825426167372587	0.8356862555627309	-0.5227769474485876	3373.046153846154	3572.161172161172	-0.05641025641025641	-0.1928934010152284	0.5922974767596281
7998.077392578125	-3.311966837918728	0.7450865062979145	28.80331620812727	2.781361062421717	1.939857236665962	-0.8497985312657921	3406.54358974359	3575.091575091575	-0.05256410256410257	-0.1928934010152284	0.5989375830013279
8017.608642578125	-2.506703576348749	0.3856167659583897	29.32964236512515	3.133882845320974	1.191843382843775	-0.4641363416541224	3383.241025641025	3575.091575091575	-0.0641025641025641	-0.1928934010152284	0.5909694555112881
8037.139892578125	-3.629596935930061	0.8997390591355158	29.04030640699387	3.842413974087438	1.569874511331689	-0.201246142209899	3370.133333333333	3569.230769230769	-0.05897435897435897	-0.1865482233502538	0.594953519256308
8056.671142578125	-3.144656898774151	0.4284111600695842	29.53431012258496	3.492254733843888	1.189042983850516	-0.1318751161968605	3380.328205128205	3570.695970695971	-0.05128205128205128	-0.1814720812182741	0.5989375830013279
8076.202392578125	-3.399823084679281	0.4076674693722275	28.0176915320719	3.133882845320974	1.191843382843775	-0.4641363416541224	3381.784615384615	3575.091575091575	-0.05512820512820513	-0.1852791878172589	0.597609561752988
8095.733642578125	-3.70632672332389	0.7433899905571293	29.36732766761095	3.128595249853438	1.948082036732671	-0.8924690752016267	3406.54358974359	3575.091575091575	-0.07179487179487179	-0.1789340101522843	0.5869853917662682
8115.264892578125	-3.150520219685246	1.088179268035944	28.94797803147541	3.125670197041609	1.575475309318208	-0.8657685931244228	3393.435897435897	3575.091575091575	-0.04487179487179487	-0.1890862944162436	0.5830013280212483
8134.796142578125	-4.017462539381203	1.660714087851938	30.25374606187973	3.825426167372587	0.8356862555627309	-0.5227769474485876	3375.958974358974	3573.626373626374	-0.05897435897435897	-0.1916243654822335	0.5763612217795484
8154.327392578125	-3.22311028706573	0.581495236090233	29.68897129342704	3.128595249853438	1.948082036732671	-0.8924690752016267	3396.348717948718	3573.626373626374	-0.05512820512820513	-0.1967005076142132	0.593625498007968
8173.858642578125	-3.624857033461249	0.04879791148816931	29.51429665387508	2.786648657889253	1.183618582777066	-0.4214657977182879	3390.523076923077	3575.091575091575	-0.05641025641025641	-0.1865482233502538	0.5830013280212483
8193.389892578125	-4.517376359336315	0.570242430621986	28.26236406636848	4.183798055895501	0.8328858565694712	-0.1905157219913257	3367.220512820513	3566.300366300366	-0.05	-0.1814720812182741	0.5856573705179282
8212.921142578125	-3.068450347367139	0.8929810046869634	29.15496526328619	3.47290438447333	1.583700109384917	-0.9084391370602574	3397.805128205128	3573.626373626374	-0.05384615384615385	-0.1865482233502538	0.5909694555112881
8232.452392578125	-3.784303043509842	0.7036845354834023	29.56969564901576	3.136807898132803	1.564450110258239	-0.4908368237313263	3397.805128205128	3576.556776556776	-0.05897435897435897	-0.184010152284264	0.5909694555112881
8251.983642578125	-2.552670781148239	1.315120565882798	28.73292188517617	3.475829437285158	1.956306836799381	-0.9351396191374612	3406.54358974359	3575.091575091575	-0.06538461538461539	-0.182741116751269	0.6015936254980079
8271.514892578125	-2.500470912388135	0.8023986984350935	29.95290876118648	3.125670197041609	1.575475309318208	-0.8657685931244228	3402.174358974359	3576.556776556776	-0.07051282051282051	-0.1967005076142132	0.596281540504648
8291.046142578125	-2.225422374555711	1.112291982916653	29.45776254442889	4.183798055895501	0.8328858565694712	-0.1905157219913257	3364.307692307692	3564.835164835165	-0.0641025641025641	-0.1890862944162436	0.597609561752988
8310.577392578125	-3.823252730368494	0.08763910382602469	29.67472696315064	3.114532495950416	1.586500508378177	-1.240700362517519	3406.54358974359	3575.091575091575	-0.05512820512820513	-0.1751269035532995	0.5896414342629481
8330.108642578125	-3.314121339040915	0.1318779370467084	28.58786609590853	3.478191979940866	0.8274614554960214	-0.480106403512753	3378.871794871795	3573.626373626374	-0.0576923076923077	-0.1814720812182741	0.5896414342629481
8349.639892578125	-3.304133687410204	0.1602519473612286	29.58663125897965	3.481117032752695	1.200068182910485	-0.5068068855899569	3378.871794871795	3575.091575091575	-0.0576923076923077	-0.1903553299492386	0.5896414342629481
8369.171142578125	-3.861709959827787	1.240327059426065	29.82900401722123	3.828351220184416	1.208292982977194	-0.5494774295257915	3391.979487179487	3576.556776556776	-0.05641025641025641	-0.1802030456852792	0.5922974767596281
8388.702392578125	-3.743999098802959	0.9337467820986811	29.60009011970408	3.125670197041609	1.575475309318208	-0.8657685931244228	3391.979487179487	3575.091575091575	-0.04743589743589743	-0.1967005076142132	0.6002656042496679
8408.233642578125	-3.105491761803281	0.5057774486520825	29.45082381967194	3.114532495950416	1.586500508378177	-1.240700362517519	3412.36923076923	3576.556776556776	-0.06538461538461539	-0.1928934010152284	0.593625498007968
8427.764892578125	-3.191947582834413	0.6669439817396796	28.80524171655875	3.469979331661501	1.211093381970454	-0.8817386549830533	3389.066666666666	3572.161172161172	-0.06282051282051282	-0.184010152284264	0.5790172642762284
8447.296142578125	-3.622517860814303	0.2002815009609075	29.7482139185697	3.83656386846378	0.8246610565027619	-0.1478451780554912	3368.676923076923	3566.300366300366	-0.06025641025641026	-0.1941624365482233	0.5909694555112881
8466.827392578125	-2.991058820342923	1.394815562392506	28.89411796570773	3.481117032752695	1.200068182910485	-0.5068068855899569	3383.241025641025	3575.091575091575	-0.06025641025641026	-0.199238578680203	0.5856573705179282
8486.358642578125	-3.030993422000289	1.241303356220291	28.90065779997119	3.133882845320974	1.191843382843775	-0.4641363416541224	3389.066666666666	3572.161172161172	-0.05641025641025641	-0.1941624365482233	0.5856573705179282
8505.889892578125	-3.46818109628404	0.319785984169957	29.18189037159604	3.492254733843888	1.189042983850516	-0.1318751161968605	3370.133333333333	3569.230769230769	-0.04615384615384616	-0.1865482233502538	0.5869853917662682
8525.421142578125	-3.383772051318986	0.2760713102937139	29.62279486810144	3.484042085564523	1.572674910324948	-0.5335073676671609	3391.979487179487	3575.091575091575	-0.06794871794871794	-0.1852791878172589	0.5830013280212483
8544.952392578125	-3.474413760244653	0.9030040516932533	28.55862397553471	2.789573710701081	1.556225310191529	-0.4481662797954918	3391.979487179487	3575.091575091575	-0.05512820512820513	-0.1789340101522843	0.597609561752988
8564.483642578125	-3.625118651454657	0.7029082995076657	29.48813485453424	3.136807898132803	1.564450110258239	-0.4908368237313263	3399.261538461538	3576.556776556776	-0.04358974358974359	-0.184010152284264	0.6029216467463479
8584.014892578125	-3.024776147333405	0.6965623703452002	29.52238526665952	3.481117032752695	1.200068182910485	-0.5068068855899569	3399.261538461538	3576.556776556776	-0.05	-0.1903553299492386	0.5883134130146082
8603.546142578125	-2.948231031464335	0.3146364187020547	29.17689685356656	3.489329681032059	0.8164362564360523	-0.1051746341196566	3370.133333333333	3567.765567765568	-0.06282051282051282	-0.1789340101522843	0.5883134130146082
8623.077392578125	-3.631089697421862	0.6320159790114657	28.89103025781376	3.484042085564523	1.572674910324948	-0.5335073676671609	3394.892307692307	3573.626373626374	-0.0576923076923077	-0.1954314720812183	0.5922974767596281
8642.608642578125	-4.025988208107572	-0.02298267904212109	29.40117918924275	3.478191979940866	0.8274614554960214	-0.480106403512753	3384.697435897436	3572.161172161172	-0.06153846153846154	-0.1890862944162436	0.5909694555112881
8662.139892578125	-3.382956418751301	1.236785982938813	29.70435812486996	3.495179786655716	1.561649711264979	-0.1585755982740645	3374.502564102564	3569.230769230769	-0.05	-0.1865482233502538	0.6029216467463479
8681.671142578125	-3.228065639646761	-0.02888447318754128	29.19343603532397	3.136807898132803	1.564450110258239	-0.4908368237313263	3397.805128205128	3578.021978021978	-0.05512820512820513	-0.1865482233502538	0.593625498007968
8701.202392578125	-3.232543924122164	1.167946286440309	28.74560758778361	3.125670197041609	1.575475309318208	-0.8657685931244228	3394.892307692307	3573.626373626374	-0.05512820512820513	-0.1852791878172589	0.5883134130146082
8720.733642578125	-2.948046359939576	0.8529114389235863	29.19536400604245	3.486404628220231	0.443829529021589	-0.07847415204245273	3375.958974358974	3566.300366300366	-0.04358974358974359	-0.1928934010152284	0.593625498007968
8740.264892578125	-2.670827931691234	-0.2624637889918535	28.91720683087658	3.481117032752695	1.200068182910485	-0.5068068855899569	3383.241025641025	3575.091575091575	-0.06666666666666667	-0.1890862944162436	0.5869853917662682
8759.796142578125	-3.188408045276534	0.8172152026523755	29.15919547234667	3.489329681032059	0.8164362564360523	-0.1051746341196566	3362.851282051282	3566.300366300366	-0.04743589743589743	-0.2030456852791878	0.5922974767596281
8779.327392578125	-3.144995463236209	1.274906956330109	29.50045367637916	4.186723108707329	1.205492583983935	-0.2172162040685295	3364.307692307692	3563.369963369963	-0.06025641025641026	-0.1802030456852792	0.5869853917662682
8798.858642578125	-2.58815787691766	0.04173176337914419	29.18421230823401	3.806075818002029	1.230343381097132	-1.299340968311984	3390.523076923077	3575.091575091575	-0.05384615384615385	-0.1954314720812183	0.5869853917662682
8818.389892578125	-3.467688638884683	1.088519371427376	29.23113611153175	3.156158247503361	1.169792984723837	0.2857271971320704	3378.871794871795	3573.626373626374	-0.06153846153846154	-0.1852791878172589	0.5869853917662682
8837.921142578125	-3.31321337071085	-0.1382698801974261	28.678662928915	3.83656386846378	0.8246610565027619	-0.1478451780554912	3373.046153846154	3567.765567765568	-0.05384615384615385	-0.1890862944162436	0.596281540504648
8857.452392578125	-3.224095201864444	0.04402846157539586	29.59047981355563	3.492254733843888	1.189042983850516	-0.1318751161968605	3368.676923076923	3567.765567765568	-0.05128205128205128	-0.1814720812182741	0.5922974767596281
8876.983642578125	-3.151905256120938	-0.4488833836255452	28.80947438790623	3.481117032752695	1.200068182910485	-0.5068068855899569	3384.697435897436	3575.091575091575	-0.05512820512820513	-0.1890862944162436	0.596281540504648
8896.514892578125	-3.789566181965471	0.8628464591697412	29.04338180345286	3.136807898132803	1.564450110258239	-0.4908368237313263	3396.348717948718	3573.626373626374	-0.0576923076923077	-0.1865482233502538	0.6002656042496679
8916.046142578125	-2.66301017047644	0.1911787337196662	29.69898295235597	3.83656386846378	0.8246610565027619	-0.1478451780554912	3367.220512820513	3566.300366300366	-0.05641025641025641	-0.200507614213198	0.5922974767596281
8935.577392578125	-3.136731412503247	0.6127141112436643	30.32685874967528	3.125670197041609	1.575475309318208	-0.8657685931244228	3394.892307692307	3573.626373626374	-0.04871794871794872	-0.1916243654822335	0.5922974767596281
8955.108642578125	-2.912743935694913	0.588025221205708	28.72560643050872	3.145020546412167	1.180818183783806	-0.08920457226102602	3377.415384615385	3566.300366300366	-0.04871794871794872	-0.1903553299492386	0.5909694555112881
8974.639892578125	-3.707542477528554	0.7830794407653772	29.24575224714467	3.478191979940866	0.8274614554960214	-0.480106403512753	3383.241025641025	3573.626373626374	-0.05384615384615385	-0.1865482233502538	0.5922974767596281
8994.171142578125	-3.712513219403314	0.2111768131358087	28.7486780596686	3.125670197041609	1.575475309318208	-0.8657685931244228	3391.979487179487	3572.161172161172	-0.04102564102564103	-0.1941624365482233	0.596281540504648
9013.702392578125	-3.263445010360073	0.4283871527713655	29.65549896399274	3.481117032752695	1.200068182910485	-0.5068068855899569	3387.610256410256	3573.626373626374	-0.05512820512820513	-0.1802030456852792	0.5922974767596281
9033.233642578125	-3.226849885442098	0.9314260766042106	29.31501145579025	3.114532495950416	1.586500508378177	-1.240700362517519	3405.087179487179	3575.091575091575	-0.05384615384615385	-0.1916243654822335	0.5856573705179282
9052.764892578125	-2.742679312972682	0.3839522599485627	29.73206870273178	3.481117032752695	1.200068182910485	-0.5068068855899569	3387.610256410256	3573.626373626374	-0.05512820512820513	-0.1802030456852792	0.5803452855245683
9072.296142578125	-2.666026472047503	0.7326867367679774	29.39735279524975	3.503392434935081	1.178017784790547	0.2430566531962359	3377.415384615385	3572.161172161172	-0.04743589743589743	-0.200507614213198	0.594953519256308
9091.827392578125	-3.588662030180252	0.5522409581743619	29.13379698197483	2.781361062421717	1.939857236665962	-0.8497985312657921	3403.630769230769	3575.091575091575	-0.05	-0.1802030456852792	0.5843293492695882
9111.358642578125	-3.869266103049173	1.132574148695049	29.07338969508269	3.481117032752695	1.200068182910485	-0.5068068855899569	3383.241025641025	3573.626373626374	-0.0576923076923077	-0.2017766497461929	0.593625498007968
9130.889892578125	-2.913067110863241	0.3960439358180271	28.6932889136759	3.481117032752695	1.200068182910485	-0.5068068855899569	3383.241025641025	3573.626373626374	-0.04871794871794872	-0.1814720812182741	0.5830013280212483
9150.421142578125	-3.343344992262264	0.1983169037233473	29.66550077377368	3.122745144229781	1.202868581903744	-0.8390681110472189	3384.697435897436	3575.091575091575	-0.05384615384615385	-0.1865482233502538	0.5856573705179282
9169.952392578125	-3.147857871869972	1.431644142896363	29.21421281300284	3.469979331661501	1.211093381970454	-0.8817386549830533	3393.435897435897	3573.626373626374	-0.05512820512820513	-0.184010152284264	0.5856573705179282
9189.483642578125	-2.749142816339244	0.5443265521949441	29.08571836607559	3.136807898132803	1.564450110258239	-0.4908368237313263	3393.435897435897	3575.091575091575	-0.05641025641025641	-0.1878172588832487	0.6042496679946878
9209.014892578125	-2.90988152706115	0.4312880346394535	29.01184729388503	3.133882845320974	1.191843382843775	-0.4641363416541224	3399.261538461538	3578.021978021978	-0.04743589743589743	-0.1852791878172589	0.594953519256308
9228.546142578125	-2.947723184771248	1.044892724311267	29.22768152287526	3.83656386846378	0.8246610565027619	-0.1478451780554912	3362.851282051282	3564.835164835165	-0.05128205128205128	-0.1814720812182741	0.5909694555112881
9248.077392578125	-3.031039589881478	0.3567346011649079	28.89604101185222	2.770223361330523	1.950882435725931	-1.224730300658889	3406.54358974359	3573.626373626374	-0.05512820512820513	-0.1890862944162436	0.5909694555112881
9267.608642578125	-2.905711028460345	0.003998907975716948	29.42889715396557	3.492254733843888	1.189042983850516	-0.1318751161968605	3381.784615384615	3564.835164835165	-0.05128205128205128	-0.1890862944162436	0.5883134130146082
9287.139892578125	-3.308458078948308	0.9723118905070217	29.1541921051692	3.486404628220231	0.443829529021589	-0.07847415204245273	3371.589743589744	3566.300366300366	-0.05384615384615385	-0.1916243654822335	0.596281540504648
9306.671142578125	-3.508900551921631	1.128604942056231	29.10994480783696	3.136807898132803	1.564450110258239	-0.4908368237313263	3397.805128205128	3578.021978021978	-0.0576923076923077	-0.1865482233502538	0.597609561752988
9326.202392578125	-3.391851430527188	0.4765391756016906	28.8148569472812	3.481117032752695	1.200068182910485	-0.5068068855899569	3386.153846153846	3573.626373626374	-0.06538461538461539	-0.1890862944162436	0.5922974767596281
9345.733642578125	-2.752251453672686	0.3166970451324895	28.77485463273142	2.778436009609888	1.567250509251498	-0.8230980491885882	3403.630769230769	3575.091575091575	-0.05256410256410257	-0.1903553299492386	0.593625498007968
9365.264892578125	-3.751601409905534	0.941425116312282	28.83985900944656	3.481117032752695	1.200068182910485	-0.5068068855899569	3387.610256410256	3573.626373626374	-0.06025641025641026	-0.1954314720812183	0.5989375830013279
9384.796142578125	-3.070697184251705	0.5106349253249911	28.93028157482951	3.489329681032059	0.8164362564360523	-0.1051746341196566	3368.676923076923	3569.230769230769	-0.0576923076923077	-0.1903553299492386	0.5896414342629481
9404.327392578125	-3.229589179726021	0.7803466099848199	29.04108202739786	3.125670197041609	1.575475309318208	-0.8657685931244228	3390.523076923077	3575.091575091575	-0.06282051282051282	-0.1916243654822335	0.5909694555112881
9423.858642578125	-2.825903382320533	0.4649316469129692	29.40966176794668	3.828351220184416	1.208292982977194	-0.5494774295257915	3384.697435897436	3567.765567765568	-0.05897435897435897	-0.2055837563451776	0.5922974767596281
9443.389892578125	-3.308735086235447	0.6648993601747237	29.12649137645536	3.839488921275609	1.197267783917225	-0.1745456601326951	3371.589743589744	3569.230769230769	-0.05897435897435897	-0.1852791878172589	0.5922974767596281
9462.921142578125	-3.306642142288179	0.4320162560187528	29.33578577118213	3.831276272996244	1.580899710391658	-0.5761779116029954	3386.153846153846	3575.091575091575	-0.05641025641025641	-0.1865482233502538	0.5869853917662682
9482.452392578125	-3.391158912309343	0.7450705014324355	28.88410876906579	3.47290438447333	1.583700109384917	-0.9084391370602574	3394.892307692307	3573.626373626374	-0.05384615384615385	-0.182741116751269	0.596281540504648
9501.983642578125	-3.829885515966085	0.6712612942026683	29.01144840339155	3.48989219118818	2.317888365153875	-0.5869083318215687	3378.871794871795	3570.695970695971	-0.05641025641025641	-0.1789340101522843	0.5989375830013279
9521.514892578125	-3.820436489615921	0.0463331622043871	29.95635103840798	3.125670197041609	1.575475309318208	-0.8657685931244228	3397.805128205128	3576.556776556776	-0.06282051282051282	-0.1852791878172589	0.5909694555112881
9541.046142578125	-3.308827421997826	0.8957618500639579	29.11725780021742	3.478191979940866	0.8274614554960214	-0.480106403512753	3374.502564102564	3572.161172161172	-0.06538461538461539	-0.1967005076142132	0.594953519256308
9560.577392578125	-3.460825013881143	-0.07225904367235328	29.9174986118857	3.122745144229781	1.202868581903744	-0.8390681110472189	3394.892307692307	3573.626373626374	-0.06025641025641026	-0.1941624365482233	0.5909694555112881
9580.108642578125	-3.494496172990436	0.1140565193357243	30.55038270095647	3.481117032752695	1.200068182910485	-0.5068068855899569	3384.697435897436	3566.300366300366	-0.05	-0.1814720812182741	0.5856573705179282
9599.639892578125	-3.266030411706698	0.8925368696699182	29.39695882933026	4.186723108707329	1.205492583983935	-0.2172162040685295	3373.046153846154	3567.765567765568	-0.05	-0.1928934010152284	0.5909694555112881
9619.171142578125	-3.710666504155725	0.5939270153511282	28.93334958442751	3.125670197041609	1.575475309318208	-0.8657685931244228	3394.892307692307	3573.626373626374	-0.05128205128205128	-0.184010152284264	0.5896414342629481
9638.702392578125	-3.787457848724474	0.5914862733655646	29.25421512755262	3.481117032752695	1.200068182910485	-0.5068068855899569	3386.153846153846	3575.091575091575	-0.06538461538461539	-0.1903553299492386	0.594953519256308
9658.233642578125	-3.740428782657621	1.007063839714966	29.95712173423797	3.147945599223996	1.55342491119827	-0.1159050543382299	3380.328205128205	3566.300366300366	-0.05641025641025641	-0.1852791878172589	0.5909694555112881
9677.764892578125	-4.180309583344107	0.8190357561006236	29.96904166558941	2.77551095679806	1.194643781837035	-0.7963975671113843	3397.805128205128	3572.161172161172	-0.05256410256410257	-0.1903553299492386	0.5883134130146082
9697.296142578125	-2.946907552203562	1.005607396956367	29.30924477964378	3.475266927129038	0.454854728081558	-0.4534059214355491	3378.871794871795	3573.626373626374	-0.05256410256410257	-0.1979695431472081	0.5922974767596281
9716.827392578125	-3.028207959835175	0.2769515778950646	29.17920401648254	3.14265800375646	2.309663565087166	-0.5442377878857342	3384.697435897436	3572.161172161172	-0.05512820512820513	-0.1890862944162436	0.597609561752988
9736.358642578125	-2.713286377520305	-0.1057346048583385	28.67136224796953	3.83656386846378	0.8246610565027619	-0.1478451780554912	3377.415384615385	3566.300366300366	-0.06025641025641026	-0.1890862944162436	0.5869853917662682
9755.889892578125	-3.023498835953823	0.5029645935441297	29.65011640461777	3.481117032752695	1.200068182910485	-0.5068068855899569	3384.697435897436	3573.626373626374	-0.06153846153846154	-0.1852791878172589	0.5869853917662682
9775.421142578125	-3.987469421473359	0.6704210387650154	29.25305785266413	3.133882845320974	1.191843382843775	-0.4641363416541224	3391.979487179487	3576.556776556776	-0.06025641025641026	-0.1852791878172589	0.5909694555112881
9794.952392578125	-2.506857469286048	-0.2296124175595534	29.31425307139524	3.122745144229781	1.202868581903744	-0.8390681110472189	3396.348717948718	3573.626373626374	-0.05256410256410257	-0.1814720812182741	0.5856573705179282
9814.483642578125	-3.506761440093173	0.780290592955643	29.3238559906827	3.125670197041609	1.575475309318208	-0.8657685931244228	3406.54358974359	3575.091575091575	-0.05	-0.184010152284264	0.5869853917662682
9834.014892578125	-3.185899590398559	0.5454508939948514	29.41004096014419	3.436566228387922	1.244168979150361	-2.006533963162342	3391.979487179487	3570.695970695971	-0.05897435897435897	-0.1878172588832487	0.5989375830013279
9853.546142578125	-2.662456155902164	0.8060037943842618	29.75438440978364	3.83656386846378	0.8246610565027619	-0.1478451780554912	3365.764102564102	3566.300366300366	-0.04487179487179487	-0.2017766497461929	0.5830013280212483
9873.077392578125	-2.826626679125839	0.2733544843786357	29.33733208741611	3.484042085564523	1.572674910324948	-0.5335073676671609	3390.523076923077	3573.626373626374	-0.04358974358974359	-0.1916243654822335	0.5896414342629481
9892.608642578125	-3.707234691653955	1.013537807801264	29.27653083460448	3.839488921275609	1.197267783917225	-0.1745456601326951	3377.415384615385	3569.230769230769	-0.05897435897435897	-0.1789340101522843	0.596281540504648
9912.139892578125	-3.158107141494091	0.05738052060133975	28.18928585059088	3.839488921275609	1.197267783917225	-0.1745456601326951	3373.046153846154	3567.765567765568	-0.04615384615384616	-0.1852791878172589	0.597609561752988
9931.671142578125	-3.069727658746721	0.08657878148803389	29.02723412532794	3.125670197041609	1.575475309318208	-0.8657685931244228	3394.892307692307	3575.091575091575	-0.04487179487179487	-0.1802030456852792	0.593625498007968
9951.202392578125	-2.550824065900649	1.697870768098117	28.91759340993508	3.469979331661501	1.211093381970454	-0.8817386549830533	3387.610256410256	3575.091575091575	-0.05897435897435897	-0.1941624365482233	0.5869853917662682
9970.733642578125	-2.910558655985266	0.124279627160503	28.94413440147343	2.77551095679806	1.194643781837035	-0.7963975671113843	3393.435897435897	3572.161172161172	-0.0641025641025641	-0.184010152284264	0.5989375830013279
9990.264892578125	-3.623148821857229	0.77784184853734	29.68511781427707	2.783723605077424	0.8110118553626025	-0.394765315641084	3389.066666666666	3570.695970695971	-0.0576923076923077	-0.199238578680203	0.593625498007968
10009.79614257813	-3.103491153618393	0.5037568343853455	29.65088463816077	3.833638815651952	0.4520543290882984	-0.1211446959782873	3365.764102564102	3567.765567765568	-0.06153846153846154	-0.1954314720812183	0.593625498007968
10029.32739257813	-2.78739998498005	1.196812446368311	29.26000150199506	3.117457548762245	1.959107235792641	-1.267400844594723	3405.087179487179	3575.091575091575	-0.05641025641025641	-0.1865482233502538	0.6029216467463479
10048.85864257813	-3.148627336556467	0.355498225306647	29.1372663443533	3.83656386846378	0.8246610565027619	-0.1478451780554912	3368.676923076923	3567.765567765568	-0.06025641025641026	-0.1941624365482233	0.596281540504648
10068.38989257813	-3.82565346019036	1.090063840946109	29.43465398096405	3.119820091417952	0.8302618544892809	-0.8123676289700149	3387.610256410256	3573.626373626374	-0.06153846153846154	-0.182741116751269	0.5922974767596281
10087.92114257813	-2.901155797516291	0.6147827401068386	29.88442024837089	3.136807898132803	1.564450110258239	-0.4908368237313263	3389.066666666666	3573.626373626374	-0.06153846153846154	-0.1890862944162436	0.6002656042496679
10107.45239257813	-3.385218644929597	0.8929169852250469	29.47813550704029	3.136807898132803	1.564450110258239	-0.4908368237313263	3391.979487179487	3575.091575091575	-0.06025641025641026	-0.182741116751269	0.5856573705179282
10126.98364257813	-3.233559617508338	0.7074336752218828	28.6440382491662	3.136807898132803	1.564450110258239	-0.4908368237313263	3396.348717948718	3573.626373626374	-0.05384615384615385	-0.1916243654822335	0.5896414342629481
10146.51489257813	-3.624980147811088	0.3566145646738146	29.50198521889115	3.125670197041609	1.575475309318208	-0.8657685931244228	3386.153846153846	3575.091575091575	-0.05384615384615385	-0.1852791878172589	0.5909694555112881
10166.04614257813	-3.510362534825972	0.7839276986357697	28.96374651740283	3.828351220184416	1.208292982977194	-0.5494774295257915	3375.958974358974	3573.626373626374	-0.05641025641025641	-0.1979695431472081	0.597609561752988
10185.57739257813	-2.8707779472652	0.6625626498147744	28.92220527348006	3.133882845320974	1.191843382843775	-0.4641363416541224	3391.979487179487	3573.626373626374	-0.05512820512820513	-0.1814720812182741	0.5856573705179282
10205.10864257813	-2.705807180767569	1.194403714113706	29.41928192324312	3.481117032752695	1.200068182910485	-0.5068068855899569	3378.871794871795	3575.091575091575	-0.0576923076923077	-0.1890862944162436	0.596281540504648
10224.63989257813	-3.707588645409743	-0.1014893142900057	29.24113545902569	3.83656386846378	0.8246610565027619	-0.1478451780554912	3374.502564102564	3569.230769230769	-0.05641025641025641	-0.1789340101522843	0.596281540504648
10244.17114257813	-3.107784766569037	0.2388626142347274	29.2215233430963	3.122745144229781	1.202868581903744	-0.8390681110472189	3393.435897435897	3575.091575091575	-0.05256410256410257	-0.1890862944162436	0.5922974767596281
10263.70239257813	-3.669285308887748	1.13059354659201	29.0714691112252	3.136807898132803	1.564450110258239	-0.4908368237313263	3391.979487179487	3575.091575091575	-0.06282051282051282	-0.1865482233502538	0.5922974767596281
10283.23364257813	-3.670023994986784	0.9774934657058823	28.99760050132163	3.47290438447333	1.583700109384917	-0.9084391370602574	3394.892307692307	3573.626373626374	-0.04487179487179487	-0.1865482233502538	0.5896414342629481
10302.76489257813	-2.305768645976069	-0.001942898333401055	29.42313540239309	3.125670197041609	1.575475309318208	-0.8657685931244228	3402.174358974359	3576.556776556776	-0.05256410256410257	-0.1814720812182741	0.5909694555112881
10322.29614257813	-2.471247259166787	0.7359597317584545	28.87527408332133	3.847701569554974	0.8136358574427929	0.2270865913376052	3361.394871794872	3569.230769230769	-0.0576923076923077	-0.1967005076142132	0.5869853917662682
10341.82739257813	-3.21464617551428	0.4191003295771146	30.53538244857205	2.77551095679806	1.194643781837035	-0.7963975671113843	3397.805128205128	3573.626373626374	-0.05384615384615385	-0.184010152284264	0.5909694555112881
10361.35864257813	-3.300024745984318	0.8868711472903147	29.99752540156823	3.833638815651952	0.4520543290882984	-0.1211446959782873	3358.482051282051	3563.369963369963	-0.05512820512820513	-0.1954314720812183	0.5883134130146082
10380.88989257813	-3.064172123710224	0.1963523064857871	29.58278762897767	3.481117032752695	1.200068182910485	-0.5068068855899569	3389.066666666666	3576.556776556776	-0.0641025641025641	-0.1941624365482233	0.594953519256308
10400.42114257813	-2.828996630360245	1.198825058202309	29.10033696397551	3.484042085564523	1.572674910324948	-0.5335073676671609	3399.261538461538	3578.021978021978	-0.0576923076923077	-0.1852791878172589	0.593625498007968
10419.95239257813	-2.425772511766654	0.03772254457662821	29.42274882333459	2.789573710701081	1.556225310191529	-0.4481662797954918	3394.892307692307	3573.626373626374	-0.05512820512820513	-0.182741116751269	0.5883134130146082
10439.48364257813	-3.026869091280672	0.9294454745011713	29.31309087193275	3.136807898132803	1.564450110258239	-0.4908368237313263	3397.805128205128	3576.556776556776	-0.05256410256410257	-0.182741116751269	0.6002656042496679
10459.01489257813	-3.188115648695665	1.086150651336468	29.18843513043349	3.481117032752695	1.200068182910485	-0.5068068855899569	3386.153846153846	3572.161172161172	-0.0576923076923077	-0.1916243654822335	0.596281540504648
10478.54614257813	-3.549512282503112	0.6680843284050658	29.04877174968882	3.489329681032059	0.8164362564360523	-0.1051746341196566	3365.764102564102	3567.765567765568	-0.05384615384615385	-0.1865482233502538	0.5922974767596281
10498.07739257813	-2.670781763810044	0.6221049660635295	28.92182361899555	4.55038259269778	0.4464535311017792	0.5433777549362365	3351.2	3564.835164835165	-0.05512820512820513	-0.1890862944162436	0.5830013280212483
10517.60864257813	-3.072313060093346	0.5507284983865863	28.76869399066547	3.481117032752695	1.200068182910485	-0.5068068855899569	3378.871794871795	3575.091575091575	-0.06025641025641026	-0.1865482233502538	0.597609561752988
10537.13989257813	-3.069081308410064	0.4705413522633957	29.09186915899356	3.130957792509145	0.8192366554293119	-0.4374358595769185	3386.153846153846	3576.556776556776	-0.05641025641025641	-0.1967005076142132	0.5989375830013279
10556.67114257813	-2.831243467244812	0.8164789788403366	28.87565327551883	3.136807898132803	1.564450110258239	-0.4908368237313263	3390.523076923077	3575.091575091575	-0.04743589743589743	-0.182741116751269	0.6002656042496679
10576.20239257813	-2.595129226977309	0.4718497500163126	28.48707730226912	3.125670197041609	1.575475309318208	-0.8657685931244228	3396.348717948718	3576.556776556776	-0.05641025641025641	-0.1941624365482233	0.596281540504648
10595.73364257813	-3.232436199066055	-0.101393285097131	28.75638009339454	3.145020546412167	1.180818183783806	-0.08920457226102602	3381.784615384615	3569.230769230769	-0.03846153846153846	-0.1916243654822335	0.5869853917662682
10615.26489257813	-3.055538729927744	0.6107095018424062	30.44612700722557	3.495179786655716	1.561649711264979	-0.1585755982740645	3373.046153846154	3566.300366300366	-0.06025641025641026	-0.1852791878172589	0.5856573705179282
10634.79614257813	-3.467919478290631	0.6656755961504606	29.20805217093689	3.83656386846378	0.8246610565027619	-0.1478451780554912	3367.220512820513	3566.300366300366	-0.06153846153846154	-0.1928934010152284	0.593625498007968
10654.32739257813	-3.750601105813091	0.4404148091789135	28.93988941869097	3.136807898132803	1.564450110258239	-0.4908368237313263	3397.805128205128	3576.556776556776	-0.06025641025641026	-0.1954314720812183	0.5909694555112881
10673.85864257813	-3.709604642888361	0.9390083816249369	29.03953571116388	3.492254733843888	1.189042983850516	-0.1318751161968605	3378.871794871795	3567.765567765568	-0.05641025641025641	-0.1941624365482233	0.5909694555112881
10693.38989257813	-2.737770128272841	1.109763214170954	30.22298717271589	3.833638815651952	0.4520543290882984	-0.1211446959782873	3375.958974358974	3569.230769230769	-0.0641025641025641	-0.1979695431472081	0.5843293492695882
10712.92114257813	-3.2622754240366	0.5041289475077346	29.77245759634005	3.484042085564523	1.572674910324948	-0.5335073676671609	3397.805128205128	3578.021978021978	-0.05256410256410257	-0.1928934010152284	0.5856573705179282
10732.45239257813	-3.187130733896951	0.623617425851305	29.28692661030491	3.83656386846378	0.8246610565027619	-0.1478451780554912	3361.394871794872	3564.835164835165	-0.06025641025641026	-0.182741116751269	0.5883134130146082
10751.98364257813	-2.708715757282522	0.4665721456245776	29.12842427174784	3.125670197041609	1.575475309318208	-0.8657685931244228	3403.630769230769	3575.091575091575	-0.06025641025641026	-0.1814720812182741	0.5922974767596281
10771.51489257813	-3.425260971643072	1.008744350590272	29.47390283569282	3.481117032752695	1.200068182910485	-0.5068068855899569	3387.610256410256	3573.626373626374	-0.05512820512820513	-0.1852791878172589	0.594953519256308
10791.04614257813	-3.471674465960729	1.054083518312644	28.8325534039271	3.839488921275609	1.197267783917225	-0.1745456601326951	3373.046153846154	3567.765567765568	-0.05897435897435897	-0.1878172588832487	0.593625498007968
10810.57739257813	-2.913005553688322	0.2421356092252045	28.69944463116787	3.484042085564523	1.572674910324948	-0.5335073676671609	3399.261538461538	3572.161172161172	-0.0641025641025641	-0.2017766497461929	0.5922974767596281
10830.10864257813	-2.829350584116033	1.083797936111039	29.06494158839672	3.839488921275609	1.197267783917225	-0.1745456601326951	3368.676923076923	3564.835164835165	-0.06025641025641026	-0.1954314720812183	0.5922974767596281
10849.63989257813	-2.632647709519079	1.277435725075808	28.73522904809216	3.839488921275609	1.197267783917225	-0.1745456601326951	3383.241025641025	3570.695970695971	-0.06282051282051282	-0.1789340101522843	0.5922974767596281
10869.17114257813	-3.067803997030482	0.2769435754623251	29.21960029695181	3.133882845320974	1.191843382843775	-0.4641363416541224	3386.153846153846	3572.161172161172	-0.05641025641025641	-0.184010152284264	0.5989375830013279
10888.70239257813	-3.272170739904932	0.2448924473039804	28.78292600950689	2.786648657889253	1.183618582777066	-0.4214657977182879	3390.523076923077	3575.091575091575	-0.04871794871794872	-0.1789340101522843	0.5909694555112881
10908.23364257813	-3.548281139004719	0.5899177965486122	29.1718860995281	3.469979331661501	1.211093381970454	-0.8817386549830533	3387.610256410256	3573.626373626374	-0.05897435897435897	-0.1890862944162436	0.5989375830013279
10927.76489257813	-2.600669372720076	0.3235991433703538	27.93306272799238	2.789573710701081	1.556225310191529	-0.4481662797954918	3391.979487179487	3575.091575091575	-0.05256410256410257	-0.1890862944162436	0.597609561752988
10947.29614257813	-3.058985931723244	0.2295757910404763	30.10140682767561	4.192010704174866	0.4492539300950388	0.2111165294789748	3371.589743589744	3572.161172161172	-0.0576923076923077	-0.1903553299492386	0.596281540504648
10966.82739257813	-3.90740015734014	0.4772433896827712	29.25998426598609	3.133882845320974	1.191843382843775	-0.4641363416541224	3394.892307692307	3576.556776556776	-0.05641025641025641	-0.1878172588832487	0.5909694555112881
10986.35864257813	-2.672320693183035	0.4698131308840964	28.76793068169646	3.481117032752695	1.200068182910485	-0.5068068855899569	3387.610256410256	3576.556776556776	-0.06025641025641026	-0.1954314720812183	0.5816733067729083
11005.88989257813	-3.385264812810787	0.008348230169663906	29.47351871892132	3.839488921275609	1.197267783917225	-0.1745456601326951	3370.133333333333	3566.300366300366	-0.05512820512820513	-0.1890862944162436	0.5922974767596281
11025.42114257813	-3.591155095764497	0.7855281851836804	28.88449042355029	3.136807898132803	1.564450110258239	-0.4908368237313263	3394.892307692307	3575.091575091575	-0.05512820512820513	-0.1852791878172589	0.5909694555112881
11044.95239257813	-3.389004411187155	0.3582790706836417	29.09955888128452	3.133882845320974	1.191843382843775	-0.4641363416541224	3384.697435897436	3572.161172161172	-0.05641025641025641	-0.182741116751269	0.5776892430278884
11064.48364257813	-3.028962035227941	1.162328578657143	29.10379647720599	3.128595249853438	1.948082036732671	-0.8924690752016267	3405.087179487179	3575.091575091575	-0.05	-0.1890862944162436	0.596281540504648
11084.01489257813	-2.865991876915198	0.696190257222811	29.40081230848023	3.492254733843888	1.189042983850516	-0.1318751161968605	3383.241025641025	3567.765567765568	-0.05384615384615385	-0.1789340101522843	0.5909694555112881
11103.54614257813	-2.907696247351502	0.9675424405942483	29.23037526484974	3.83656386846378	0.8246610565027619	-0.1478451780554912	3368.676923076923	3567.765567765568	-0.05256410256410257	-0.1954314720812183	0.594953519256308
11123.07739257813	-3.54472621215311	0.7017119358131024	29.527378784689	3.147945599223996	1.55342491119827	-0.1159050543382299	3399.261538461538	3567.765567765568	-0.05128205128205128	-0.1928934010152284	0.5856573705179282
11142.60864257813	-3.58721543656964	0.9353952832430289	29.27845634303597	3.828351220184416	1.208292982977194	-0.5494774295257915	3384.697435897436	3573.626373626374	-0.06153846153846154	-0.1890862944162436	0.5989375830013279
11162.13989257813	-3.226695992504799	0.5466552601221542	29.33040074952016	3.492254733843888	1.189042983850516	-0.1318751161968605	3380.328205128205	3570.695970695971	-0.04487179487179487	-0.1852791878172589	0.5909694555112881
11181.67114257813	-3.342606306163228	0.3514169846094751	29.73936938367725	3.481117032752695	1.200068182910485	-0.5068068855899569	3387.610256410256	3575.091575091575	-0.06666666666666667	-0.1865482233502538	0.5883134130146082
11201.20239257813	-3.221094289587112	0.5409975401752902	29.89057104128886	3.831276272996244	1.580899710391658	-0.5761779116029954	3393.435897435897	3573.626373626374	-0.05897435897435897	-0.1890862944162436	0.5989375830013279
11220.73364257813	-3.39162059112124	-0.1006170491213944	28.83794088787607	3.133882845320974	1.191843382843775	-0.4641363416541224	3393.435897435897	3575.091575091575	-0.06538461538461539	-0.1954314720812183	0.594953519256308
11240.26489257813	-3.463533529577608	0.6997073264118445	29.6466470422393	3.484042085564523	1.572674910324948	-0.5335073676671609	3391.979487179487	3575.091575091575	-0.05384615384615385	-0.1890862944162436	0.5896414342629481
11259.79614257813	-2.745741782424934	1.040891507941491	29.42582175750658	3.492254733843888	1.189042983850516	-0.1318751161968605	3373.046153846154	3567.765567765568	-0.04871794871794872	-0.1852791878172589	0.5922974767596281
11279.32739257813	-3.948627459670817	0.5558060419598327	29.13725403291831	4.192010704174866	0.4492539300950388	0.2111165294789748	3358.482051282051	3569.230769230769	-0.05641025641025641	-0.199238578680203	0.5856573705179282
11298.85864257813	-2.594821441102711	-0.2976918829478008	28.51785588972894	3.828351220184416	1.208292982977194	-0.5494774295257915	3381.784615384615	3575.091575091575	-0.04615384615384616	-0.184010152284264	0.5909694555112881
11318.38989257813	-3.391005019372043	1.360299684950379	28.8994980627957	3.495179786655716	1.561649711264979	-0.1585755982740645	3373.046153846154	3567.765567765568	-0.04743589743589743	-0.1789340101522843	0.5989375830013279
11337.92114257813	-3.237607001759304	0.8269061486999738	28.23929982406959	3.136807898132803	1.564450110258239	-0.4908368237313263	3384.697435897436	3575.091575091575	-0.04615384615384616	-0.1878172588832487	0.596281540504648
11357.45239257813	-3.181652145329103	0.9257763590900865	29.83478546708968	3.139732950944631	1.937056837672702	-0.5175373058085302	3383.241025641025	3570.695970695971	-0.04871794871794872	-0.1916243654822335	0.5989375830013279
11376.98364257813	-3.185176293593253	0.7370280565291849	29.48237064067476	3.125670197041609	1.575475309318208	-0.8657685931244228	3403.630769230769	3575.091575091575	-0.06025641025641026	-0.1890862944162436	0.594953519256308
11396.51489257813	-3.468519660746098	1.166281780430482	29.14803392539024	3.125670197041609	1.575475309318208	-0.8657685931244228	3397.805128205128	3576.556776556776	-0.05256410256410257	-0.1903553299492386	0.5909694555112881
11416.04614257813	-2.905264738942177	0.8881635401777526	29.47352610578231	3.142095493600339	0.8082114563693429	-0.06250409018382208	3370.133333333333	3564.835164835165	-0.0576923076923077	-0.1954314720812183	0.6015936254980079
11435.57739257813	-3.057185384356845	0.7277572382004129	30.28146156431555	3.122745144229781	1.202868581903744	-0.8390681110472189	3390.523076923077	3575.091575091575	-0.05512820512820513	-0.1928934010152284	0.5883134130146082
11455.10864257813	-3.191609018372354	0.8204481854791548	28.83909816276455	3.481117032752695	1.200068182910485	-0.5068068855899569	3380.328205128205	3573.626373626374	-0.05256410256410257	-0.184010152284264	0.593625498007968
11474.63989257813	-3.22994313348181	0.6653194878935504	29.00568665181907	3.842413974087438	1.569874511331689	-0.201246142209899	3377.415384615385	3569.230769230769	-0.06538461538461539	-0.1865482233502538	0.5909694555112881
11494.17114257813	-3.35408671928574	0.05531989417090488	28.59132807142602	4.531032243327222	0.8411106566361808	-0.2331862659271602	3358.482051282051	3567.765567765568	-0.0576923076923077	-0.1763959390862944	0.5909694555112881
11513.70239257813	-3.715114010043669	0.7138036116825668	28.48859899563313	3.47290438447333	1.583700109384917	-0.9084391370602574	3393.435897435897	3570.695970695971	-0.05128205128205128	-0.1916243654822335	0.596281540504648
11533.23364257813	-2.948923549682181	1.04610509287131	29.10764503178197	3.125670197041609	1.575475309318208	-0.8657685931244228	3396.348717948718	3573.626373626374	-0.05641025641025641	-0.1916243654822335	0.5843293492695882
11552.76489257813	-3.349962388566124	-0.2565379875482146	29.00376114338759	3.136807898132803	1.564450110258239	-0.4908368237313263	3394.892307692307	3575.091575091575	-0.06025641025641026	-0.1928934010152284	0.5883134130146082
11572.29614257813	-3.224510712795152	1.082909666076949	29.54892872048487	3.489329681032059	0.8164362564360523	-0.1051746341196566	3373.046153846154	3567.765567765568	-0.05641025641025641	-0.1916243654822335	0.596281540504648
11591.82739257813	-3.711866869066658	-0.4048606160888294	28.81331309333422	3.147945599223996	1.55342491119827	-0.1159050543382299	3383.241025641025	3567.765567765568	-0.05641025641025641	-0.1878172588832487	0.5816733067729083
11611.35864257813	-3.617762569051761	0.3108632716653555	30.2237430948239	3.842413974087438	1.569874511331689	-0.201246142209899	3378.871794871795	3567.765567765568	-0.05641025641025641	-0.1852791878172589	0.6029216467463479
11630.88989257813	-3.829162219160779	0.8628384567370018	29.08377808392212	3.50631748774691	1.55062451220501	0.2163561711190319	3380.328205128205	3575.091575091575	-0.05256410256410257	-0.1802030456852792	0.596281540504648
11650.42114257813	-3.307827117905382	0.3947515429305893	29.21728820946183	3.128595249853438	1.948082036732671	-0.8924690752016267	3396.348717948718	3576.556776556776	-0.04615384615384616	-0.1878172588832487	0.5896414342629481
11669.95239257813	-2.705484005599241	0.3863849995013869	29.45159944007593	3.122745144229781	1.202868581903744	-0.8390681110472189	3393.435897435897	3573.626373626374	-0.06025641025641026	-0.1865482233502538	0.5883134130146082
11689.48364257813	-2.916745152064689	-0.4079335502608177	28.32548479353108	3.484042085564523	1.572674910324948	-0.5335073676671609	3397.805128205128	3573.626373626374	-0.06025641025641026	-0.1878172588832487	0.5830013280212483
11709.01489257813	-2.34477989000964	-1.464080003397956	29.52201099903601	4.194935756986695	0.8218606575095022	0.1844160474017708	3362.851282051282	3569.230769230769	-0.05128205128205128	-0.1903553299492386	0.5922974767596281
11728.54614257813	-3.063725834192057	1.080516938687823	29.6274165807944	3.486404628220231	0.443829529021589	-0.07847415204245273	3368.676923076923	3567.765567765568	-0.04871794871794872	-0.1967005076142132	0.5922974767596281
11748.07739257813	-2.145276163953842	0.7267289255933804	29.4723836046158	3.47290438447333	1.583700109384917	-0.9084391370602574	3405.087179487179	3573.626373626374	-0.04615384615384616	-0.1928934010152284	0.5883134130146082
11767.60864257813	-3.404486040679444	1.066223208778546	27.55139593205565	3.850626622366802	1.186242584857256	0.2003861092604014	3381.784615384615	3573.626373626374	-0.05897435897435897	-0.1903553299492386	0.5869853917662682
11787.13989257813	-2.649667652812609	0.8315489447253501	31.03323471873911	3.498104839467545	1.934256438679443	-0.1852760803512684	3380.328205128205	3567.765567765568	-0.05256410256410257	-0.1776649746192893	0.593625498007968
11806.67114257813	-2.023641033027887	-0.3915071720264499	29.63589669721133	3.820138571905051	1.591924909451627	-0.9511096809960917	3390.523076923077	3578.021978021978	-0.04615384615384616	-0.184010152284264	0.597609561752988
11826.20239257813	-2.63246303799432	0.8157107452973396	28.75369620056805	2.77551095679806	1.194643781837035	-0.7963975671113843	3390.523076923077	3575.091575091575	-0.05384615384615385	-0.182741116751269	0.5830013280212483
11845.73364257813	-3.550651090239125	-0.4846116296277145	28.9348909760875	2.44233952326936	1.54800051012482	-0.4054957358596573	3396.348717948718	3573.626373626374	-0.06282051282051282	-0.1941624365482233	0.593625498007968
11865.26489257813	-3.228481150577468	1.009996731314012	29.15188494225321	3.481117032752695	1.200068182910485	-0.5068068855899569	3384.697435897436	3575.091575091575	-0.05	-0.1865482233502538	0.5869853917662682
