Time Stamp	Accelerometer X	Accelerometer Y	Accelerometer Z	Gyroscope X	Gyroscope Y	Gyroscope Z	VSenseReg	VSenseBatt	Magnetometer X	Magnetometer Y	Magnetometer Z
126.007080078125	-4.222752639879447	0.9372878585859332	29.72473601205535	-30.46372807139081	128.0521936896741	-1.231097837227551	3396.348717948718	3589.743589743589	-0.07820512820512821	-0.166243654822335	0.6095617529880477
145.538330078125	-3.662975698458485	1.354990070827685	29.70243015415147	0.4011226603881001	2.583396294788046	0.8952213897030272	3394.892307692307	3579.487179487179	-0.07179487179487179	-0.1687817258883249	0.6108897742363877
165.069580078125	-3.794506145252773	0.2139896682437615	28.54938547472277	3.848264079711095	2.315087966160615	-0.2546471063643068	3391.979487179487	3575.091575091575	-0.05897435897435897	-0.166243654822335	0.5830013280212483
184.600830078125	-3.392944070382012	0.2084119726242932	28.70559296179884	2.450552171548725	1.164368583650387	-0.003863484389356964	3397.805128205128	3573.626373626374	-0.06282051282051282	-0.1687817258883249	0.597609561752988
204.132080078125	-3.31156671628175	0.7446823834445671	28.84332837182503	3.500467382123253	0.8054110573760833	0.2697571352734398	3383.241025641025	3576.556776556776	-0.06538461538461539	-0.1700507614213198	0.596281540504648
223.663330078125	-2.981025000831022	0.3077583277624091	29.89749991689781	2.800711411792275	1.54520011113156	-0.07323451040239537	3394.892307692307	3575.091575091575	-0.05897435897435897	-0.1637055837563452	0.6069057104913678
243.194580078125	-3.266969158624222	0.2396388502104639	29.30308413757782	2.797786358980446	1.172593383717097	-0.04653402832519149	3383.241025641025	3576.556776556776	-0.05512820512820513	-0.166243654822335	0.594953519256308
262.725830078125	-2.941428963635715	0.3077663301951486	29.85710363642855	3.508680030402617	0.4217791309016509	0.6713893867437401	3365.764102564102	3573.626373626374	-0.07307692307692308	-0.1687817258883249	0.6055776892430278
282.257080078125	-3.156845219408239	0.9022598254484747	28.31547805917614	2.44233952326936	1.54800051012482	-0.4054957358596573	3406.54358974359	3579.487179487179	-0.06794871794871794	-0.1687817258883249	0.6108897742363877
301.788330078125	-4.099086122181143	0.7400769834029546	30.09138778188569	3.159083300315189	1.542399712138301	0.2590267150548665	3387.610256410256	3576.556776556776	-0.06923076923076924	-0.1624365482233502	0.596281540504648
321.319580078125	-2.909189008843304	0.6998193604701983	29.08109911566962	2.44233952326936	1.54800051012482	-0.4054957358596573	3402.174358974359	3579.487179487179	-0.05897435897435897	-0.166243654822335	0.6029216467463479
340.850830078125	-2.706484309691685	0.8873953066347555	29.35156903083152	2.786648657889253	1.183618582777066	-0.4214657977182879	3402.174358974359	3578.021978021978	-0.05384615384615385	-0.1814720812182741	0.6148738379814077
360.382080078125	-3.381863778896477	0.5049131859162108	29.81362211035231	3.167295948594553	1.158767785663868	0.6606589665251668	3368.676923076923	3573.626373626374	-0.07564102564102564	-0.1687817258883249	0.596281540504648
379.913330078125	-2.716210343328988	0.2049109083007388	28.37896566710126	2.797786358980446	1.172593383717097	-0.04653402832519149	3378.871794871795	3573.626373626374	-0.06666666666666667	-0.1713197969543147	0.596281540504648
399.444580078125	-3.055431004871635	0.3413699303049665	30.45689951283651	2.808924060071639	1.161568184657128	0.3283977410679049	3381.784615384615	3576.556776556776	-0.06794871794871794	-0.1675126903553299	0.6029216467463479
418.975830078125	-3.104060557486399	0.9274088553689552	29.5939442513601	3.142095493600339	0.8082114563693429	-0.06250409018382208	3380.328205128205	3567.765567765568	-0.07820512820512821	-0.1675126903553299	0.5922974767596281
438.507080078125	-3.226095810049332	0.04604907584213291	29.3904189950668	2.461689872639918	1.153343384590418	0.3710682850037395	3386.153846153846	3578.021978021978	-0.07435897435897436	-0.1649746192893401	0.6015936254980079
458.038330078125	-3.262075363218111	0.003926886081060954	29.79246367818893	2.467539978263575	1.898556839419346	0.3176673208493316	3400.717948717948	3583.882783882784	-0.06666666666666667	-0.1637055837563452	0.5989375830013279
477.569580078125	-3.706896127191897	0.1670420115407392	29.31038728081029	2.803636464604103	1.917806838546024	-0.09993499247959931	3397.805128205128	3573.626373626374	-0.07307692307692308	-0.1725888324873096	0.6002656042496679
497.100830078125	-3.073882768053796	0.4753908265035647	28.61172319462039	2.797786358980446	1.172593383717097	-0.04653402832519149	3399.261538461538	3573.626373626374	-0.06666666666666667	-0.1598984771573604	0.6042496679946878
516.632080078125	-3.108692734899102	1.509010431478862	29.13072651008983	2.79249876351291	1.928832037605993	-0.4748667618726957	3422.564102564103	3582.417582417582	-0.07051282051282051	-0.1649746192893401	0.6108897742363877
536.163330078125	-3.035317813538393	1.053363299366084	28.46821864616074	2.797786358980446	1.172593383717097	-0.04653402832519149	3390.523076923077	3572.161172161172	-0.06666666666666667	-0.1713197969543147	0.6002656042496679
555.694580078125	-2.344595218484881	1.074195016823576	29.5404781515119	2.800711411792275	1.54520011113156	-0.07323451040239537	3384.697435897436	3573.626373626374	-0.05641025641025641	-0.1624365482233502	0.5896414342629481
575.225830078125	-2.913082500156971	0.4345210174662328	28.69174998430291	2.44233952326936	1.54800051012482	-0.4054957358596573	3405.087179487179	3582.417582417582	-0.06538461538461539	-0.1700507614213198	0.6042496679946878
594.757080078125	-3.031485879399645	0.4725699689628723	28.85141206003548	2.456402277172382	1.909582038479315	-0.05726444854376478	3393.435897435897	3573.626373626374	-0.06794871794871794	-0.1687817258883249	0.5989375830013279
614.288330078125	-3.467319295835165	0.1650694118704393	29.26807041648353	2.467539978263575	1.898556839419346	0.3176673208493316	3402.174358974359	3582.417582417582	-0.06282051282051282	-0.1687817258883249	0.6095617529880477
633.819580078125	-3.305518723845895	1.623189295699739	29.44812761541047	2.453477224360554	1.536975311064851	-0.03056396646656084	3399.261538461538	3575.091575091575	-0.06153846153846154	-0.1598984771573604	0.6002656042496679
653.350830078125	-3.264891603970685	1.045232827702698	29.51083960293159	2.808924060071639	1.161568184657128	0.3283977410679049	3384.697435897436	3578.021978021978	-0.06538461538461539	-0.1675126903553299	0.5909694555112881
672.882080078125	-3.346530576064355	1.163072804901921	29.34694239356456	2.789573710701081	1.556225310191529	-0.4481662797954918	3405.087179487179	3580.952380952381	-0.07179487179487179	-0.166243654822335	0.596281540504648
692.413330078125	-3.072343838680805	0.6276826616829978	28.76561613191948	2.44233952326936	1.54800051012482	-0.4054957358596573	3409.45641025641	3582.417582417582	-0.06923076923076924	-0.1751269035532995	0.596281540504648
711.944580078125	-4.319088387485181	0.8007408098215704	28.09116125148199	3.156158247503361	1.169792984723837	0.2857271971320704	3371.589743589744	3575.091575091575	-0.05384615384615385	-0.1878172588832487	0.5896414342629481
731.475830078125	-2.227192143334651	0.5371563724603048	29.28078566653493	2.79249876351291	1.928832037605993	-0.4748667618726957	3400.717948717948	3578.021978021978	-0.05641025641025641	-0.1763959390862944	0.6042496679946878
751.007080078125	-2.944214425800829	0.2721181085203748	29.57855741991719	3.156158247503361	1.169792984723837	0.2857271971320704	3383.241025641025	3576.556776556776	-0.05897435897435897	-0.1802030456852792	0.6095617529880477
770.538330078125	-2.669273613024513	0.8513509645393735	29.07263869754867	2.79249876351291	1.928832037605993	-0.4748667618726957	3394.892307692307	3576.556776556776	-0.0641025641025641	-0.166243654822335	0.5883134130146082
790.069580078125	-2.865037740703943	0.3106111950340596	29.49622592960568	2.44233952326936	1.54800051012482	-0.4054957358596573	3410.91282051282	3582.417582417582	-0.06923076923076924	-0.1675126903553299	0.6029216467463479
809.600830078125	-2.670489367229176	0.8910404147476216	28.95106327708238	3.130957792509145	0.8192366554293119	-0.4374358595769185	3393.435897435897	3578.021978021978	-0.07564102564102564	-0.1687817258883249	0.5909694555112881
829.132080078125	-4.024295385797283	0.7445383396552552	29.57046142027176	2.445264576081189	1.920607237539284	-0.4321962179368612	3403.630769230769	3580.952380952381	-0.06666666666666667	-0.1675126903553299	0.593625498007968
848.663330078125	-3.106538233776915	1.122219000730068	29.34617662230856	3.147945599223996	1.55342491119827	-0.1159050543382299	3391.979487179487	3573.626373626374	-0.06794871794871794	-0.166243654822335	0.6002656042496679
868.194580078125	-3.059355274772762	1.153025750597412	30.06447252272383	2.797786358980446	1.172593383717097	-0.04653402832519149	3386.153846153846	3573.626373626374	-0.0641025641025641	-0.1789340101522843	0.5909694555112881
887.725830078125	-2.942029146091181	0.8083725144751695	29.7970853908819	2.789573710701081	1.556225310191529	-0.4481662797954918	3406.54358974359	3579.487179487179	-0.06282051282051282	-0.1675126903553299	0.5922974767596281
907.257080078125	-3.233174885165091	0.745506634016741	28.68251148349097	2.811849112883468	1.534174912071591	0.301697258990701	3396.348717948718	3580.952380952381	-0.07051282051282051	-0.1802030456852792	0.593625498007968
926.788330078125	-2.900755675879314	-0.3856213827465087	29.92443241206865	2.464614925451747	1.525950112004882	0.3443678029265356	3402.174358974359	3580.952380952381	-0.06666666666666667	-0.1738578680203046	0.5869853917662682
946.319580078125	-2.821440487138859	0.306577968933325	29.85595128611405	3.145020546412167	1.180818183783806	-0.08920457226102602	3390.523076923077	3573.626373626374	-0.06538461538461539	-0.1751269035532995	0.6029216467463479
965.850830078125	-3.183545028457882	0.6584574018193838	29.6454971542118	2.417139068275145	1.197444180830295	-1.128658792568646	3400.717948717948	3580.952380952381	-0.06666666666666667	-0.166243654822335	0.594953519256308
985.382080078125	-3.662744859052536	0.7778338461046004	29.72551409474633	3.508680030402617	0.4217791309016509	0.6713893867437401	3359.938461538462	3575.091575091575	-0.06538461538461539	-0.1725888324873096	0.5856573705179282
1004.913330078125	-3.302856376030621	0.9666541705601579	29.71436239693789	2.44233952326936	1.54800051012482	-0.4054957358596573	3405.087179487179	3579.487179487179	-0.06923076923076924	-0.1700507614213198	0.5909694555112881
1024.444580078125	-3.549373778859542	0.3217905935712149	29.06262211404574	2.831199462254026	1.13951778653719	1.078261279854098	3375.958974358974	3576.556776556776	-0.06538461538461539	-0.1738578680203046	0.5989375830013279
1043.975830078125	-3.787888748948911	0.6688445595153234	29.21112510510887	2.09510533583764	1.53977571005811	-0.3628251919238227	3412.36923076923	3579.487179487179	-0.0641025641025641	-0.1738578680203046	0.5896414342629481
1063.507080078125	-3.194856159349366	-0.06088758674944875	28.51438406506347	2.44233952326936	1.54800051012482	-0.4054957358596573	3397.805128205128	3579.487179487179	-0.05897435897435897	-0.1687817258883249	0.597609561752988
1083.038330078125	-3.706665287785949	-0.4101142131823459	29.33347122140515	3.156158247503361	1.169792984723837	0.2857271971320704	3383.241025641025	3578.021978021978	-0.05641025641025641	-0.1751269035532995	0.6029216467463479
1102.569580078125	-2.989027433570575	0.3158407848293575	29.09725664294253	2.789573710701081	1.556225310191529	-0.4481662797954918	3409.45641025641	3582.417582417582	-0.06666666666666667	-0.1637055837563452	0.594953519256308
1122.100830078125	-2.706038020173518	0.771559938836791	29.39619798264826	3.489329681032059	0.8164362564360523	-0.1051746341196566	3383.241025641025	3575.091575091575	-0.0576923076923077	-0.1624365482233502	0.6015936254980079
1141.632080078125	-3.589646944978966	1.014774183659525	29.0353055021034	3.142095493600339	0.8082114563693429	-0.06250409018382208	3373.046153846154	3563.369963369963	-0.07435897435897436	-0.1675126903553299	0.5909694555112881
1161.163330078125	-3.904106848481939	0.2431479169667579	29.58931515180614	2.800711411792275	1.54520011113156	-0.07323451040239537	3390.523076923077	3573.626373626374	-0.06666666666666667	-0.1586294416243655	0.596281540504648
1180.694580078125	-2.870824115146389	0.7779938947593913	28.91758848536108	3.156158247503361	1.169792984723837	0.2857271971320704	3384.697435897436	3580.952380952381	-0.06794871794871794	-0.1700507614213198	0.6029216467463479
1200.225830078125	-3.188885113382161	0.01000473374675132	29.11148866178395	3.136807898132803	1.564450110258239	-0.4908368237313263	3403.630769230769	3579.487179487179	-0.06923076923076924	-0.166243654822335	0.6015936254980079
1219.757080078125	-2.903802756037836	0.2328407835982139	29.61972439621644	3.167295948594553	1.158767785663868	0.6606589665251668	3371.589743589744	3575.091575091575	-0.06153846153846154	-0.1713197969543147	0.597609561752988
1239.288330078125	-3.988100382516285	1.247981386341448	29.1899617483715	2.789573710701081	1.556225310191529	-0.4481662797954918	3408	3585.347985347985	-0.06794871794871794	-0.1713197969543147	0.6002656042496679
1258.819580078125	-2.708361803526734	0.5815992677158471	29.16381964732663	2.789573710701081	1.556225310191529	-0.4481662797954918	3394.892307692307	3578.021978021978	-0.06666666666666667	-0.1713197969543147	0.596281540504648
1278.350830078125	-2.868300270974684	0.4677525044536616	29.1699729025316	2.797786358980446	1.172593383717097	-0.04653402832519149	3393.435897435897	3576.556776556776	-0.07564102564102564	-0.1548223350253807	0.597609561752988
1297.882080078125	-3.152397713520295	0.7823832291170361	28.76022864797052	2.453477224360554	1.536975311064851	-0.03056396646656084	3387.610256410256	3575.091575091575	-0.06153846153846154	-0.1789340101522843	0.5869853917662682
1317.413330078125	-3.307242324743646	-0.06737755970122608	29.27576752563548	2.789573710701081	1.556225310191529	-0.4481662797954918	3402.174358974359	3578.021978021978	-0.07307692307692308	-0.166243654822335	0.6015936254980079
1336.944580078125	-3.22980462983824	0.3190257530596994	29.01953701617599	3.136807898132803	1.564450110258239	-0.4908368237313263	3389.066666666666	3579.487179487179	-0.06923076923076924	-0.166243654822335	0.5922974767596281
1356.475830078125	-2.784537576346287	1.040075259802057	29.54624236537138	2.44233952326936	1.54800051012482	-0.4054957358596573	3403.630769230769	3580.952380952381	-0.08205128205128205	-0.1725888324873096	0.594953519256308
1376.007080078125	-2.742386916391814	0.652887708632655	29.76130836081861	2.453477224360554	1.536975311064851	-0.03056396646656084	3397.805128205128	3578.021978021978	-0.07051282051282051	-0.1789340101522843	0.594953519256308
1395.538330078125	-3.152490049282675	1.01324571900627	28.75099507173257	2.797786358980446	1.172593383717097	-0.04653402832519149	3380.328205128205	3570.695970695971	-0.05384615384615385	-0.1725888324873096	0.597609561752988
1415.069580078125	-3.383787440612716	0.3145483919419196	29.62125593872845	2.789573710701081	1.556225310191529	-0.4481662797954918	3409.45641025641	3583.882783882784	-0.06538461538461539	-0.1751269035532995	0.594953519256308
1434.600830078125	-2.705022326787343	0.2320725500552168	29.49776732126566	2.797786358980446	1.172593383717097	-0.04653402832519149	3386.153846153846	3573.626373626374	-0.07051282051282051	-0.1700507614213198	0.6108897742363877
1454.132080078125	-2.743956624352265	0.5775500367496333	29.60433756477353	2.434126874989996	1.931632436599253	-0.8071279873299576	3413.825641025641	3580.952380952381	-0.0576923076923077	-0.1637055837563452	0.596281540504648
1473.663330078125	-3.268892820340461	1.049274056236173	29.11071796595395	2.786648657889253	1.183618582777066	-0.4214657977182879	3402.174358974359	3579.487179487179	-0.06923076923076924	-0.1548223350253807	0.593625498007968
1493.194580078125	-3.669208362419098	0.9382081383509817	29.07916375809015	3.156158247503361	1.169792984723837	0.2857271971320704	3383.241025641025	3578.021978021978	-0.06025641025641026	-0.1649746192893401	0.594953519256308
1512.725830078125	-3.106922966120163	1.08414604193521	29.30770338798379	2.439414470457532	1.175393782710356	-0.3787952537824534	3400.717948717948	3580.952380952381	-0.07692307692307693	-0.1700507614213198	0.596281540504648
1532.257080078125	-3.149612251355181	0.8180314507918097	29.03877486448187	3.153233194691532	0.7971862573093739	0.3124276792092743	3371.589743589744	3575.091575091575	-0.07307692307692308	-0.1776649746192893	0.6015936254980079
1551.788330078125	-2.784829972927155	0.7711398111179645	29.51700270728455	2.797786358980446	1.172593383717097	-0.04653402832519149	3383.241025641025	3575.091575091575	-0.07307692307692308	-0.1751269035532995	0.596281540504648
1571.319580078125	-2.82638045042616	-0.3422788219926549	29.36195495738396	2.797786358980446	1.172593383717097	-0.04653402832519149	3389.066666666666	3575.091575091575	-0.07179487179487179	-0.1687817258883249	0.594953519256308
1590.850830078125	-3.548004131717581	0.8973303268809103	29.19958682824193	2.808924060071639	1.161568184657128	0.3283977410679049	3391.979487179487	3573.626373626374	-0.06666666666666667	-0.1725888324873096	0.5989375830013279
1610.382080078125	-3.550189411427227	0.3610759209261154	28.98105885727722	3.153233194691532	0.7971862573093739	0.3124276792092743	3367.220512820513	3575.091575091575	-0.06923076923076924	-0.1675126903553299	0.597609561752988
1629.913330078125	-2.463752673120321	-0.002379030917706693	29.62473268796791	2.789573710701081	1.556225310191529	-0.4481662797954918	3402.174358974359	3579.487179487179	-0.06666666666666667	-0.166243654822335	0.5922974767596281
1649.444580078125	-3.664283788425527	0.6255420109251675	29.57162115744724	3.145020546412167	1.180818183783806	-0.08920457226102602	3384.697435897436	3573.626373626374	-0.06538461538461539	-0.1725888324873096	0.597609561752988
1668.975830078125	-3.144195219962253	1.274098710623414	29.58047800377468	3.86997697173736	0.7915854593228549	0.9769501301237981	3365.764102564102	3575.091575091575	-0.07051282051282051	-0.1637055837563452	0.5922974767596281
1688.507080078125	-3.231051162630363	0.4356693665643587	28.89488373696372	2.445264576081189	1.920607237539284	-0.4321962179368612	3409.45641025641	3582.417582417582	-0.06794871794871794	-0.1675126903553299	0.593625498007968
1708.038330078125	-2.948400313695364	0.7378843168323169	29.15996863046366	3.147945599223996	1.55342491119827	-0.1159050543382299	3393.435897435897	3575.091575091575	-0.07435897435897436	-0.1649746192893401	0.6082337317397077
1727.569580078125	-3.23329799951493	0.05332328720238644	28.67020004850705	3.153233194691532	0.7971862573093739	0.3124276792092743	3389.066666666666	3578.021978021978	-0.05384615384615385	-0.1687817258883249	0.593625498007968
1747.100830078125	-2.502717749272702	0.4200526190731213	29.7282250727298	2.439414470457532	1.175393782710356	-0.3787952537824534	3397.805128205128	3578.021978021978	-0.0641025641025641	-0.1687817258883249	0.594953519256308
1766.632080078125	-3.387650153338923	0.9722958856415427	29.23498466610772	2.789573710701081	1.556225310191529	-0.4481662797954918	3400.717948717948	3578.021978021978	-0.06538461538461539	-0.166243654822335	0.597609561752988
1786.163330078125	-2.905080067417418	0.4264385603992845	29.4919932582582	2.797786358980446	1.172593383717097	-0.04653402832519149	3383.241025641025	3575.091575091575	-0.0576923076923077	-0.1624365482233502	0.6055776892430278
1805.694580078125	-3.744276106090098	0.6263342517663832	29.57238939099024	3.153233194691532	0.7971862573093739	0.3124276792092743	3383.241025641025	3578.021978021978	-0.07820512820512821	-0.1611675126903553	0.593625498007968
1825.225830078125	-3.188331098807884	0.6248297944113472	29.16689011921162	2.453477224360554	1.536975311064851	-0.03056396646656084	3402.174358974359	3576.556776556776	-0.07051282051282051	-0.1713197969543147	0.6042496679946878
1844.757080078125	-2.748619580352428	1.236105776155951	29.13804196475728	3.503392434935081	1.178017784790547	0.2430566531962359	3375.958974358974	3575.091575091575	-0.07820512820512821	-0.1713197969543147	0.5816733067729083
1864.288330078125	-2.266711234061309	0.3447629617865369	29.32887659386915	2.44233952326936	1.54800051012482	-0.4054957358596573	3408	3580.952380952381	-0.06666666666666667	-0.1687817258883249	0.5989375830013279
1883.819580078125	-3.629566157342601	0.8227848958391043	29.04338426573986	3.500467382123253	0.8054110573760833	0.2697571352734398	3384.697435897436	3576.556776556776	-0.06025641025641026	-0.1700507614213198	0.5922974767596281
1903.350830078125	-2.796572004043076	-0.8708468913011094	28.34279959569247	1.420549820500877	2.630121093108113	0.01734621910933093	3389.066666666666	3572.161172161172	-0.06666666666666667	-0.1700507614213198	0.5989375830013279
1922.882080078125	-3.720177087680809	0.3727634739422323	27.98229123191911	1.403562013786026	1.895932837339155	-0.3041845861293576	3413.825641025641	3580.952380952381	-0.06538461538461539	-0.1700507614213198	0.5909694555112881
1942.413330078125	-3.149796922879941	0.2797564305702779	29.02030771200598	3.139732950944631	1.937056837672702	-0.5175373058085302	3394.892307692307	3579.487179487179	-0.06666666666666667	-0.1637055837563452	0.593625498007968
1961.944580078125	-3.390343279741657	0.7057851740775349	28.96567202583431	3.156158247503361	1.169792984723837	0.2857271971320704	3387.610256410256	3576.556776556776	-0.0576923076923077	-0.1751269035532995	0.594953519256308
1981.475830078125	-2.829966155865229	0.622881202039266	29.00338441347708	2.800711411792275	1.54520011113156	-0.07323451040239537	3389.066666666666	3573.626373626374	-0.07179487179487179	-0.1751269035532995	0.5883134130146082
2001.007080078125	-3.341698337833163	0.08126916736534062	29.83016621668371	2.789573710701081	1.556225310191529	-0.4481662797954918	3408	3579.487179487179	-0.06794871794871794	-0.1713197969543147	0.5909694555112881
2020.538330078125	-2.984210584633114	0.2725142289409826	29.57894153668869	2.445264576081189	1.920607237539284	-0.4321962179368612	3422.564102564103	3582.417582417582	-0.06538461538461539	-0.1637055837563452	0.594953519256308
2040.069580078125	-3.469443018369892	0.4749066793228218	29.05569816301078	3.142095493600339	0.8082114563693429	-0.06250409018382208	3378.871794871795	3573.626373626374	-0.06025641025641026	-0.1802030456852792	0.594953519256308
2059.600830078125	-3.19073182862975	0.6272545315314317	28.92681713702504	3.145020546412167	1.180818183783806	-0.08920457226102602	3384.697435897436	3575.091575091575	-0.05384615384615385	-0.166243654822335	0.6002656042496679
2079.132080078125	-2.512382225735085	0.5836598941462818	28.7617774264915	2.786648657889253	1.183618582777066	-0.4214657977182879	3393.435897435897	3580.952380952381	-0.07051282051282051	-0.1763959390862944	0.596281540504648
2098.663330078125	-3.232189970366377	0.2829734085315782	28.7810029633624	2.448189628893017	2.293213964953746	-0.4588967000140651	3408	3582.417582417582	-0.06153846153846154	-0.1713197969543147	0.5989375830013279
2118.194580078125	-2.790462454432301	0.8537516943612395	28.95375455676987	3.492254733843888	1.189042983850516	-0.1318751161968605	3375.958974358974	3575.091575091575	-0.07051282051282051	-0.1713197969543147	0.597609561752988
2137.725830078125	-2.821194258439181	0.6909446625620341	29.88057415608191	2.789573710701081	1.556225310191529	-0.4481662797954918	3405.087179487179	3579.487179487179	-0.05641025641025641	-0.1802030456852792	0.593625498007968
2157.257080078125	-2.745541721606446	1.540689446514817	29.44582783935547	3.847701569554974	0.8136358574427929	0.2270865913376052	3377.415384615385	3576.556776556776	-0.06794871794871794	-0.1637055837563452	0.5869853917662682
2176.788330078125	-3.542171589393945	0.3145163822109613	29.7828410606055	2.453477224360554	1.536975311064851	-0.03056396646656084	3394.892307692307	3575.091575091575	-0.06923076923076924	-0.1751269035532995	0.593625498007968
2196.319580078125	-3.392605505919954	1.361916176363768	28.73944940800465	2.456402277172382	1.909582038479315	-0.05726444854376478	3399.261538461538	3573.626373626374	-0.07051282051282051	-0.1675126903553299	0.5922974767596281
2215.850830078125	-3.662406294590479	0.9313380498440756	29.75937054095214	3.500467382123253	0.8054110573760833	0.2697571352734398	3383.241025641025	3578.021978021978	-0.0641025641025641	-0.1751269035532995	0.5989375830013279
2235.382080078125	-4.266011328982472	0.09482528842614307	29.39886710175277	2.434126874989996	1.931632436599253	-0.8071279873299576	3418.194871794872	3579.487179487179	-0.06666666666666667	-0.1738578680203046	0.5896414342629481
2254.913330078125	-3.512178471486101	0.3242233331240389	28.7821528513899	3.167295948594553	1.158767785663868	0.6606589665251668	3377.415384615385	3575.091575091575	-0.06153846153846154	-0.1751269035532995	0.5896414342629481
2274.444580078125	-2.464706809331576	1.383200031271045	29.52931906684247	3.145020546412167	1.180818183783806	-0.08920457226102602	3383.241025641025	3575.091575091575	-0.07051282051282051	-0.1637055837563452	0.597609561752988
2293.975830078125	-3.102167674357621	0.1947278126396578	29.78323256423798	3.136807898132803	1.564450110258239	-0.4908368237313263	3399.261538461538	3579.487179487179	-0.0641025641025641	-0.1814720812182741	0.594953519256308
2313.507080078125	-2.868792728374042	0.699019117196243	29.12072716259589	2.789573710701081	1.556225310191529	-0.4481662797954918	3403.630769230769	3579.487179487179	-0.05897435897435897	-0.1624365482233502	0.6082337317397077
2333.038330078125	-2.791262697706257	0.8545599400679345	28.87373022937434	2.098030388649468	1.912382437472574	-0.3895256740010267	3424.020512820513	3582.417582417582	-0.06282051282051282	-0.1573604060913706	0.597609561752988
2352.569580078125	-3.31501391807725	1.363548672642637	28.49860819227506	2.797786358980446	1.172593383717097	-0.04653402832519149	3387.610256410256	3572.161172161172	-0.06666666666666667	-0.1713197969543147	0.594953519256308
2372.100830078125	-3.988146550397475	0.3634126312860648	29.18534496025253	3.145020546412167	1.180818183783806	-0.08920457226102602	3387.610256410256	3576.556776556776	-0.06538461538461539	-0.1675126903553299	0.6042496679946878
2391.632080078125	-3.429831591880856	0.4364376001073557	29.01684081191451	2.44233952326936	1.54800051012482	-0.4054957358596573	3403.630769230769	3579.487179487179	-0.07435897435897436	-0.1687817258883249	0.6029216467463479
2411.163330078125	-3.512778653941568	0.8248295174040599	28.72213460584325	2.439414470457532	1.175393782710356	-0.3787952537824534	3408	3582.417582417582	-0.07051282051282051	-0.1738578680203046	0.6108897742363877
2430.694580078125	-3.181990709791161	0.7722721553506111	29.80092902088388	3.503392434935081	1.178017784790547	0.2430566531962359	3384.697435897436	3579.487179487179	-0.05897435897435897	-0.1649746192893401	0.596281540504648
2450.225830078125	-2.824949246109279	0.07935258472421769	29.50507538907212	2.789573710701081	1.556225310191529	-0.4481662797954918	3410.91282051282	3582.417582417582	-0.06794871794871794	-0.1814720812182741	0.593625498007968
2469.757080078125	-3.269323720564898	1.126632342385932	29.06762794351021	2.789573710701081	1.556225310191529	-0.4481662797954918	3403.630769230769	3580.952380952381	-0.06153846153846154	-0.1738578680203046	0.597609561752988
2489.288330078125	-3.463610476046257	-0.1079072653471271	29.63895239537434	2.789573710701081	1.556225310191529	-0.4481662797954918	3409.45641025641	3583.882783882784	-0.07307692307692308	-0.1611675126903553	0.593625498007968
2508.819580078125	-2.663748856575476	0.03807865283353829	29.62511434245241	2.778436009609888	1.567250509251498	-0.8230980491885882	3406.54358974359	3579.487179487179	-0.06794871794871794	-0.1814720812182741	0.6042496679946878
2528.350830078125	-3.302748650974512	0.6973145990227181	29.72513490254883	3.153233194691532	0.7971862573093739	0.3124276792092743	3378.871794871795	3572.161172161172	-0.06538461538461539	-0.1802030456852792	0.597609561752988
2547.882080078125	-3.347069201344902	0.5097706625891194	29.29307986550988	2.445264576081189	1.920607237539284	-0.4321962179368612	3416.738461538461	3580.952380952381	-0.06666666666666667	-0.1624365482233502	0.594953519256308
2567.413330078125	-3.782610221199553	0.4712055541807785	29.73897788004476	2.797786358980446	1.172593383717097	-0.04653402832519149	3389.066666666666	3572.161172161172	-0.06153846153846154	-0.1649746192893401	0.5869853917662682
2586.944580078125	-3.510454870588351	1.014790188525004	28.95451294116488	3.503392434935081	1.178017784790547	0.2430566531962359	3387.610256410256	3576.556776556776	-0.05897435897435897	-0.166243654822335	0.6002656042496679
2606.475830078125	-3.380663413985544	1.503700817356169	29.9336586014456	2.44233952326936	1.54800051012482	-0.4054957358596573	3402.174358974359	3580.952380952381	-0.07179487179487179	-0.1738578680203046	0.6055776892430278
2626.007080078125	-3.106615180245564	1.314604408971096	29.33848197544361	3.119820091417952	0.8302618544892809	-0.8123676289700149	3400.717948717948	3578.021978021978	-0.07435897435897436	-0.1725888324873096	0.6029216467463479
2645.538330078125	-2.665395511004576	0.155126389191545	29.46044889954238	2.445264576081189	1.920607237539284	-0.4321962179368612	3408	3582.417582417582	-0.07307692307692308	-0.1687817258883249	0.6015936254980079
2665.069580078125	-2.583818096085826	0.1911947385851452	29.61819039141745	3.136807898132803	1.564450110258239	-0.4908368237313263	3403.630769230769	3582.417582417582	-0.06538461538461539	-0.1687817258883249	0.593625498007968
2684.600830078125	-3.226572878154959	1.238838606936509	29.34271218450408	3.145020546412167	1.180818183783806	-0.08920457226102602	3377.415384615385	3573.626373626374	-0.06794871794871794	-0.1802030456852792	0.5869853917662682
2704.132080078125	-2.90812714757594	1.044900726744007	29.187285242406	2.800711411792275	1.54520011113156	-0.07323451040239537	3390.523076923077	3575.091575091575	-0.06666666666666667	-0.1675126903553299	0.5922974767596281
2723.663330078125	-3.378770530856765	0.7710197746268711	30.12294691432349	2.789573710701081	1.556225310191529	-0.4481662797954918	3403.630769230769	3576.556776556776	-0.06282051282051282	-0.1738578680203046	0.596281540504648
2743.194580078125	-3.393005627556931	1.362320299217116	28.69943724430688	3.145020546412167	1.180818183783806	-0.08920457226102602	3381.784615384615	3572.161172161172	-0.07307692307692308	-0.1700507614213198	0.6015936254980079
2762.725830078125	-3.381909946777667	0.6203444308608279	29.80900532223334	2.797786358980446	1.172593383717097	-0.04653402832519149	3387.610256410256	3567.765567765568	-0.0641025641025641	-0.166243654822335	0.5869853917662682
2782.257080078125	-3.387742489101303	1.203158375530777	29.22575108986978	2.789573710701081	1.556225310191529	-0.4481662797954918	3403.630769230769	3579.487179487179	-0.06025641025641026	-0.166243654822335	0.5896414342629481
2801.788330078125	-3.386234338315772	0.4324043740066211	29.37656616842289	2.109168089740662	1.901357238412605	-0.01459390460793025	3399.261538461538	3575.091575091575	-0.0641025641025641	-0.1675126903553299	0.5989375830013279
2821.319580078125	-3.26558412218853	0.7767015018719536	29.441587781147	2.44233952326936	1.54800051012482	-0.4054957358596573	3406.54358974359	3579.487179487179	-0.06923076923076924	-0.1611675126903553	0.5856573705179282
2840.850830078125	-2.625891809571649	0.3859968815135185	29.41081904283517	3.153233194691532	0.7971862573093739	0.3124276792092743	3373.046153846154	3575.091575091575	-0.06666666666666667	-0.1624365482233502	0.6002656042496679
2860.382080078125	-2.71756460117722	0.5908940933428377	28.24353988227805	2.797786358980446	1.172593383717097	-0.04653402832519149	3389.066666666666	3573.626373626374	-0.05384615384615385	-0.1713197969543147	0.6015936254980079
2879.913330078125	-3.185499468761581	0.5450467711415039	29.45005312384195	2.786648657889253	1.183618582777066	-0.4214657977182879	3403.630769230769	3578.021978021978	-0.07179487179487179	-0.1738578680203046	0.5989375830013279
2899.444580078125	-3.751447516968235	0.5566542998302253	28.85524830317647	2.453477224360554	1.536975311064851	-0.03056396646656084	3380.328205128205	3575.091575091575	-0.05897435897435897	-0.1713197969543147	0.6002656042496679
2918.975830078125	-3.989608533301817	1.018735387865603	29.03914666981839	3.500467382123253	0.8054110573760833	0.2697571352734398	3370.133333333333	3575.091575091575	-0.06282051282051282	-0.166243654822335	0.5830013280212483
2938.507080078125	-3.344114456948759	1.122170986133631	29.58855430512414	3.495179786655716	1.561649711264979	-0.1585755982740645	3393.435897435897	3573.626373626374	-0.0576923076923077	-0.1649746192893401	0.5922974767596281
2958.038330078125	-3.182683228009007	0.5037408295198664	29.73167719909929	3.136807898132803	1.564450110258239	-0.4908368237313263	3405.087179487179	3579.487179487179	-0.06794871794871794	-0.1713197969543147	0.594953519256308
2977.569580078125	-3.269308331271168	1.088155260737726	29.0691668728832	2.800711411792275	1.54520011113156	-0.07323451040239537	3389.066666666666	3572.161172161172	-0.06282051282051282	-0.1763959390862944	0.593625498007968
2997.100830078125	-2.710885647698439	0.8918406580215771	28.91143523015612	2.797786358980446	1.172593383717097	-0.04653402832519149	3383.241025641025	3573.626373626374	-0.06923076923076924	-0.1675126903553299	0.5869853917662682
3016.632080078125	-2.509996885206949	0.6197122386744032	29.00031147930509	2.44233952326936	1.54800051012482	-0.4054957358596573	3402.174358974359	3580.952380952381	-0.07051282051282051	-0.1751269035532995	0.5989375830013279
3036.163330078125	-2.836398880644332	0.706301330989236	28.36011193556687	3.492254733843888	1.189042983850516	-0.1318751161968605	3389.066666666666	3573.626373626374	-0.06666666666666667	-0.1725888324873096	0.5989375830013279
3055.694580078125	-2.55416354264004	0.04739748575874758	28.58364573599605	2.800711411792275	1.54520011113156	-0.07323451040239537	3380.328205128205	3573.626373626374	-0.07051282051282051	-0.1713197969543147	0.6055776892430278
3075.225830078125	-3.906630692653644	1.553389307272488	29.33693073463563	3.156158247503361	1.169792984723837	0.2857271971320704	3381.784615384615	3575.091575091575	-0.07307692307692308	-0.166243654822335	0.5909694555112881
3094.757080078125	-3.519472996714078	0.5623600343735264	28.0527003285922	3.147945599223996	1.55342491119827	-0.1159050543382299	3391.979487179487	3573.626373626374	-0.06282051282051282	-0.1700507614213198	0.6042496679946878
3114.288330078125	-3.025868787188229	0.4284351673678029	29.41312128117717	2.44233952326936	1.54800051012482	-0.4054957358596573	3403.630769230769	3580.952380952381	-0.07051282051282051	-0.1687817258883249	0.594953519256308
3133.819580078125	-2.669042773618565	0.2741947398162888	29.09572263814353	2.431201822178167	1.559025709184789	-0.7804275052527536	3400.717948717948	3578.021978021978	-0.07692307692307693	-0.1789340101522843	0.5989375830013279
3153.350830078125	-3.224402987739042	0.813570094539509	29.55970122609581	3.145020546412167	1.180818183783806	-0.08920457226102602	3380.328205128205	3572.161172161172	-0.06153846153846154	-0.1649746192893401	0.5896414342629481
3172.882080078125	-2.426742037271638	0.4617786884135854	29.32579627283617	2.778436009609888	1.567250509251498	-0.8230980491885882	3415.282051282051	3579.487179487179	-0.06538461538461539	-0.1637055837563452	0.5830013280212483
3192.413330078125	-2.624198987261358	0.1535179002108949	29.58010127386417	2.417139068275145	1.197444180830295	-1.128658792568646	3400.717948717948	3580.952380952381	-0.0641025641025641	-0.1725888324873096	0.593625498007968
3211.944580078125	-2.706822874153743	0.7338911028952802	29.31771258462572	2.805999007259811	0.7889614572426644	0.3550982231451089	3383.241025641025	3579.487179487179	-0.05897435897435897	-0.1687817258883249	0.5856573705179282
3231.475830078125	-2.987734732897263	0.08376592638008112	29.22652671027377	2.778436009609888	1.567250509251498	-0.8230980491885882	3403.630769230769	3580.952380952381	-0.05897435897435897	-0.1763959390862944	0.5909694555112881
3251.007080078125	-2.987873236540832	1.430059661213932	29.21267634591685	2.797786358980446	1.172593383717097	-0.04653402832519149	3393.435897435897	3573.626373626374	-0.06538461538461539	-0.1725888324873096	0.5922974767596281
3270.538330078125	-3.829962462434735	-0.1363532975563032	29.0037537565266	2.44233952326936	1.54800051012482	-0.4054957358596573	3400.717948717948	3580.952380952381	-0.07051282051282051	-0.1687817258883249	0.594953519256308
3290.069580078125	-2.066884332837183	0.7275531761655543	29.31156671628175	2.800711411792275	1.54520011113156	-0.07323451040239537	3390.523076923077	3572.161172161172	-0.07051282051282051	-0.1687817258883249	0.596281540504648
3309.600830078125	-3.062310019168905	0.540625427052901	29.76899808310957	2.797786358980446	1.172593383717097	-0.04653402832519149	3375.958974358974	3570.695970695971	-0.06666666666666667	-0.1763959390862944	0.5869853917662682
3329.132080078125	-3.427784815814777	0.3189857408960017	29.2215184185223	2.789573710701081	1.556225310191529	-0.4481662797954918	3403.630769230769	3579.487179487179	-0.06025641025641026	-0.166243654822335	0.5909694555112881
3348.663330078125	-3.657835674352695	0.5036448003269918	30.21643256473044	3.142095493600339	0.8082114563693429	-0.06250409018382208	3389.066666666666	3573.626373626374	-0.05897435897435897	-0.1751269035532995	0.594953519256308
3368.194580078125	-3.218693559765246	0.5385728030552057	30.13064402347544	3.142095493600339	0.8082114563693429	-0.06250409018382208	3387.610256410256	3573.626373626374	-0.07564102564102564	-0.1675126903553299	0.593625498007968
3387.725830078125	-3.622410135758194	-0.06905807057653218	29.75898642418064	2.797786358980446	1.172593383717097	-0.04653402832519149	3390.523076923077	3573.626373626374	-0.0641025641025641	-0.1776649746192893	0.5922974767596281
3407.257080078125	-3.269908513726635	0.5887614450177467	29.00914862733655	2.789573710701081	1.556225310191529	-0.4481662797954918	3402.174358974359	3579.487179487179	-0.06025641025641026	-0.166243654822335	0.5989375830013279
3426.788330078125	-3.076283497875662	1.477815563623649	28.37165021243381	2.789573710701081	1.556225310191529	-0.4481662797954918	3405.087179487179	3580.952380952381	-0.06282051282051282	-0.166243654822335	0.597609561752988
3446.319580078125	-3.06825028654865	0.3927789432602895	29.17497134513507	2.789573710701081	1.556225310191529	-0.4481662797954918	3402.174358974359	3578.021978021978	-0.06794871794871794	-0.1637055837563452	0.5922974767596281
3465.850830078125	-3.661036647448517	1.506877783153771	29.89633525514833	3.492254733843888	1.189042983850516	-0.1318751161968605	3378.871794871795	3572.161172161172	-0.06666666666666667	-0.1637055837563452	0.5909694555112881
3485.382080078125	-2.710039236543294	0.7756011673702652	28.99607634567062	3.136807898132803	1.564450110258239	-0.4908368237313263	3408	3582.417582417582	-0.0641025641025641	-0.1725888324873096	0.5989375830013279
3504.913330078125	-3.313659660229018	0.9775654876005382	28.63403397709826	2.797786358980446	1.172593383717097	-0.04653402832519149	3396.348717948718	3576.556776556776	-0.06666666666666667	-0.1725888324873096	0.596281540504648
3524.444580078125	-3.104676129235596	0.466492121297182	29.53238707644047	3.153233194691532	0.7971862573093739	0.3124276792092743	3384.697435897436	3576.556776556776	-0.06282051282051282	-0.1713197969543147	0.597609561752988
3543.975830078125	-2.694680721400845	0.3754736824610066	30.53192785991556	2.797786358980446	1.172593383717097	-0.04653402832519149	3380.328205128205	3572.161172161172	-0.06153846153846154	-0.1700507614213198	0.597609561752988
3563.507080078125	-3.142948687170131	1.157455097118755	29.70513128298694	3.514530136026274	1.166992585730578	0.6179884225893323	3378.871794871795	3578.021978021978	-0.0576923076923077	-0.1789340101522843	0.5922974767596281
3583.038330078125	-3.870712696659785	0.7494198236263824	28.92873033402154	3.136807898132803	1.564450110258239	-0.4908368237313263	3402.174358974359	3580.952380952381	-0.07051282051282051	-0.1814720812182741	0.6015936254980079
3602.569580078125	-3.307673224968083	1.009980726448533	29.23267750319173	2.789573710701081	1.556225310191529	-0.4481662797954918	3403.630769230769	3580.952380952381	-0.07692307692307693	-0.1713197969543147	0.6002656042496679
3622.100830078125	-3.029162096046429	0.6625306400838162	29.08379039535711	2.797786358980446	1.172593383717097	-0.04653402832519149	3377.415384615385	3570.695970695971	-0.06666666666666667	-0.1700507614213198	0.6042496679946878
3641.632080078125	-3.267600119667148	0.8171991977868964	29.23998803328519	2.800711411792275	1.54520011113156	-0.07323451040239537	3387.610256410256	3572.161172161172	-0.07179487179487179	-0.1687817258883249	0.594953519256308
3661.163330078125	-2.830381666795937	-0.3382375934591808	28.96183332040632	3.142095493600339	0.8082114563693429	-0.06250409018382208	3387.610256410256	3573.626373626374	-0.05512820512820513	-0.1675126903553299	0.594953519256308
3680.694580078125	-2.549669868870906	0.8120896444826918	29.03301311290939	2.461689872639918	1.153343384590418	0.3710682850037395	3389.066666666666	3580.952380952381	-0.07692307692307693	-0.1637055837563452	0.5869853917662682
3700.225830078125	-3.342914092037826	0.1209586175735886	29.70859079621743	2.800711411792275	1.54520011113156	-0.07323451040239537	3391.979487179487	3573.626373626374	-0.06794871794871794	-0.1713197969543147	0.5922974767596281
3719.757080078125	-2.829442919878412	0.3146604260002733	29.05570801215877	3.139732950944631	1.937056837672702	-0.5175373058085302	3403.630769230769	3579.487179487179	-0.0641025641025641	-0.1713197969543147	0.5896414342629481
3739.288330078125	-3.30476464845313	0.737812294937661	29.52353515468702	2.789573710701081	1.556225310191529	-0.4481662797954918	3409.45641025641	3582.417582417582	-0.07051282051282051	-0.1700507614213198	0.5869853917662682
3758.819580078125	-3.351347425001816	0.2063993607902956	28.8652574998184	3.136807898132803	1.564450110258239	-0.4908368237313263	3403.630769230769	3580.952380952381	-0.06666666666666667	-0.1789340101522843	0.6015936254980079
3778.350830078125	-3.624410743943082	0.9329625436902049	29.55892560569182	3.492254733843888	1.189042983850516	-0.1318751161968605	3381.784615384615	3572.161172161172	-0.07692307692307693	-0.166243654822335	0.5909694555112881
3797.882080078125	-3.386634459952749	0.4328084968599685	29.33655400472512	3.86997697173736	0.7915854593228549	0.9769501301237981	3362.851282051282	3572.161172161172	-0.06794871794871794	-0.166243654822335	0.593625498007968
3817.413330078125	-4.39066276147949	0.7545693890942847	28.93372385205102	3.156158247503361	1.169792984723837	0.2857271971320704	3393.435897435897	3573.626373626374	-0.06153846153846154	-0.1738578680203046	0.5883134130146082
3836.944580078125	-3.343052595681395	0.4672523524074395	29.69474043186051	3.145020546412167	1.180818183783806	-0.08920457226102602	3380.328205128205	3570.695970695971	-0.06282051282051282	-0.1700507614213198	0.5989375830013279
3856.475830078125	-2.515460084481067	0.2790762237874159	28.45399155189331	2.797786358980446	1.172593383717097	-0.04653402832519149	3386.153846153846	3573.626373626374	-0.06025641025641026	-0.1649746192893401	0.596281540504648
3876.007080078125	-2.549177411471549	0.5808230317401104	29.08225885284511	2.789573710701081	1.556225310191529	-0.4481662797954918	3400.717948717948	3578.021978021978	-0.0641025641025641	-0.1738578680203046	0.594953519256308
3895.538330078125	-3.749847030420325	0.5550378084168357	29.01529695796753	2.445264576081189	1.920607237539284	-0.4321962179368612	3413.825641025641	3580.952380952381	-0.06923076923076924	-0.1738578680203046	0.6029216467463479
3915.069580078125	-3.577704853044556	1.156558824651925	30.22951469554436	2.44233952326936	1.54800051012482	-0.4054957358596573	3405.087179487179	3579.487179487179	-0.05512820512820513	-0.166243654822335	0.6002656042496679
3934.600830078125	-3.309658443859241	0.973524259067064	29.0341556140759	2.817136708351004	0.7779362581826954	0.7300299925382052	3373.046153846154	3575.091575091575	-0.06282051282051282	-0.1738578680203046	0.597609561752988
3954.132080078125	-3.186776780141163	0.7386445479425745	29.3223219858837	2.434126874989996	1.931632436599253	-0.8071279873299576	3415.282051282051	3579.487179487179	-0.06666666666666667	-0.1789340101522843	0.5989375830013279
3973.663330078125	-3.828515868824123	1.246801027512364	29.14841311758774	3.500467382123253	0.8054110573760833	0.2697571352734398	3387.610256410256	3573.626373626374	-0.0641025641025641	-0.1751269035532995	0.6002656042496679
3993.194580078125	-3.541494460469829	0.6215247896899119	29.8505539530171	2.797786358980446	1.172593383717097	-0.04653402832519149	3384.697435897436	3573.626373626374	-0.06666666666666667	-0.1687817258883249	0.5922974767596281
4012.725830078125	-3.270831871350429	0.8973863439100872	28.9168128649571	2.44233952326936	1.54800051012482	-0.4054957358596573	3402.174358974359	3579.487179487179	-0.07435897435897436	-0.1751269035532995	0.597609561752988
4032.257080078125	-3.226018863580683	0.8536636676011044	29.39811364193176	2.786648657889253	1.183618582777066	-0.4214657977182879	3402.174358974359	3578.021978021978	-0.06923076923076924	-0.1687817258883249	0.5843293492695882
4051.788330078125	-4.074079135441791	0.2163583883346691	28.59208645582103	2.778436009609888	1.567250509251498	-0.8230980491885882	3415.282051282051	3580.952380952381	-0.07179487179487179	-0.1675126903553299	0.594953519256308
4071.319580078125	-3.179836208668974	1.385480724601817	30.01637913310261	3.147945599223996	1.55342491119827	-0.1159050543382299	3390.523076923077	3572.161172161172	-0.06282051282051282	-0.1713197969543147	0.5896414342629481
4090.850830078125	-2.942690885721567	0.4628870253480135	29.73091142784329	3.145020546412167	1.180818183783806	-0.08920457226102602	3373.046153846154	3569.230769230769	-0.06282051282051282	-0.1687817258883249	0.6002656042496679
4110.382080078125	-2.981286618824431	0.9618687157819054	29.87133811755696	2.797786358980446	1.172593383717097	-0.04653402832519149	3391.979487179487	3572.161172161172	-0.06025641025641026	-0.166243654822335	0.5896414342629481
4129.913330078125	-3.428754341319762	0.7430418847329587	29.12456586802388	3.481117032752695	1.200068182910485	-0.5068068855899569	3396.348717948718	3578.021978021978	-0.05897435897435897	-0.1713197969543147	0.596281540504648
4149.444580078125	-2.582771624112192	0.5747531865071596	29.72283758878083	3.136807898132803	1.564450110258239	-0.4908368237313263	3393.435897435897	3579.487179487179	-0.07564102564102564	-0.1738578680203046	0.593625498007968
4168.975830078125	-3.145041631117399	1.390338201274726	29.49583688826018	3.136807898132803	1.564450110258239	-0.4908368237313263	3403.630769230769	3580.952380952381	-0.06923076923076924	-0.1675126903553299	0.5922974767596281
4188.507080078125	-2.940874949061438	-0.07740860914025552	29.91250509385622	2.44233952326936	1.54800051012482	-0.4054957358596573	3405.087179487179	3578.021978021978	-0.07179487179487179	-0.1738578680203046	0.5896414342629481
4208.038330078125	-2.791262697706257	0.8545599400679345	28.87373022937434	2.79249876351291	1.928832037605993	-0.4748667618726957	3405.087179487179	3580.952380952381	-0.06923076923076924	-0.1713197969543147	0.596281540504648
4227.569580078125	-3.315121643133359	0.6328882441800768	28.48783568666413	2.44233952326936	1.54800051012482	-0.4054957358596573	3409.45641025641	3582.417582417582	-0.06153846153846154	-0.1700507614213198	0.6055776892430278
4247.100830078125	-3.224710773613641	0.5831117275036226	29.52892263863599	3.156158247503361	1.169792984723837	0.2857271971320704	3381.784615384615	3576.556776556776	-0.06538461538461539	-0.1649746192893401	0.6082337317397077
4266.632080078125	-2.742233023454515	0.2681168921505983	29.77669765454851	2.09510533583764	1.53977571005811	-0.3628251919238227	3415.282051282051	3580.952380952381	-0.0641025641025641	-0.1713197969543147	0.593625498007968
4286.163330078125	-2.862652400175807	0.3466635395621807	29.73475998241927	3.164370895782725	0.7861610582494049	0.6873594486023706	3373.046153846154	3573.626373626374	-0.07435897435897436	-0.1675126903553299	0.6042496679946878
4305.694580078125	-1.860009135084758	0.4878399956663749	29.99908649152419	3.147945599223996	1.55342491119827	-0.1159050543382299	3387.610256410256	3572.161172161172	-0.06538461538461539	-0.1763959390862944	0.5989375830013279
4325.225830078125	-3.409040656051748	0.4539002933814956	31.09593439482525	2.44233952326936	1.54800051012482	-0.4054957358596573	3405.087179487179	3580.952380952381	-0.07820512820512821	-0.1687817258883249	0.594953519256308
4344.757080078125	-3.863772125187596	1.396256000285625	29.62278748124045	3.147945599223996	1.55342491119827	-0.1159050543382299	3394.892307692307	3573.626373626374	-0.06666666666666667	-0.1700507614213198	0.5989375830013279
4364.288330078125	-3.840581075108372	1.412833039705609	27.94189248916285	2.786648657889253	1.183618582777066	-0.4214657977182879	3403.630769230769	3579.487179487179	-0.06923076923076924	-0.1687817258883249	0.5989375830013279
4383.819580078125	-2.95417129884408	1.166789934909443	28.58287011559206	2.808924060071639	1.161568184657128	0.3283977410679049	3391.979487179487	3579.487179487179	-0.06794871794871794	-0.1763959390862944	0.597609561752988
4403.350830078125	-2.985888017649673	0.4665161285954006	29.41119823503268	2.786648657889253	1.183618582777066	-0.4214657977182879	3389.066666666666	3579.487179487179	-0.06153846153846154	-0.1725888324873096	0.597609561752988
4422.882080078125	-3.297116169469365	0.6147027157794431	30.28838305306351	2.778436009609888	1.567250509251498	-0.8230980491885882	3399.261538461538	3576.556776556776	-0.06666666666666667	-0.1624365482233502	0.6002656042496679
4442.413330078125	-2.345364683171376	-0.001950900766140573	29.46353168286235	3.147945599223996	1.55342491119827	-0.1159050543382299	3383.241025641025	3573.626373626374	-0.06666666666666667	-0.1598984771573604	0.6015936254980079
4461.944580078125	-1.826337975975466	0.3015244326582974	29.36620240245342	3.145020546412167	1.180818183783806	-0.08920457226102602	3386.153846153846	3572.161172161172	-0.05641025641025641	-0.1802030456852792	0.597609561752988
4481.475830078125	-3.196318142253707	0.5944351698300898	28.36818577462933	2.811849112883468	1.534174912071591	0.301697258990701	3391.979487179487	3575.091575091575	-0.06025641025641026	-0.1675126903553299	0.597609561752988
4501.007080078125	-3.031224261406237	0.8184595809433759	28.87757385937632	2.44233952326936	1.54800051012482	-0.4054957358596573	3406.54358974359	3580.952380952381	-0.07435897435897436	-0.1725888324873096	0.5922974767596281
4520.538330078125	-3.827715625550168	1.245992781805669	29.22843744498327	2.800711411792275	1.54520011113156	-0.07323451040239537	3397.805128205128	3575.091575091575	-0.07307692307692308	-0.1700507614213198	0.596281540504648
4540.069580078125	-3.707188523772765	0.8981065628566468	29.28114762272346	2.778436009609888	1.567250509251498	-0.8230980491885882	3405.087179487179	3580.952380952381	-0.07435897435897436	-0.1675126903553299	0.6029216467463479
4559.600830078125	-3.540971224483012	0.3133040136509191	29.90287755169879	3.156158247503361	1.169792984723837	0.2857271971320704	3374.502564102564	3573.626373626374	-0.06923076923076924	-0.1675126903553299	0.596281540504648
4579.132080078125	-3.265907297356859	0.5847202164842726	29.40927026431419	2.092180283025811	1.167168982643647	-0.3361247098466189	3416.738461538461	3579.487179487179	-0.06923076923076924	-0.1675126903553299	0.5909694555112881
4598.663330078125	-2.94735384172173	1.121442764754332	29.26461582782704	3.133882845320974	1.191843382843775	-0.4641363416541224	3393.435897435897	3579.487179487179	-0.07179487179487179	-0.1637055837563452	0.593625498007968
4618.194580078125	-2.587588473049653	0.6180797423955344	29.24115269503467	3.145020546412167	1.180818183783806	-0.08920457226102602	3386.153846153846	3575.091575091575	-0.06923076923076924	-0.1687817258883249	0.593625498007968
4637.725830078125	-3.143441144569488	0.3887217098613363	29.65588554305124	3.136807898132803	1.564450110258239	-0.4908368237313263	3406.54358974359	3579.487179487179	-0.07435897435897436	-0.1789340101522843	0.594953519256308
4657.257080078125	-3.152166874114347	0.2052270043939511	28.78331258856538	2.103317984117004	1.156143783583678	0.03880705954647756	3391.979487179487	3573.626373626374	-0.05897435897435897	-0.1649746192893401	0.6002656042496679
4676.788330078125	-3.309119818578694	0.6268264013798657	29.08801814213059	2.44233952326936	1.54800051012482	-0.4054957358596573	3405.087179487179	3579.487179487179	-0.06538461538461539	-0.1560913705583756	0.5830013280212483
4696.319580078125	-2.435375431054117	0.04742149305696625	28.46245689458826	2.789573710701081	1.556225310191529	-0.4481662797954918	3397.805128205128	3580.952380952381	-0.06025641025641026	-0.1713197969543147	0.594953519256308
4715.850830078125	-3.868835202824736	1.055215862545291	29.11647971752643	2.786648657889253	1.183618582777066	-0.4214657977182879	3389.066666666666	3579.487179487179	-0.06923076923076924	-0.1789340101522843	0.594953519256308
4735.382080078125	-3.271016542875188	0.3591113236885551	28.89834571248121	3.136807898132803	1.564450110258239	-0.4908368237313263	3406.54358974359	3579.487179487179	-0.06923076923076924	-0.1637055837563452	0.6029216467463479
4754.913330078125	-3.299870853047019	0.502100330808258	30.01291469529814	2.797786358980446	1.172593383717097	-0.04653402832519149	3381.784615384615	3572.161172161172	-0.07692307692307693	-0.1725888324873096	0.6055776892430278
4774.444580078125	-2.346195705032792	1.075811508236966	29.38042949672084	3.133882845320974	1.191843382843775	-0.4641363416541224	3389.066666666666	3578.021978021978	-0.06282051282051282	-0.166243654822335	0.6029216467463479
4793.975830078125	-2.949400617787808	-0.7611053760343144	29.05993822121925	3.147945599223996	1.55342491119827	-0.1159050543382299	3389.066666666666	3572.161172161172	-0.06666666666666667	-0.1649746192893401	0.593625498007968
4813.507080078125	-2.748958144814485	0.0826015724164762	29.10418551855148	2.79249876351291	1.928832037605993	-0.4748667618726957	3402.174358974359	3579.487179487179	-0.06794871794871794	-0.1687817258883249	0.5989375830013279
4833.038330078125	-3.307688614261813	1.048457808096738	29.23113857381874	2.789573710701081	1.556225310191529	-0.4481662797954918	3397.805128205128	3579.487179487179	-0.06794871794871794	-0.1751269035532995	0.5830013280212483
4852.569580078125	-4.474471623989078	1.297677878690506	28.55283760109226	2.456402277172382	1.909582038479315	-0.05726444854376478	3396.348717948718	3575.091575091575	-0.06153846153846154	-0.1637055837563452	0.5869853917662682
4872.100830078125	-3.584891653216424	1.125355954363973	29.5108346783576	3.145020546412167	1.180818183783806	-0.08920457226102602	3380.328205128205	3570.695970695971	-0.05897435897435897	-0.1725888324873096	0.593625498007968
4891.632080078125	-3.670393338036301	0.9009434252628183	28.96066619636985	2.789573710701081	1.556225310191529	-0.4481662797954918	3403.630769230769	3579.487179487179	-0.07435897435897436	-0.166243654822335	0.5989375830013279
4911.163330078125	-3.706865348604437	1.090087848244328	29.31346513955626	3.145020546412167	1.180818183783806	-0.08920457226102602	3384.697435897436	3572.161172161172	-0.06666666666666667	-0.1649746192893401	0.6042496679946878
4930.694580078125	-3.268246470003805	0.4332366270115345	29.17535299961957	3.156158247503361	1.169792984723837	0.2857271971320704	3386.153846153846	3579.487179487179	-0.0641025641025641	-0.1865482233502538	0.6015936254980079
4950.225830078125	-2.753497986464809	-0.5666593413628511	28.65020135351916	2.789573710701081	1.556225310191529	-0.4481662797954918	3409.45641025641	3582.417582417582	-0.07051282051282051	-0.1738578680203046	0.6148738379814077
4969.757080078125	-3.06985077309656	0.3943954346736792	29.01492269034401	3.145020546412167	1.180818183783806	-0.08920457226102602	3387.610256410256	3575.091575091575	-0.05641025641025641	-0.166243654822335	0.6015936254980079
4989.288330078125	-2.83333641119208	1.049362082996308	28.66635888079206	2.79249876351291	1.928832037605993	-0.4748667618726957	3406.54358974359	3579.487179487179	-0.06025641025641026	-0.1713197969543147	0.5989375830013279
5008.819580078125	-3.113294133724345	1.013657844292357	28.67058662756555	2.800711411792275	1.54520011113156	-0.07323451040239537	3384.697435897436	3570.695970695971	-0.0641025641025641	-0.1725888324873096	0.5989375830013279
5028.350830078125	-2.906834446902628	0.8128258682947307	29.31655530973723	3.156158247503361	1.169792984723837	0.2857271971320704	3386.153846153846	3578.021978021978	-0.0641025641025641	-0.1802030456852792	0.6015936254980079
5047.882080078125	-3.424460728369117	1.007936104883577	29.55392716308834	2.789573710701081	1.556225310191529	-0.4481662797954918	3408	3582.417582417582	-0.07435897435897436	-0.1751269035532995	0.5989375830013279
5067.413330078125	-3.103537321499582	-0.3808119206700375	29.64626785004179	3.145020546412167	1.180818183783806	-0.08920457226102602	3386.153846153846	3573.626373626374	-0.07564102564102564	-0.1687817258883249	0.5883134130146082
5086.944580078125	-3.659405382313147	0.4283071284439701	30.05946176868537	3.145020546412167	1.180818183783806	-0.08920457226102602	3387.610256410256	3570.695970695971	-0.0576923076923077	-0.1611675126903553	0.5909694555112881
5106.475830078125	-2.267342195104235	0.9223233093629694	29.26578048957652	3.145020546412167	1.180818183783806	-0.08920457226102602	3387.610256410256	3572.161172161172	-0.06923076923076924	-0.1675126903553299	0.594953519256308
5126.007080078125	-2.747203765329276	0.6962142645210296	29.27962346707245	2.789573710701081	1.556225310191529	-0.4481662797954918	3406.54358974359	3582.417582417582	-0.08076923076923077	-0.1713197969543147	0.593625498007968
5145.538330078125	-1.944510515812191	0.7624171594318518	29.54894841878084	2.781361062421717	1.939857236665962	-0.8497985312657921	3415.282051282051	3579.487179487179	-0.06666666666666667	-0.1763959390862944	0.5922974767596281
5165.069580078125	-2.580417062171516	0.6877596943316922	29.95829378284844	3.133882845320974	1.191843382843775	-0.4641363416541224	3386.153846153846	3580.952380952381	-0.07820512820512821	-0.1738578680203046	0.6015936254980079
5184.600830078125	-3.230204751475218	0.3194298759130469	28.97952485247823	2.808924060071639	1.161568184657128	0.3283977410679049	3387.610256410256	3578.021978021978	-0.05897435897435897	-0.1700507614213198	0.6055776892430278
5204.132080078125	-3.663760552438711	1.317321234886175	29.62394475612894	3.128595249853438	1.948082036732671	-0.8924690752016267	3400.717948717948	3578.021978021978	-0.07179487179487179	-0.1624365482233502	0.594953519256308
5223.663330078125	-2.947569291833949	0.6601219078292109	29.24307081660517	2.797786358980446	1.172593383717097	-0.04653402832519149	3387.610256410256	3572.161172161172	-0.06666666666666667	-0.1725888324873096	0.6015936254980079
5243.194580078125	-3.709281467720033	1.130989667012618	29.07185322799669	3.839488921275609	1.197267783917225	-0.1745456601326951	3381.784615384615	3570.695970695971	-0.06666666666666667	-0.1675126903553299	0.593625498007968
5262.725830078125	-3.710158657462638	1.324183320960341	28.98413425373621	2.79249876351291	1.928832037605993	-0.4748667618726957	3406.54358974359	3582.417582417582	-0.06025641025641026	-0.1573604060913706	0.596281540504648
5282.257080078125	-3.342683252631877	-0.4561976071494965	29.7316747368123	2.417139068275145	1.197444180830295	-1.128658792568646	3394.892307692307	3579.487179487179	-0.0641025641025641	-0.1751269035532995	0.5989375830013279
5301.788330078125	-3.0732671963046	0.936307560575338	28.67328036954003	2.778436009609888	1.567250509251498	-0.8230980491885882	3413.825641025641	3580.952380952381	-0.0641025641025641	-0.1751269035532995	0.5922974767596281
5321.319580078125	-1.857639183850352	0.5623694218427017	30.23608161496479	2.789573710701081	1.556225310191529	-0.4481662797954918	3402.174358974359	3579.487179487179	-0.07051282051282051	-0.1751269035532995	0.5989375830013279
5340.850830078125	-2.950831822104689	0.8172632172488127	28.91681778953109	3.514530136026274	1.166992585730578	0.6179884225893323	3377.415384615385	3573.626373626374	-0.06923076923076924	-0.1700507614213198	0.594953519256308
5360.382080078125	-2.70736149943429	1.080588960582479	29.26385005657104	2.434126874989996	1.931632436599253	-0.8071279873299576	3413.825641025641	3579.487179487179	-0.06282051282051282	-0.1751269035532995	0.5896414342629481
5379.913330078125	-2.788692685653362	0.4288873048175876	29.13073143466383	3.156158247503361	1.169792984723837	0.2857271971320704	3378.871794871795	3575.091575091575	-0.06794871794871794	-0.166243654822335	0.5896414342629481
5399.444580078125	-3.38474157682397	0.700127454130671	29.52584231760301	3.145020546412167	1.180818183783806	-0.08920457226102602	3387.610256410256	3573.626373626374	-0.0641025641025641	-0.1598984771573604	0.5989375830013279
5418.975830078125	-3.503468131234973	-0.4538048797603702	29.65318687650276	2.800711411792275	1.54520011113156	-0.07323451040239537	3396.348717948718	3573.626373626374	-0.07307692307692308	-0.1713197969543147	0.6042496679946878
5438.507080078125	-2.316771990992954	0.509170480133653	28.32280090070458	2.837049567877683	1.884731241366117	1.02486031569969	3386.153846153846	3572.161172161172	-0.0641025641025641	-0.1675126903553299	0.5896414342629481
5458.038330078125	-2.912436149820315	-0.1815164117584053	28.75638501796854	2.789573710701081	1.556225310191529	-0.4481662797954918	3403.630769230769	3580.952380952381	-0.07692307692307693	-0.1725888324873096	0.5909694555112881
5477.569580078125	-3.397191515451467	1.828086507529058	28.28084845485335	3.489329681032059	0.8164362564360523	-0.1051746341196566	3378.871794871795	3567.765567765568	-0.06153846153846154	-0.1814720812182741	0.594953519256308
5497.100830078125	-2.786415070181335	0.7342792208831486	29.35849298186648	2.797786358980446	1.172593383717097	-0.04653402832519149	3383.241025641025	3573.626373626374	-0.0641025641025641	-0.1763959390862944	0.6042496679946878
5516.632080078125	-3.950720403618085	0.7886891461158038	28.92795963819155	2.786648657889253	1.183618582777066	-0.4214657977182879	3394.892307692307	3579.487179487179	-0.06666666666666667	-0.1751269035532995	0.6095617529880477
5536.163330078125	-4.023510531817057	0.782207175596766	29.6489468182943	2.439414470457532	1.175393782710356	-0.3787952537824534	3391.979487179487	3579.487179487179	-0.0641025641025641	-0.1687817258883249	0.597609561752988
5555.694580078125	-3.586384414708225	0.8576328742399226	29.36155852917748	2.794861306168618	0.7999866563026334	-0.01983354624798756	3386.153846153846	3578.021978021978	-0.08076923076923077	-0.166243654822335	0.593625498007968
5575.225830078125	-3.342621695456958	0.3898940662576807	29.73783045430426	3.136807898132803	1.564450110258239	-0.4908368237313263	3406.54358974359	3580.952380952381	-0.0641025641025641	-0.1725888324873096	0.5843293492695882
5594.757080078125	-3.426230497148056	0.432800494427229	29.37695028519439	2.79249876351291	1.928832037605993	-0.4748667618726957	3399.261538461538	3576.556776556776	-0.07179487179487179	-0.166243654822335	0.596281540504648
5614.288330078125	-3.179528422794376	0.6159390916377041	30.04715772056243	2.445264576081189	1.920607237539284	-0.4321962179368612	3415.282051282051	3579.487179487179	-0.07051282051282051	-0.1675126903553299	0.6015936254980079
5633.819580078125	-2.47067785529878	0.3123077107748448	28.93221447012199	2.789573710701081	1.556225310191529	-0.4481662797954918	3403.630769230769	3579.487179487179	-0.06282051282051282	-0.1675126903553299	0.5896414342629481
5653.350830078125	-2.029119621595734	0.3063338947347686	29.08803784042656	3.156158247503361	1.169792984723837	0.2857271971320704	3375.958974358974	3573.626373626374	-0.06923076923076924	-0.1611675126903553	0.5922974767596281
5672.882080078125	-2.863468032743493	0.3859488669170812	29.65319672565075	2.467539978263575	1.898556839419346	0.3176673208493316	3410.91282051282	3576.556776556776	-0.05897435897435897	-0.1649746192893401	0.5856573705179282
5692.413330078125	-3.030962643412829	0.1643491929238796	28.90373565871717	3.145020546412167	1.180818183783806	-0.08920457226102602	3380.328205128205	3575.091575091575	-0.06794871794871794	-0.1928934010152284	0.6029216467463479
5711.944580078125	-3.154244428767885	1.399633026901716	28.57555712321161	3.145020546412167	1.180818183783806	-0.08920457226102602	3383.241025641025	3572.161172161172	-0.06794871794871794	-0.1624365482233502	0.5922974767596281
5731.475830078125	-3.555775725051185	0.3282565592247735	28.42242749488152	2.786648657889253	1.183618582777066	-0.4214657977182879	3402.174358974359	3580.952380952381	-0.05641025641025641	-0.1687817258883249	0.593625498007968
5751.007080078125	-1.884754503830703	2.357448202715164	31.52454961692969	3.492817244000009	2.690495092568339	-0.6136088138987725	3400.717948717948	3579.487179487179	-0.06538461538461539	-0.1573604060913706	0.5896414342629481
5770.538330078125	-3.793782848447467	0.4055668307780949	28.62171515525334	2.439414470457532	1.175393782710356	-0.3787952537824534	3413.825641025641	3580.952380952381	-0.07051282051282051	-0.1700507614213198	0.5896414342629481
5790.069580078125	-2.994167457676365	1.167186055330051	28.58325423236356	2.786648657889253	1.183618582777066	-0.4214657977182879	3394.892307692307	3578.021978021978	-0.06153846153846154	-0.1763959390862944	0.593625498007968
5809.600830078125	-2.836799002281309	-0.2932945461574165	28.3200997718691	2.45876481982809	0.780736657175955	0.3977687670809434	3381.784615384615	3576.556776556776	-0.0576923076923077	-0.1789340101522843	0.6015936254980079
5829.132080078125	-2.710577861823841	1.122299025057464	28.94221381761593	2.800711411792275	1.54520011113156	-0.07323451040239537	3391.979487179487	3573.626373626374	-0.06282051282051282	-0.1675126903553299	0.5909694555112881
5848.663330078125	-3.267492394611039	0.5478596262494566	29.25076053889613	2.794861306168618	0.7999866563026334	-0.01983354624798756	3378.871794871795	3572.161172161172	-0.05512820512820513	-0.166243654822335	0.6042496679946878
5868.194580078125	-3.029408324746108	0.2781639464551069	29.05916752538925	2.453477224360554	1.536975311064851	-0.03056396646656084	3381.784615384615	3575.091575091575	-0.06153846153846154	-0.1687817258883249	0.596281540504648
5887.725830078125	-3.349115977410979	0.6272225218004734	29.08840225890209	3.136807898132803	1.564450110258239	-0.4908368237313263	3402.174358974359	3579.487179487179	-0.0576923076923077	-0.1573604060913706	0.5922974767596281
5907.257080078125	-3.298716656017275	0.6163192071928327	30.12833439827245	2.445264576081189	1.920607237539284	-0.4321962179368612	3402.174358974359	3579.487179487179	-0.06666666666666667	-0.166243654822335	0.593625498007968
5926.788330078125	-3.065264763565047	0.9282251035083897	29.47352364349531	3.147945599223996	1.55342491119827	-0.1159050543382299	3391.979487179487	3573.626373626374	-0.06282051282051282	-0.1637055837563452	0.594953519256308
5946.319580078125	-2.231470366991565	0.2337850706614811	28.85296330084345	2.44233952326936	1.54800051012482	-0.4054957358596573	3403.630769230769	3579.487179487179	-0.06923076923076924	-0.1586294416243655	0.6042496679946878
5965.850830078125	-2.991320438336332	1.048925950412002	28.86795616636688	3.503392434935081	1.178017784790547	0.2430566531962359	3381.784615384615	3576.556776556776	-0.07820512820512821	-0.1675126903553299	0.6015936254980079
5985.382080078125	-3.384295287305803	0.5842920863327066	29.57047126941975	3.153233194691532	0.7971862573093739	0.3124276792092743	3367.220512820513	3575.091575091575	-0.07307692307692308	-0.1751269035532995	0.5909694555112881
6004.913330078125	-3.386880688652428	1.048441803231259	29.31193113475727	3.495179786655716	1.561649711264979	-0.1585755982740645	3389.066666666666	3573.626373626374	-0.0641025641025641	-0.1649746192893401	0.5989375830013279
6024.444580078125	-3.148442665031709	0.8937732455281789	29.15573349682919	3.159083300315189	1.542399712138301	0.2590267150548665	3391.979487179487	3578.021978021978	-0.0641025641025641	-0.1649746192893401	0.5883134130146082
6043.975830078125	-3.62984316462974	1.515372365506806	29.01568353702602	3.503392434935081	1.178017784790547	0.2430566531962359	3378.871794871795	3576.556776556776	-0.06282051282051282	-0.1598984771573604	0.5922974767596281
6063.507080078125	-3.309781558209081	0.2813409122527094	29.02184417909198	2.439414470457532	1.175393782710356	-0.3787952537824534	3391.979487179487	3579.487179487179	-0.0641025641025641	-0.1586294416243655	0.5922974767596281
6083.038330078125	-3.303318054842519	0.1209666200063281	29.66819451574817	3.153233194691532	0.7971862573093739	0.3124276792092743	3371.589743589744	3573.626373626374	-0.06666666666666667	-0.1700507614213198	0.594953519256308
6102.569580078125	-2.549454418758688	0.2734105014078125	29.05455812413127	3.145020546412167	1.180818183783806	-0.08920457226102602	3391.979487179487	3572.161172161172	-0.06923076923076924	-0.1738578680203046	0.593625498007968
6122.100830078125	-3.264491482333707	0.04482870484935114	29.55085176662936	3.492254733843888	1.189042983850516	-0.1318751161968605	3381.784615384615	3572.161172161172	-0.07948717948717948	-0.1725888324873096	0.597609561752988
6141.632080078125	-2.307261407467871	0.730334021542549	29.27385925321297	2.778436009609888	1.567250509251498	-0.8230980491885882	3408	3580.952380952381	-0.06025641025641026	-0.1751269035532995	0.5989375830013279
6161.163330078125	-3.149089015368364	0.5098106747528173	29.09109846316357	3.492254733843888	1.189042983850516	-0.1318751161968605	3378.871794871795	3572.161172161172	-0.05512820512820513	-0.1624365482233502	0.593625498007968
6180.694580078125	-1.785079895057328	0.1460076170848245	29.49201049426718	3.156158247503361	1.169792984723837	0.2857271971320704	3390.523076923077	3576.556776556776	-0.06923076923076924	-0.1776649746192893	0.594953519256308
6200.225830078125	-2.898832014163075	0.8047434112277824	30.11679858369251	3.136807898132803	1.564450110258239	-0.4908368237313263	3394.892307692307	3579.487179487179	-0.07051282051282051	-0.166243654822335	0.6042496679946878
6219.757080078125	-3.266846044274383	0.9318221970248186	29.31539557256174	3.133882845320974	1.191843382843775	-0.4641363416541224	3389.066666666666	3575.091575091575	-0.0641025641025641	-0.1738578680203046	0.5843293492695882
6239.288330078125	-3.066003449664083	0.7751250226222618	29.39965503359175	2.797786358980446	1.172593383717097	-0.04653402832519149	3389.066666666666	3575.091575091575	-0.0641025641025641	-0.1675126903553299	0.6002656042496679
6258.819580078125	-3.222371600966695	0.7345953169763607	29.76283990333061	2.781361062421717	1.939857236665962	-0.8497985312657921	3400.717948717948	3578.021978021978	-0.07179487179487179	-0.1776649746192893	0.6042496679946878
6278.350830078125	-4.231078247787328	0.7533890302652007	28.89217522126726	3.156158247503361	1.169792984723837	0.2857271971320704	3389.066666666666	3578.021978021978	-0.0576923076923077	-0.1700507614213198	0.6042496679946878
6297.882080078125	-2.745156989263198	0.5787624053096756	29.48430107368024	2.789573710701081	1.556225310191529	-0.4481662797954918	3405.087179487179	3580.952380952381	-0.06025641025641026	-0.1725888324873096	0.594953519256308
6317.413330078125	-2.226145671361017	0.9207148203823193	29.38543286389831	3.136807898132803	1.564450110258239	-0.4908368237313263	3394.892307692307	3579.487179487179	-0.07948717948717948	-0.1763959390862944	0.6002656042496679
6336.944580078125	-3.107954048800066	0.6621105123649898	29.2045951199934	3.150870652035824	1.926031638612733	-0.1426055364154338	3383.241025641025	3575.091575091575	-0.07307692307692308	-0.1649746192893401	0.593625498007968
6356.475830078125	-2.819993893528248	0.6897322940019919	30.0006106471752	2.786648657889253	1.183618582777066	-0.4214657977182879	3400.717948717948	3580.952380952381	-0.07051282051282051	-0.1751269035532995	0.6002656042496679
6376.007080078125	-2.822625462756063	0.2693132558451615	29.73745372439375	2.797786358980446	1.172593383717097	-0.04653402832519149	3383.241025641025	3569.230769230769	-0.0641025641025641	-0.1624365482233502	0.6108897742363877
6395.538330078125	-2.345841751277004	0.1908386303282352	29.41582487229963	2.79249876351291	1.928832037605993	-0.4748667618726957	3422.564102564103	3582.417582417582	-0.06666666666666667	-0.1624365482233502	0.5896414342629481
6415.069580078125	-2.634386699710558	0.6253459513230484	28.56133002894418	3.147945599223996	1.55342491119827	-0.1159050543382299	3396.348717948718	3576.556776556776	-0.06538461538461539	-0.1548223350253807	0.5922974767596281
6434.600830078125	-2.150431577353361	0.6165512777422799	28.95684226466384	3.145020546412167	1.180818183783806	-0.08920457226102602	3381.784615384615	3572.161172161172	-0.06794871794871794	-0.1675126903553299	0.5909694555112881
6454.132080078125	-3.033855830634052	0.3980405427865454	28.61441693659488	2.445264576081189	1.920607237539284	-0.4321962179368612	3406.54358974359	3582.417582417582	-0.06666666666666667	-0.166243654822335	0.593625498007968
6473.663330078125	-3.187992534345826	1.778333998150822	29.20074656541742	2.808924060071639	1.161568184657128	0.3283977410679049	3386.153846153846	3576.556776556776	-0.06794871794871794	-0.1700507614213198	0.6029216467463479
6493.194580078125	-3.904168405656859	0.3970562435595805	29.58315943431418	2.467539978263575	1.898556839419346	0.3176673208493316	3393.435897435897	3580.952380952381	-0.06666666666666667	-0.1687817258883249	0.5869853917662682
6512.725830078125	-2.696758276054383	0.5698797049687721	30.32417239456179	3.522742784305639	0.7833606592561453	1.019620674059633	3368.676923076923	3573.626373626374	-0.07051282051282051	-0.1611675126903553	0.6042496679946878
6532.257080078125	-3.185130125712063	0.6215968115845678	29.48698742879374	2.800711411792275	1.54520011113156	-0.07323451040239537	3396.348717948718	3572.161172161172	-0.0641025641025641	-0.1700507614213198	0.594953519256308
6551.788330078125	-2.699897691975284	1.419204361202729	30.01023080247164	2.44233952326936	1.54800051012482	-0.4054957358596573	3405.087179487179	3580.952380952381	-0.06282051282051282	-0.1763959390862944	0.5909694555112881
6571.319580078125	-3.10387588596164	0.4656838755904871	29.61241140383599	2.789573710701081	1.556225310191529	-0.4481662797954918	3403.630769230769	3580.952380952381	-0.07435897435897436	-0.182741116751269	0.5896414342629481
6590.850830078125	-2.943583464757902	0.6945577609439423	29.64165352420982	3.156158247503361	1.169792984723837	0.2857271971320704	3378.871794871795	3575.091575091575	-0.0641025641025641	-0.1687817258883249	0.594953519256308
6610.382080078125	-3.072159167156046	0.1659576819045297	28.78408328439538	2.786648657889253	1.183618582777066	-0.4214657977182879	3403.630769230769	3580.952380952381	-0.07051282051282051	-0.1802030456852792	0.596281540504648
6629.913330078125	-3.104476068417107	0.9662900598705082	29.55239315828935	2.811849112883468	1.534174912071591	0.301697258990701	3399.261538461538	3579.487179487179	-0.06282051282051282	-0.182741116751269	0.6002656042496679
6649.444580078125	-4.380182652449422	1.551676786666223	29.98173475505784	3.167295948594553	1.158767785663868	0.6606589665251668	3387.610256410256	3578.021978021978	-0.06282051282051282	-0.1725888324873096	0.597609561752988
6668.975830078125	-4.426903932641677	0.3665575873527091	29.3096067358323	2.789573710701081	1.556225310191529	-0.4481662797954918	3402.174358974359	3580.952380952381	-0.05512820512820513	-0.1751269035532995	0.6002656042496679
6688.507080078125	-4.064968673553684	1.437926052596912	29.50313264463166	2.789573710701081	1.556225310191529	-0.4481662797954918	3399.261538461538	3578.021978021978	-0.06282051282051282	-0.166243654822335	0.594953519256308
6708.038330078125	-3.665068642405753	0.5878731749836565	29.49313575942471	3.136807898132803	1.564450110258239	-0.4908368237313263	3405.087179487179	3579.487179487179	-0.07820512820512821	-0.1687817258883249	0.5909694555112881
6727.569580078125	-3.352009164632202	0.8609138716631394	28.79908353677979	2.445264576081189	1.920607237539284	-0.4321962179368612	3402.174358974359	3580.952380952381	-0.0641025641025641	-0.1802030456852792	0.5989375830013279
6747.100830078125	-3.381063535622522	0.504104940209516	29.89364643774784	3.145020546412167	1.180818183783806	-0.08920457226102602	3381.784615384615	3572.161172161172	-0.07051282051282051	-0.1738578680203046	0.5989375830013279
6766.632080078125	-3.78804264188621	0.05361537599738014	29.19573581137896	3.125670197041609	1.575475309318208	-0.8657685931244228	3413.825641025641	3579.487179487179	-0.06794871794871794	-0.1649746192893401	0.5909694555112881
6786.163330078125	-2.825041581871658	0.3102150746134517	29.49584181283418	3.145020546412167	1.180818183783806	-0.08920457226102602	3387.610256410256	3576.556776556776	-0.06538461538461539	-0.1763959390862944	0.5896414342629481
6805.694580078125	-3.383279593919629	1.044804697551132	29.67204060803715	2.803636464604103	1.917806838546024	-0.09993499247959931	3390.523076923077	3572.161172161172	-0.07307692307692308	-0.1725888324873096	0.593625498007968
6825.225830078125	-3.50893133050909	0.2055591053526426	29.10686694909098	2.800711411792275	1.54520011113156	-0.07323451040239537	3391.979487179487	3570.695970695971	-0.07820512820512821	-0.1675126903553299	0.6002656042496679
6844.757080078125	-2.824195170716513	0.1939755839621399	29.58048292834868	2.789573710701081	1.556225310191529	-0.4481662797954918	3399.261538461538	3579.487179487179	-0.06538461538461539	-0.1700507614213198	0.597609561752988
6864.288330078125	-3.107569316456819	0.7001834711598478	29.24306835431817	3.489329681032059	0.8164362564360523	-0.1051746341196566	3359.938461538462	3567.765567765568	-0.06666666666666667	-0.1738578680203046	0.594953519256308
6883.819580078125	-2.941275070698416	-0.07700448628690812	29.87249293015846	2.778436009609888	1.567250509251498	-0.8230980491885882	3405.087179487179	3579.487179487179	-0.06666666666666667	-0.1548223350253807	0.5989375830013279
6903.350830078125	-2.748819641170916	-0.2636921624173748	29.1180358829084	3.145020546412167	1.180818183783806	-0.08920457226102602	3378.871794871795	3570.695970695971	-0.08846153846153847	-0.1687817258883249	0.6042496679946878
6922.882080078125	-2.228438676126773	0.653799985964964	29.15613238732266	3.133882845320974	1.191843382843775	-0.4641363416541224	3396.348717948718	3579.487179487179	-0.06538461538461539	-0.1675126903553299	0.594953519256308
6942.413330078125	-2.74475686762622	0.5783582824563281	29.52431323737801	2.789573710701081	1.556225310191529	-0.4481662797954918	3396.348717948718	3579.487179487179	-0.07435897435897436	-0.1624365482233502	0.5909694555112881
6961.944580078125	-3.424368392606737	0.7770736149943427	29.56316073932629	2.797786358980446	1.172593383717097	-0.04653402832519149	3377.415384615385	3570.695970695971	-0.06282051282051282	-0.1738578680203046	0.593625498007968
6981.475830078125	-3.107723209394118	0.08495428764190471	29.22767906058826	2.778436009609888	1.567250509251498	-0.8230980491885882	3405.087179487179	3580.952380952381	-0.0641025641025641	-0.1700507614213198	0.5896414342629481
7001.007080078125	-2.944706883200186	0.5033847212629563	29.52931167998148	3.108682390326759	0.8412870535492499	-1.187299398363111	3399.261538461538	3578.021978021978	-0.06538461538461539	-0.1687817258883249	0.594953519256308
7020.538330078125	-3.30824262883609	0.4336327474321424	29.17573711639107	3.133882845320974	1.191843382843775	-0.4641363416541224	3393.435897435897	3570.695970695971	-0.06282051282051282	-0.1725888324873096	0.5869853917662682
7040.069580078125	-3.264999329026793	0.3145723992401382	29.50006709732066	3.139732950944631	1.937056837672702	-0.5175373058085302	3405.087179487179	3580.952380952381	-0.06153846153846154	-0.1637055837563452	0.5922974767596281
7059.600830078125	-3.227434678603834	0.3935551792360262	29.25653213961659	3.503392434935081	1.178017784790547	0.2430566531962359	3374.502564102564	3575.091575091575	-0.06538461538461539	-0.1675126903553299	0.596281540504648
7079.132080078125	-2.66482610713657	0.7314743682079351	29.51738928634304	2.44233952326936	1.54800051012482	-0.4054957358596573	3415.282051282051	3579.487179487179	-0.05641025641025641	-0.1776649746192893	0.5896414342629481
7098.663330078125	-2.822979416511851	0.1542861337538919	29.70205834881496	2.797786358980446	1.172593383717097	-0.04653402832519149	3387.610256410256	3573.626373626374	-0.07435897435897436	-0.1649746192893401	0.5883134130146082
7118.194580078125	-3.947565598403453	0.9008874082336416	29.24344015965469	2.445264576081189	1.920607237539284	-0.4321962179368612	3413.825641025641	3585.347985347985	-0.06153846153846154	-0.1738578680203046	0.5922974767596281
7137.725830078125	-3.631105086715592	0.6704930606596713	28.88949132844077	2.79249876351291	1.928832037605993	-0.4748667618726957	3400.717948717948	3580.952380952381	-0.06666666666666667	-0.166243654822335	0.593625498007968
7157.257080078125	-3.555483328470317	0.5971920079088657	28.45166715296834	3.111607443138587	1.213893780963713	-1.213999880440315	3394.892307692307	3578.021978021978	-0.06666666666666667	-0.1776649746192893	0.5830013280212483
7176.788330078125	-3.029162096046429	-0.3374693599161837	29.08379039535711	2.44233952326936	1.54800051012482	-0.4054957358596573	3402.174358974359	3580.952380952381	-0.06794871794871794	-0.184010152284264	0.594953519256308
7196.319580078125	-3.342806366981717	0.8516190460361488	29.71936330182837	2.800711411792275	1.54520011113156	-0.07323451040239537	3390.523076923077	3570.695970695971	-0.07051282051282051	-0.1725888324873096	0.594953519256308
7215.850830078125	-2.506811301404858	0.6549563374958294	29.31886985951421	3.156158247503361	1.169792984723837	0.2857271971320704	3387.610256410256	3578.021978021978	-0.07179487179487179	-0.1802030456852792	0.5922974767596281
7235.382080078125	-3.071066527301223	0.4340848848819272	28.89334726987773	2.786648657889253	1.183618582777066	-0.4214657977182879	3396.348717948718	3579.487179487179	-0.06794871794871794	-0.1751269035532995	0.596281540504648
7254.913330078125	-3.470951169155424	0.2456606808469775	28.90488308445767	3.136807898132803	1.564450110258239	-0.4908368237313263	3399.261538461538	3580.952380952381	-0.07051282051282051	-0.1687817258883249	0.593625498007968
7274.444580078125	-3.546880713275297	0.08850336656189639	29.31192867247027	2.786648657889253	1.183618582777066	-0.4214657977182879	3408	3585.347985347985	-0.06666666666666667	-0.1637055837563452	0.6029216467463479
7293.975830078125	-3.391143523015613	1.70659341978423	28.88564769843878	2.800711411792275	1.54520011113156	-0.07323451040239537	3400.717948717948	3572.161172161172	-0.0576923076923077	-0.1751269035532995	0.5922974767596281
7313.507080078125	-3.224449155620232	0.9290013394841261	29.55508443797683	2.77551095679806	1.194643781837035	-0.7963975671113843	3400.717948717948	3583.882783882784	-0.06666666666666667	-0.1700507614213198	0.593625498007968
7333.038330078125	-2.87254771604414	0.08742703935842655	28.7452283955861	2.786648657889253	1.183618582777066	-0.4214657977182879	3396.348717948718	3578.021978021978	-0.07948717948717948	-0.1725888324873096	0.597609561752988
7352.569580078125	-2.874255927648159	0.3583831023092559	28.57440723518411	2.453477224360554	1.536975311064851	-0.03056396646656084	3396.348717948718	3572.161172161172	-0.07564102564102564	-0.166243654822335	0.594953519256308
7372.100830078125	-3.188946670557081	1.163913060339574	29.10533294429198	3.142095493600339	0.8082114563693429	-0.06250409018382208	3380.328205128205	3573.626373626374	-0.06153846153846154	-0.1738578680203046	0.6002656042496679
7391.632080078125	-2.836060316182274	-0.1401944652712886	28.39396838177267	2.789573710701081	1.556225310191529	-0.4481662797954918	3403.630769230769	3580.952380952381	-0.06153846153846154	-0.1713197969543147	0.593625498007968
7411.163330078125	-3.230881880399334	1.012421468434096	28.91181196006663	3.133882845320974	1.191843382843775	-0.4641363416541224	3390.523076923077	3579.487179487179	-0.06666666666666667	-0.1700507614213198	0.594953519256308
7430.694580078125	-3.201473555653227	0.4842575219789893	27.85264443467737	2.434126874989996	1.931632436599253	-0.8071279873299576	3416.738461538461	3583.882783882784	-0.06538461538461539	-0.1725888324873096	0.5922974767596281
7450.225830078125	-3.313459599410529	1.477363426173864	28.65404005894715	2.778436009609888	1.567250509251498	-0.8230980491885882	3400.717948717948	3578.021978021978	-0.05897435897435897	-0.1687817258883249	0.596281540504648
7469.757080078125	-3.036518178449326	1.054575667926126	28.34818215506745	3.500467382123253	0.8054110573760833	0.2697571352734398	3377.415384615385	3576.556776556776	-0.06282051282051282	-0.1675126903553299	0.5922974767596281
7489.288330078125	-3.312259234499596	1.476151057613822	28.77407655004044	2.445264576081189	1.920607237539284	-0.4321962179368612	3413.825641025641	3580.952380952381	-0.06923076923076924	-0.1713197969543147	0.596281540504648
7508.819580078125	-3.514379140489478	0.8264460088174496	28.56208595105219	2.794861306168618	0.7999866563026334	-0.01983354624798756	3383.241025641025	3572.161172161172	-0.06923076923076924	-0.1776649746192893	0.596281540504648
7528.350830078125	-2.948415702989093	0.7763613984805226	29.15842970109067	2.808924060071639	1.161568184657128	0.3283977410679049	3384.697435897436	3578.021978021978	-0.06923076923076924	-0.1725888324873096	0.597609561752988
7547.882080078125	-3.193486512207404	0.5146521465602467	28.65134877925966	2.797786358980446	1.172593383717097	-0.04653402832519149	3391.979487179487	3572.161172161172	-0.06282051282051282	-0.1675126903553299	0.5922974767596281
7567.413330078125	-2.91146662431533	0.3944274444046375	28.85333756846696	2.789573710701081	1.556225310191529	-0.4481662797954918	3400.717948717948	3579.487179487179	-0.0641025641025641	-0.1802030456852792	0.5856573705179282
7586.944580078125	-2.829196691178734	0.6990271196289826	29.08033088212662	2.789573710701081	1.556225310191529	-0.4481662797954918	3403.630769230769	3580.952380952381	-0.06282051282051282	-0.1751269035532995	0.5989375830013279
7606.475830078125	-3.95650677806053	0.2560718458411357	28.34932219394695	2.786648657889253	1.183618582777066	-0.4214657977182879	3400.717948717948	3578.021978021978	-0.0576923076923077	-0.1713197969543147	0.593625498007968
7626.007080078125	-3.073713485822768	1.052142928373302	28.62865141772329	2.797786358980446	1.172593383717097	-0.04653402832519149	3383.241025641025	3567.765567765568	-0.06538461538461539	-0.1713197969543147	0.593625498007968
7645.538330078125	-2.66819636246342	0.1579552491649769	29.18036375365803	3.136807898132803	1.564450110258239	-0.4908368237313263	3396.348717948718	3579.487179487179	-0.06794871794871794	-0.1624365482233502	0.594953519256308
7665.069580078125	-3.109123635123539	0.5863687176286205	29.08763648764609	3.142095493600339	0.8082114563693429	-0.06250409018382208	3377.415384615385	3570.695970695971	-0.0641025641025641	-0.1700507614213198	0.5776892430278884
7684.600830078125	-3.580090193572692	1.120506480123804	29.99098064273077	3.153233194691532	0.7971862573093739	0.3124276792092743	3378.871794871795	3578.021978021978	-0.04871794871794872	-0.166243654822335	0.596281540504648
7704.132080078125	-3.34231390958236	0.6203524332935674	29.76860904176408	2.79249876351291	1.928832037605993	-0.4748667618726957	3400.717948717948	3579.487179487179	-0.06794871794871794	-0.1776649746192893	0.6002656042496679
7723.663330078125	-3.072282281505886	0.473774335090175	28.77177184941145	2.800711411792275	1.54520011113156	-0.07323451040239537	3400.717948717948	3573.626373626374	-0.06666666666666667	-0.1649746192893401	0.6029216467463479
7743.194580078125	-3.188023312933286	0.8552881614472336	29.19766870667144	2.789573710701081	1.556225310191529	-0.4481662797954918	3409.45641025641	3579.487179487179	-0.06923076923076924	-0.1713197969543147	0.596281540504648
7762.725830078125	-3.148750450906307	0.6633148784922924	29.12495490936937	3.136807898132803	1.564450110258239	-0.4908368237313263	3403.630769230769	3579.487179487179	-0.06666666666666667	-0.1738578680203046	0.5909694555112881
7782.257080078125	-3.430047041993074	0.975116743182235	28.99529580069263	3.153233194691532	0.7971862573093739	0.3124276792092743	3386.153846153846	3570.695970695971	-0.06666666666666667	-0.166243654822335	0.5989375830013279
7801.788330078125	-3.382571686408053	1.274858941733672	29.74283135919473	2.797786358980446	1.172593383717097	-0.04653402832519149	3380.328205128205	3570.695970695971	-0.06025641025641026	-0.1700507614213198	0.5856573705179282
7821.319580078125	-3.46654983114867	0.241215329460156	29.34501688513307	2.800711411792275	1.54520011113156	-0.07323451040239537	3390.523076923077	3570.695970695971	-0.05256410256410257	-0.1687817258883249	0.597609561752988
7840.850830078125	-2.668365644694449	0.5812031472952393	29.16343553055513	3.503392434935081	1.178017784790547	0.2430566531962359	3387.610256410256	3578.021978021978	-0.06538461538461539	-0.1700507614213198	0.5909694555112881
7860.382080078125	-3.305487945258436	-0.4537648675966725	29.45120547415645	2.786648657889253	1.183618582777066	-0.4214657977182879	3403.630769230769	3579.487179487179	-0.07564102564102564	-0.1586294416243655	0.5883134130146082
7879.913330078125	-2.953078658989256	0.4349171378868407	28.69213410107441	2.789573710701081	1.556225310191529	-0.4481662797954918	3402.174358974359	3580.952380952381	-0.07307692307692308	-0.1598984771573604	0.5909694555112881
7899.444580078125	-2.98136356529308	0.1542541240229337	29.86364347069201	2.778436009609888	1.567250509251498	-0.8230980491885882	3422.564102564103	3582.417582417582	-0.07179487179487179	-0.1586294416243655	0.5790172642762284
7918.975830078125	-2.709531389850207	0.5058574729794781	29.04686101497932	3.145020546412167	1.180818183783806	-0.08920457226102602	3390.523076923077	3572.161172161172	-0.06794871794871794	-0.1700507614213198	0.597609561752988
7938.507080078125	-3.062864033743181	0.9258003663883052	29.7135966256819	3.133882845320974	1.191843382843775	-0.4641363416541224	3393.435897435897	3580.952380952381	-0.05512820512820513	-0.1751269035532995	0.5869853917662682
7958.038330078125	-3.345160928922393	0.7386125382116164	29.48390710776076	3.508680030402617	0.4217791309016509	0.6713893867437401	3361.394871794872	3572.161172161172	-0.07307692307692308	-0.1700507614213198	0.5989375830013279
7977.569580078125	-4.027404023130725	0.5169088325928006	29.25959768692759	2.795423816324739	2.301438765020456	-0.5015672439498996	3400.717948717948	3580.952380952381	-0.07307692307692308	-0.1751269035532995	0.5989375830013279
7997.100830078125	-3.19068566074856	0.5118232865868148	28.93143392514401	3.492254733843888	1.189042983850516	-0.1318751161968605	3384.697435897436	3573.626373626374	-0.06538461538461539	-0.1687817258883249	0.597609561752988
8016.632080078125	-3.48007702033726	1.06257009823294	27.99229796627405	3.500467382123253	0.8054110573760833	0.2697571352734398	3373.046153846154	3573.626373626374	-0.07051282051282051	-0.1713197969543147	0.593625498007968
8036.163330078125	-2.985641788949995	0.8508828222241098	29.43582110500053	2.778436009609888	1.567250509251498	-0.8230980491885882	3402.174358974359	3578.021978021978	-0.07179487179487179	-0.1637055837563452	0.5843293492695882
8055.694580078125	-2.868500331793173	0.9679545658803351	29.14996682068271	3.136807898132803	1.564450110258239	-0.4908368237313263	3406.54358974359	3579.487179487179	-0.06794871794871794	-0.1814720812182741	0.5909694555112881
8075.225830078125	-3.345822668552779	0.3931270490844601	29.41773314472214	2.789573710701081	1.556225310191529	-0.4481662797954918	3402.174358974359	3580.952380952381	-0.06282051282051282	-0.1700507614213198	0.5843293492695882
8094.757080078125	-3.383464265444388	0.5065296773296005	29.65357345556125	3.489329681032059	0.8164362564360523	-0.1051746341196566	3380.328205128205	3570.695970695971	-0.05384615384615385	-0.1776649746192893	0.594953519256308
8114.288330078125	-3.349746938453906	0.2047828693769059	29.02530615460946	3.136807898132803	1.564450110258239	-0.4908368237313263	3403.630769230769	3579.487179487179	-0.07692307692307693	-0.1713197969543147	0.5989375830013279
8133.819580078125	-3.231405116386151	1.320642244473089	28.85948836138493	2.448189628893017	2.293213964953746	-0.4588967000140651	3402.174358974359	3580.952380952381	-0.06282051282051282	-0.1611675126903553	0.6002656042496679
8153.350830078125	-3.023652728891122	0.8877354100261864	29.63472711088786	3.145020546412167	1.180818183783806	-0.08920457226102602	3380.328205128205	3575.091575091575	-0.0641025641025641	-0.1713197969543147	0.5922974767596281
8172.882080078125	-2.266988241348447	0.037350431454239	29.30117586515531	3.125670197041609	1.575475309318208	-0.8657685931244228	3405.087179487179	3579.487179487179	-0.07820512820512821	-0.1611675126903553	0.6015936254980079
8192.413330078125	-2.782783196861077	0.6536879519066103	29.72168031389234	2.786648657889253	1.183618582777066	-0.4214657977182879	3397.805128205128	3579.487179487179	-0.06666666666666667	-0.1624365482233502	0.5856573705179282
8211.944580078125	-3.351932218163553	0.668528463422111	28.80677818364475	3.136807898132803	1.564450110258239	-0.4908368237313263	3403.630769230769	3579.487179487179	-0.06794871794871794	-0.1763959390862944	0.5883134130146082
8231.475830078125	-3.146719064133959	0.584340100929144	29.32809358660417	2.44233952326936	1.54800051012482	-0.4054957358596573	3393.435897435897	3580.952380952381	-0.06282051282051282	-0.1687817258883249	0.5869853917662682
8251.007080078125	-3.062956369505561	0.1566628562775391	29.70436304944395	3.145020546412167	1.180818183783806	-0.08920457226102602	3387.610256410256	3579.487179487179	-0.06794871794871794	-0.1675126903553299	0.5803452855245683
8270.538330078125	-2.983948966639705	0.6184038409214863	29.60510333602953	2.789573710701081	1.556225310191529	-0.4481662797954918	3409.45641025641	3582.417582417582	-0.0576923076923077	-0.1713197969543147	0.5776892430278884
8290.069580078125	-3.312028395093647	0.8989948328907372	28.7971604906353	2.453477224360554	1.536975311064851	-0.03056396646656084	3397.805128205128	3573.626373626374	-0.07307692307692308	-0.1687817258883249	0.597609561752988
8309.600830078125	-3.026068848006717	0.9286372287944765	29.39311519932828	3.156158247503361	1.169792984723837	0.2857271971320704	3387.610256410256	3579.487179487179	-0.06923076923076924	-0.1675126903553299	0.597609561752988
8329.132080078125	-2.942814000071406	0.7707036785336587	29.71859999285936	3.145020546412167	1.180818183783806	-0.08920457226102602	3389.066666666666	3575.091575091575	-0.06538461538461539	-0.1789340101522843	0.594953519256308
8348.663330078125	-2.626138038271327	1.001630187884809	29.38619617286732	2.786648657889253	1.183618582777066	-0.4214657977182879	3402.174358974359	3579.487179487179	-0.06923076923076924	-0.1700507614213198	0.594953519256308
8368.194580078125	-3.144472227249392	0.966686180291116	29.55277727506084	3.136807898132803	1.564450110258239	-0.4908368237313263	3406.54358974359	3580.952380952381	-0.06666666666666667	-0.1611675126903553	0.6015936254980079
8387.725830078125	-3.236514361904481	1.095033351677371	28.34856380955195	2.789573710701081	1.556225310191529	-0.4481662797954918	3406.54358974359	3580.952380952381	-0.06538461538461539	-0.1738578680203046	0.594953519256308
8407.257080078125	-3.907584828864898	-0.06103163053876065	29.2415171135102	3.847701569554974	0.8136358574427929	0.2270865913376052	3377.415384615385	3576.556776556776	-0.07179487179487179	-0.1675126903553299	0.5843293492695882
8426.788330078125	-3.871851504395798	0.5967238655936019	28.81484956042021	2.781361062421717	1.939857236665962	-0.8497985312657921	3416.738461538461	3579.487179487179	-0.06282051282051282	-0.1687817258883249	0.597609561752988
8446.319580078125	-3.016373592956875	0.6880757904249044	30.36264070431257	2.439414470457532	1.175393782710356	-0.3787952537824534	3402.174358974359	3580.952380952381	-0.06666666666666667	-0.1751269035532995	0.5909694555112881
8465.850830078125	-2.828042494148991	0.8132459960135572	29.19575058510094	3.153233194691532	0.7971862573093739	0.3124276792092743	3374.502564102564	3575.091575091575	-0.06025641025641026	-0.1700507614213198	0.5909694555112881
8485.382080078125	-3.139470706787171	0.4616346446242735	30.0529293212829	2.77551095679806	1.194643781837035	-0.7963975671113843	3397.805128205128	3579.487179487179	-0.06538461538461539	-0.1675126903553299	0.6002656042496679
8504.913330078125	-3.747061568255211	0.5906860300916094	29.29384317447888	3.159083300315189	1.542399712138301	0.2590267150548665	3389.066666666666	3578.021978021978	-0.06794871794871794	-0.166243654822335	0.596281540504648
8524.444580078125	-2.905310906823367	1.003594785122369	29.46890931766334	2.778436009609888	1.567250509251498	-0.8230980491885882	3415.282051282051	3578.021978021978	-0.06282051282051282	-0.1814720812182741	0.594953519256308
8543.975830078125	-2.775273221520881	0.8768721075822435	30.47267784791191	2.800711411792275	1.54520011113156	-0.07323451040239537	3393.435897435897	3570.695970695971	-0.07435897435897436	-0.1713197969543147	0.597609561752988
8563.507080078125	-2.750497074187476	-0.06969026276295681	28.95029258125239	3.156158247503361	1.169792984723837	0.2857271971320704	3381.784615384615	3573.626373626374	-0.06923076923076924	-0.1776649746192893	0.5883134130146082
8583.038330078125	-3.391451308890211	1.476135052748343	28.85486911097896	2.789573710701081	1.556225310191529	-0.4481662797954918	3409.45641025641	3582.417582417582	-0.06923076923076924	-0.1802030456852792	0.5830013280212483
8602.569580078125	-3.259890083508464	0.5401812920358557	30.01099164915365	2.797786358980446	1.172593383717097	-0.04653402832519149	3390.523076923077	3573.626373626374	-0.06538461538461539	-0.1751269035532995	0.5909694555112881
8622.100830078125	-3.545187890965007	0.8560243852592726	29.48121090349927	3.50631748774691	1.55062451220501	0.2163561711190319	3387.610256410256	3579.487179487179	-0.05128205128205128	-0.1637055837563452	0.5883134130146082
8641.632080078125	-3.381263596441011	1.00430700163619	29.87364035589896	2.797786358980446	1.172593383717097	-0.04653402832519149	3387.610256410256	3575.091575091575	-0.07564102564102564	-0.1751269035532995	0.594953519256308
8661.163330078125	-3.109846931928845	0.394791555094287	29.01530680711551	2.789573710701081	1.556225310191529	-0.4481662797954918	3393.435897435897	3578.021978021978	-0.06282051282051282	-0.1687817258883249	0.594953519256308
8680.694580078125	-3.147411582351804	0.3158087750983992	29.25884176481958	3.133882845320974	1.191843382843775	-0.4641363416541224	3402.174358974359	3582.417582417582	-0.0641025641025641	-0.1675126903553299	0.5896414342629481
8700.225830078125	-3.546111248588802	1.164649284151613	29.38887514111982	2.789573710701081	1.556225310191529	-0.4481662797954918	3403.630769230769	3579.487179487179	-0.07051282051282051	-0.1751269035532995	0.6082337317397077
8719.757080078125	-3.66385288820109	0.5481837247754087	29.61471117989099	2.797786358980446	1.172593383717097	-0.04653402832519149	3386.153846153846	3572.161172161172	-0.06666666666666667	-0.1624365482233502	0.5896414342629481
8739.288330078125	-4.063337408418313	1.359355397887111	29.66625915816869	2.434126874989996	1.931632436599253	-0.8071279873299576	3400.717948717948	3576.556776556776	-0.06794871794871794	-0.1738578680203046	0.5909694555112881
8758.819580078125	-3.263306506716504	1.082093417937515	29.66934932834966	2.786648657889253	1.183618582777066	-0.4214657977182879	3400.717948717948	3576.556776556776	-0.0641025641025641	-0.1763959390862944	0.5922974767596281
8778.350830078125	-2.425787901060384	1.076199626224834	29.4212098939616	3.156158247503361	1.169792984723837	0.2857271971320704	3381.784615384615	3576.556776556776	-0.06538461538461539	-0.166243654822335	0.6002656042496679
8797.882080078125	-3.544110640403913	1.162628669884876	29.58893595960864	2.789573710701081	1.556225310191529	-0.4481662797954918	3403.630769230769	3579.487179487179	-0.0641025641025641	-0.1738578680203046	0.5989375830013279
8817.413330078125	-3.547942574542661	1.743422000288087	29.2057425457339	3.492254733843888	1.189042983850516	-0.1318751161968605	3389.066666666666	3575.091575091575	-0.07179487179487179	-0.1624365482233502	0.594953519256308
8836.944580078125	-3.066572853532089	0.1987770436058716	29.34271464679108	2.778436009609888	1.567250509251498	-0.8230980491885882	3416.738461538461	3579.487179487179	-0.06538461538461539	-0.166243654822335	0.5989375830013279
8856.475830078125	-3.389035189774615	0.435233233980053	29.09648102253854	2.789573710701081	1.556225310191529	-0.4481662797954918	3402.174358974359	3580.952380952381	-0.0576923076923077	-0.1675126903553299	0.5922974767596281
8876.007080078125	-4.460959824094218	0.5148001915659284	29.9040175905783	3.503392434935081	1.178017784790547	0.2430566531962359	3381.784615384615	3572.161172161172	-0.06538461538461539	-0.1751269035532995	0.593625498007968
8895.538330078125	-2.665318564535927	-0.03725901904948331	29.46814354640733	2.789573710701081	1.556225310191529	-0.4481662797954918	3410.91282051282	3582.417582417582	-0.06538461538461539	-0.1649746192893401	0.6042496679946878
8915.069580078125	-2.743879677883615	0.3851646285086049	29.61203221163849	2.805999007259811	0.7889614572426644	0.3550982231451089	3389.066666666666	3575.091575091575	-0.07435897435897436	-0.1713197969543147	0.6055776892430278
8934.600830078125	-3.543633572298286	0.9698391387905	29.63664277017136	3.136807898132803	1.564450110258239	-0.4908368237313263	3390.523076923077	3580.952380952381	-0.05641025641025641	-0.1675126903553299	0.6002656042496679
8954.132080078125	-3.313767385285127	1.246905059137978	28.62326147148733	3.497542329311424	0.4328043299616199	0.2964576173506437	3365.764102564102	3573.626373626374	-0.07692307692307693	-0.1763959390862944	0.5922974767596281
8973.663330078125	-2.742433084273004	0.768318953577272	29.75669157269963	3.489329681032059	0.8164362564360523	-0.1051746341196566	3381.784615384615	3572.161172161172	-0.06153846153846154	-0.1624365482233502	0.6029216467463479
8993.194580078125	-3.188331098807884	0.6248297944113472	29.16689011921162	2.79249876351291	1.928832037605993	-0.4748667618726957	3403.630769230769	3578.021978021978	-0.06794871794871794	-0.1700507614213198	0.6042496679946878
9012.725830078125	-3.986699956786864	0.7465669563547317	29.33000432131367	2.789573710701081	1.556225310191529	-0.4481662797954918	3400.717948717948	3578.021978021978	-0.07564102564102564	-0.1675126903553299	0.596281540504648
9032.257080078125	-3.024345247108967	0.6192040841954416	29.56547528910327	3.153233194691532	0.7971862573093739	0.3124276792092743	3377.415384615385	3575.091575091575	-0.07564102564102564	-0.1675126903553299	0.596281540504648
9051.788330078125	-4.14908532193787	0.7505761751572477	29.09146780621309	3.145020546412167	1.180818183783806	-0.08920457226102602	3390.523076923077	3572.161172161172	-0.0641025641025641	-0.1751269035532995	0.593625498007968
9071.319580078125	-3.584199134998578	0.3938872801947176	29.58008650014219	3.122745144229781	1.202868581903744	-0.8390681110472189	3402.174358974359	3576.556776556776	-0.06666666666666667	-0.1675126903553299	0.5909694555112881
9090.850830078125	-3.627026923877166	0.4740664238851687	29.29730761228336	3.850626622366802	1.186242584857256	0.2003861092604014	3383.241025641025	3579.487179487179	-0.06538461538461539	-0.1738578680203046	0.5883134130146082
9110.382080078125	-2.985164720844368	0.6580932911297341	29.48352791556325	2.431201822178167	1.559025709184789	-0.7804275052527536	3400.717948717948	3578.021978021978	-0.05897435897435897	-0.166243654822335	0.593625498007968
9129.913330078125	-2.750373959837637	0.6224930840513978	28.96260401623632	3.147945599223996	1.55342491119827	-0.1159050543382299	3389.066666666666	3573.626373626374	-0.06153846153846154	-0.166243654822335	0.5843293492695882
9149.444580078125	-2.664364428324673	0.5771619187617652	29.56355716753277	2.44233952326936	1.54800051012482	-0.4054957358596573	3402.174358974359	3578.021978021978	-0.07435897435897436	-0.1611675126903553	0.5869853917662682
9168.975830078125	-3.341975345120301	0.7738566370330426	29.80246548796988	2.44233952326936	1.54800051012482	-0.4054957358596573	3403.630769230769	3579.487179487179	-0.06282051282051282	-0.1763959390862944	0.6029216467463479
9188.507080078125	-3.673471196782284	0.5963597549039523	28.65288032177166	3.492254733843888	1.189042983850516	-0.1318751161968605	3375.958974358974	3570.695970695971	-0.06025641025641026	-0.1713197969543147	0.594953519256308
9208.038330078125	-3.027115319980351	0.5450787808724621	29.2884680019649	3.150308141879703	0.4245795298949105	0.3391281612864782	3370.133333333333	3573.626373626374	-0.06794871794871794	-0.1751269035532995	0.597609561752988
9227.569580078125	-2.868792728374041	-0.3009808828037569	29.12072716259589	3.153233194691532	0.7971862573093739	0.3124276792092743	3373.046153846154	3572.161172161172	-0.06025641025641026	-0.1700507614213198	0.594953519256308
9247.100830078125	-4.103056559963459	0.6671640486400172	29.69434400365403	2.797786358980446	1.172593383717097	-0.04653402832519149	3383.241025641025	3572.161172161172	-0.06538461538461539	-0.1725888324873096	0.5922974767596281
9266.632080078125	-2.860267059647672	0.3827158840903018	29.97329403523286	3.489329681032059	0.8164362564360523	-0.1051746341196566	3364.307692307692	3569.230769230769	-0.06538461538461539	-0.1637055837563452	0.5989375830013279
9286.163330078125	-3.076960626799778	0.1708071561446987	28.3039373200222	2.44233952326936	1.54800051012482	-0.4054957358596573	3403.630769230769	3579.487179487179	-0.06666666666666667	-0.1700507614213198	0.594953519256308
9305.694580078125	-3.026299687412666	0.5057934535175617	29.37003125873342	2.434126874989996	1.931632436599253	-0.8071279873299576	3415.282051282051	3579.487179487179	-0.06538461538461539	-0.1802030456852792	0.593625498007968
9325.225830078125	-3.063618109135947	0.8111773671503829	29.63818908640534	3.844776516743145	0.4410291300283294	0.2537870734148092	3375.958974358974	3576.556776556776	-0.06538461538461539	-0.1713197969543147	0.6015936254980079
9344.757080078125	-2.865899541152818	0.4653277673335771	29.41004588471818	2.797786358980446	1.172593383717097	-0.04653402832519149	3380.328205128205	3572.161172161172	-0.05897435897435897	-0.1649746192893401	0.6002656042496679
9364.288330078125	-3.468673553683397	0.5510525969125384	29.13264463166033	3.150870652035824	1.926031638612733	-0.1426055364154338	3394.892307692307	3572.161172161172	-0.06282051282051282	-0.1763959390862944	0.5869853917662682
9383.819580078125	-3.07329797489206	2.013261723871749	28.67020251079405	3.145020546412167	1.180818183783806	-0.08920457226102602	3386.153846153846	3564.835164835165	-0.06794871794871794	-0.1763959390862944	0.6042496679946878
9403.350830078125	-3.388819739662397	0.8965540909051737	29.11802603376042	3.164370895782725	0.7861610582494049	0.6873594486023706	3381.784615384615	3572.161172161172	-0.06153846153846154	-0.1687817258883249	0.5922974767596281
9422.882080078125	-3.826053581827337	0.0904679637994566	29.39464181726629	2.786648657889253	1.183618582777066	-0.4214657977182879	3408	3582.417582417582	-0.06282051282051282	-0.1700507614213198	0.5896414342629481
9442.413330078125	-2.585864872151904	0.3086465977964994	29.41351278480965	2.800711411792275	1.54520011113156	-0.07323451040239537	3387.610256410256	3570.695970695971	-0.06666666666666667	-0.1725888324873096	0.5869853917662682
9461.944580078125	-3.78799647400502	0.938184131052763	29.20035259949794	2.778436009609888	1.567250509251498	-0.8230980491885882	3403.630769230769	3578.021978021978	-0.05897435897435897	-0.1776649746192893	0.596281540504648
9481.475830078125	-3.26230620262406	0.5810831108041459	29.76937973759407	2.789573710701081	1.556225310191529	-0.4481662797954918	3402.174358974359	3580.952380952381	-0.06153846153846154	-0.1713197969543147	0.5922974767596281
9501.007080078125	-3.543110336311469	0.6616183627515071	29.68896636885305	3.500467382123253	0.8054110573760833	0.2697571352734398	3381.784615384615	3576.556776556776	-0.0576923076923077	-0.1649746192893401	0.596281540504648
9520.538330078125	-3.188069480814475	0.9707194063918507	29.19305191855247	3.847701569554974	0.8136358574427929	0.2270865913376052	3367.220512820513	3573.626373626374	-0.06923076923076924	-0.1763959390862944	0.6135458167330677
9540.069580078125	-2.864606840479506	0.2332529088843008	29.53931595204942	3.145020546412167	1.180818183783806	-0.08920457226102602	3389.066666666666	3573.626373626374	-0.06666666666666667	-0.1700507614213198	0.6029216467463479
9559.600830078125	-2.980994222243563	1.230804164465998	29.90057777564379	2.797786358980446	1.172593383717097	-0.04653402832519149	3383.241025641025	3572.161172161172	-0.05256410256410257	-0.1751269035532995	0.5989375830013279
9579.132080078125	-3.183083349645985	0.5041449523732138	29.69166503540153	3.486404628220231	0.443829529021589	-0.07847415204245273	3371.589743589744	3570.695970695971	-0.07435897435897436	-0.1725888324873096	0.596281540504648
9598.663330078125	-2.548300221728944	0.3876293777923873	29.16997782710559	2.797786358980446	1.172593383717097	-0.04653402832519149	3389.066666666666	3572.161172161172	-0.07179487179487179	-0.1649746192893401	0.594953519256308
9618.194580078125	-3.305995791951523	0.8159788267941145	29.40042080484774	2.781361062421717	1.939857236665962	-0.8497985312657921	3413.825641025641	3579.487179487179	-0.06666666666666667	-0.1713197969543147	0.594953519256308
9637.725830078125	-2.916083412434304	-0.06244806113366155	28.39165875656969	3.492254733843888	1.189042983850516	-0.1318751161968605	3390.523076923077	3572.161172161172	-0.06153846153846154	-0.166243654822335	0.6015936254980079
9657.257080078125	-3.149058236780905	0.4328565114564059	29.09417632190955	3.145020546412167	1.180818183783806	-0.08920457226102602	3377.415384615385	3572.161172161172	-0.07435897435897436	-0.1751269035532995	0.5909694555112881
9676.788330078125	-2.428450248875659	-0.2672652486355852	29.15497511243418	2.786648657889253	1.183618582777066	-0.4214657977182879	3391.979487179487	3578.021978021978	-0.06666666666666667	-0.1713197969543147	0.594953519256308
9696.319580078125	-3.745337967357461	1.281252885492574	29.46620326425387	3.492254733843888	1.189042983850516	-0.1318751161968605	3377.415384615385	3570.695970695971	-0.06282051282051282	-0.1713197969543147	0.596281540504648
9715.850830078125	-3.463395025934038	0.3534135915779936	29.66049740659621	3.492254733843888	1.189042983850516	-0.1318751161968605	3383.241025641025	3573.626373626374	-0.06153846153846154	-0.1637055837563452	0.594953519256308
9735.382080078125	-3.627334709751765	1.243608056849282	29.26652902482354	2.789573710701081	1.556225310191529	-0.4481662797954918	3402.174358974359	3578.021978021978	-0.06282051282051282	-0.1624365482233502	0.6029216467463479
9754.913330078125	-3.909323819056378	0.28687859570848	29.06761809436222	2.808924060071639	1.161568184657128	0.3283977410679049	3394.892307692307	3576.556776556776	-0.06538461538461539	-0.1624365482233502	0.594953519256308
9774.444580078125	-3.181929152616242	0.6183638287577886	29.80708473837585	3.136807898132803	1.564450110258239	-0.4908368237313263	3394.892307692307	3576.556776556776	-0.06794871794871794	-0.1751269035532995	0.5883134130146082
9793.975830078125	-2.829119744710084	0.5066417113879542	29.08802552899158	2.77551095679806	1.194643781837035	-0.7963975671113843	3400.717948717948	3576.556776556776	-0.07692307692307693	-0.184010152284264	0.6108897742363877
9813.507080078125	-3.025838008600769	0.3514810040713915	29.41619913992315	3.489329681032059	0.8164362564360523	-0.1051746341196566	3377.415384615385	3572.161172161172	-0.06153846153846154	-0.1675126903553299	0.594953519256308
9833.038330078125	-3.343375770849724	0.2752710670197586	29.6624229150277	2.44233952326936	1.54800051012482	-0.4054957358596573	3403.630769230769	3580.952380952381	-0.06025641025641026	-0.1637055837563452	0.5989375830013279
9852.569580078125	-3.426923015365902	0.1642691685964841	29.3076984634098	2.797786358980446	1.172593383717097	-0.04653402832519149	3387.610256410256	3566.300366300366	-0.06282051282051282	-0.1675126903553299	0.5922974767596281
9872.100830078125	-3.427138465478121	0.7029483116713634	29.28615345218792	2.797786358980446	1.172593383717097	-0.04653402832519149	3389.066666666666	3573.626373626374	-0.06666666666666667	-0.1687817258883249	0.5922974767596281
9891.632080078125	-3.468750500152047	0.7434380051535667	29.12494998479538	2.44233952326936	1.54800051012482	-0.4054957358596573	3400.717948717948	3578.021978021978	-0.06153846153846154	-0.1713197969543147	0.596281540504648
9911.163330078125	-2.628661882443032	0.3118715781905392	29.1338117556968	3.133882845320974	1.191843382843775	-0.4641363416541224	3381.784615384615	3575.091575091575	-0.05512820512820513	-0.1649746192893401	0.5896414342629481
9930.694580078125	-2.868146378037385	0.08298168797160493	29.1853621962615	2.445264576081189	1.920607237539284	-0.4321962179368612	3413.825641025641	3580.952380952381	-0.06794871794871794	-0.1687817258883249	0.5883134130146082
9950.225830078125	-2.746695918636189	0.4264705701302426	29.33040813638115	3.133882845320974	1.191843382843775	-0.4641363416541224	3394.892307692307	3578.021978021978	-0.05897435897435897	-0.1802030456852792	0.596281540504648
9969.757080078125	-3.62299492891993	0.3930710320552832	29.70050710800698	3.145020546412167	1.180818183783806	-0.08920457226102602	3381.784615384615	3572.161172161172	-0.05384615384615385	-0.166243654822335	0.6055776892430278
9989.288330078125	-2.62906200408001	0.3122757010438866	29.09379959199904	2.434126874989996	1.931632436599253	-0.8071279873299576	3415.282051282051	3579.487179487179	-0.06282051282051282	-0.1700507614213198	0.5922974767596281
10008.81958007813	-2.586341940257531	0.5014361288908751	29.36580597424694	2.797786358980446	1.172593383717097	-0.04653402832519149	3386.153846153846	3564.835164835165	-0.0641025641025641	-0.1751269035532995	0.5922974767596281
10028.35083007813	-2.669119720087214	0.4665801480573171	29.08802799127858	2.797786358980446	1.172593383717097	-0.04653402832519149	3383.241025641025	3573.626373626374	-0.0641025641025641	-0.1687817258883249	0.597609561752988
10047.88208007813	-4.063306629830853	0.2824012345907001	29.66933701691468	3.503392434935081	1.178017784790547	0.2430566531962359	3377.415384615385	3575.091575091575	-0.06666666666666667	-0.1763959390862944	0.5989375830013279
10067.41333007813	-3.949119917070174	0.7870726547024141	29.0880082929826	3.119257581261831	-0.6711902542285418	-0.3306339312681029	3384.697435897436	3579.487179487179	-0.06923076923076924	-0.1802030456852792	0.6015936254980079
10086.94458007813	-2.627738524819237	0.003246679298198996	29.22614751807626	3.147945599223996	1.55342491119827	-0.1159050543382299	3391.979487179487	3573.626373626374	-0.06794871794871794	-0.166243654822335	0.6095617529880477
10106.47583007813	-2.4282655773509	0.2710097715859468	29.17344226491007	2.439414470457532	1.175393782710356	-0.3787952537824534	3400.717948717948	3578.021978021978	-0.06666666666666667	-0.1789340101522843	0.5896414342629481
10126.00708007813	-3.301963796994287	0.734983434964229	29.80362030057137	3.142095493600339	0.8082114563693429	-0.06250409018382208	3383.241025641025	3572.161172161172	-0.0641025641025641	-0.1713197969543147	0.593625498007968
10145.53833007813	-2.626138038271327	1.001630187884809	29.38619617286732	2.789573710701081	1.556225310191529	-0.4481662797954918	3400.717948717948	3580.952380952381	-0.07051282051282051	-0.1675126903553299	0.5909694555112881
10165.06958007813	-3.150797226972385	-0.2192332622963535	28.92027730276157	3.145020546412167	1.180818183783806	-0.08920457226102602	3387.610256410256	3569.230769230769	-0.06538461538461539	-0.1700507614213198	0.5883134130146082
10184.60083007813	-3.385941941734903	0.7013398226907133	29.40580582650971	3.489329681032059	0.8164362564360523	-0.1051746341196566	3381.784615384615	3572.161172161172	-0.0641025641025641	-0.1700507614213198	0.5922974767596281
10204.13208007813	-2.90469533507417	0.4645115191941427	29.53046649258297	3.497542329311424	0.4328043299616199	0.2964576173506437	3368.676923076923	3573.626373626374	-0.07435897435897436	-0.1598984771573604	0.596281540504648
10223.66333007813	-3.302656315212132	0.4664521091334842	29.73436847878678	2.789573710701081	1.556225310191529	-0.4481662797954918	3397.805128205128	3579.487179487179	-0.0641025641025641	-0.1802030456852792	0.5883134130146082
10243.19458007813	-3.30656519581953	0.2396308477777244	29.34348041804708	2.083967634746446	1.550800909118079	-0.7377569613169192	3409.45641025641	3578.021978021978	-0.05512820512820513	-0.1725888324873096	0.5922974767596281
10262.72583007813	-2.746080346886992	-0.1126126957979841	29.39196531130078	3.145020546412167	1.180818183783806	-0.08920457226102602	3378.871794871795	3570.695970695971	-0.0576923076923077	-0.1725888324873096	0.6042496679946878
10282.25708007813	-3.062787087274532	-0.2665850418527232	29.72129127254685	3.478191979940866	0.8274614554960214	-0.480106403512753	3387.610256410256	3578.021978021978	-0.07692307692307693	-0.1700507614213198	0.597609561752988
10301.78833007813	-2.550146936976534	1.004879175577068	28.98530630234668	2.437051927801824	2.304239164013715	-0.8338284694071616	3416.738461538461	3579.487179487179	-0.06923076923076924	-0.1814720812182741	0.596281540504648
10321.31958007813	-3.273217211878565	-0.138666000618034	28.6782788121435	3.145020546412167	1.180818183783806	-0.08920457226102602	3380.328205128205	3572.161172161172	-0.06538461538461539	-0.1700507614213198	0.597609561752988
10340.85083007813	-2.505056921919648	0.268569029600383	29.49430780803518	2.794861306168618	0.7999866563026334	-0.01983354624798756	3389.066666666666	3573.626373626374	-0.07307692307692308	-0.1713197969543147	0.5883134130146082
10360.38208007813	-2.905618692697965	0.7731364180864828	29.43813073020352	2.450552171548725	1.164368583650387	-0.003863484389356964	3389.066666666666	3572.161172161172	-0.06153846153846154	-0.166243654822335	0.6082337317397077
10379.91333007813	-3.264891603970685	1.045232827702698	29.51083960293159	2.789573710701081	1.556225310191529	-0.4481662797954918	3403.630769230769	3576.556776556776	-0.05384615384615385	-0.1713197969543147	0.5922974767596281
10399.44458007813	-3.509900856014075	-0.3703847508104001	29.00991439859255	2.79249876351291	1.928832037605993	-0.4748667618726957	3415.282051282051	3580.952380952381	-0.06025641025641026	-0.1649746192893401	0.594953519256308
10418.97583007813	-3.025099322501733	0.5045810849575194	29.49006774982671	3.125670197041609	1.575475309318208	-0.8657685931244228	3406.54358974359	3579.487179487179	-0.06282051282051282	-0.1725888324873096	0.5896414342629481
10438.50708007813	-3.743198855529004	0.9329385363919862	29.68011444709961	3.839488921275609	1.197267783917225	-0.1745456601326951	3378.871794871795	3570.695970695971	-0.06666666666666667	-0.1763959390862944	0.6002656042496679
10458.03833007813	-2.389731401422956	0.9259364077448774	29.02685985770443	2.450552171548725	1.164368583650387	-0.003863484389356964	3399.261538461538	3573.626373626374	-0.0641025641025641	-0.1624365482233502	0.5856573705179282
10477.56958007813	-2.868854285548961	-0.1470725562109342	29.11457144510392	3.145020546412167	1.180818183783806	-0.08920457226102602	3381.784615384615	3572.161172161172	-0.06794871794871794	-0.1649746192893401	0.6029216467463479
10497.10083007813	-3.108908185011321	1.047689574553741	29.10918149886796	3.489329681032059	0.8164362564360523	-0.1051746341196566	3383.241025641025	3573.626373626374	-0.07307692307692308	-0.166243654822335	0.596281540504648
10516.63208007813	-2.746803643692298	0.6958101416676823	29.31963563077021	2.786648657889253	1.183618582777066	-0.4214657977182879	3403.630769230769	3578.021978021978	-0.06923076923076924	-0.1789340101522843	0.5896414342629481
